MSG Master    CELL:    5.91209   5.91209  23.24862   90.0000   90.0000  120.0000   SPGR: P 63/m m c             TEMP:    948.55
  1   1280     2.52000     0.00000    -0.12562     0.00000     0.00000    0
    98     0     2
       0.00000      10.00000
     125.00000     130.00000
 2Theta	Yobs	Ycal	Yobs-Ycal	Backg	Posr	(hkl)	K
      0.7700	    0.00	  488.21	-1742.25	  375.68
      0.8700	    0.00	  489.53	-1742.25	  377.01
      0.9700	   43.00	  490.84	-1742.25	  378.32
      1.0700	   46.00	  492.14	-1742.25	  379.61
      1.1700	   56.00	  493.42	-1742.25	  380.89
      1.2700	   35.00	  494.68	-1742.25	  382.16
      1.3700	   32.00	  495.93	-1742.25	  383.41
      1.4700	   88.00	  497.16	-1742.25	  384.64
      1.5700	  290.00	  498.38	-1742.25	  385.86
      1.6700	  456.00	  499.58	-1742.25	  387.06
      1.7700	  578.00	  500.77	-1742.25	  388.25
      1.8700	  626.00	  501.95	-1742.25	  389.42
      1.9700	  763.00	  503.10	-1742.25	  390.58
      2.0700	  727.00	  504.25	-1742.25	  391.73
      2.1700	  758.00	  505.38	-1742.25	  392.86
      2.2700	  745.00	  506.50	-1742.25	  393.97
      2.3700	  817.00	  507.60	-1742.25	  395.08
      2.4700	  683.00	  508.68	-1742.25	  396.16
      2.5700	  725.00	  509.76	-1742.25	  397.24
      2.6700	  674.00	  510.82	-1742.25	  398.29
      2.7700	  598.00	  511.86	-1742.25	  399.34
      2.8700	  607.00	  512.89	-1742.25	  400.37
      2.9700	  600.00	  513.91	-1742.25	  401.39
      3.0700	  560.00	  514.91	-1742.25	  402.39
      3.1700	  624.00	  515.90	-1742.25	  403.38
      3.2700	  699.00	  516.88	-1742.25	  404.36
      3.3700	  694.00	  517.84	-1742.25	  405.32
      3.4700	  849.00	  518.79	-1742.25	  406.27
      3.5700	  888.00	  519.73	-1742.25	  407.21
      3.6700	  956.00	  520.65	-1742.25	  408.13
      3.7700	 1094.00	  521.56	-1742.25	  409.04
      3.8700	 1085.00	  522.46	-1742.25	  409.94
      3.9700	 1100.00	  523.35	-1742.25	  410.83
      4.0700	 1200.00	  524.22	-1742.25	  411.70
      4.1700	 1220.00	  525.08	-1742.25	  412.56
      4.2700	 1207.00	  525.92	-1742.25	  413.40
      4.3700	 1142.00	  526.76	-1742.25	  414.24
      4.4700	 1116.00	  527.58	-1742.25	  415.06
      4.5700	 1167.00	  528.39	-1742.25	  415.87
      4.6700	 1132.00	  529.19	-1742.25	  416.67
      4.7700	 1069.00	  529.97	-1742.25	  417.45
      4.8700	 1039.00	  530.75	-1742.25	  418.22
      4.9700	  952.00	  531.51	-1742.25	  418.98
      5.0700	 1006.00	  532.26	-1742.25	  419.73
      5.1700	 1002.00	  532.99	-1742.25	  420.47
      5.2700	  946.00	  533.72	-1742.25	  421.20
      5.3700	  887.00	  534.43	-1742.25	  421.91
      5.4700	  905.00	  535.13	-1742.25	  422.61
      5.5700	  880.00	  535.82	-1742.25	  423.30
      5.6700	  894.00	  536.50	-1742.25	  423.98
      5.7700	  875.00	  537.17	-1742.25	  424.65
      5.8700	  827.00	  537.83	-1742.25	  425.31
      5.9700	  856.00	  538.47	-1742.25	  425.95
      6.0700	  827.00	  539.11	-1742.25	  426.59
      6.1700	  807.00	  539.73	-1742.25	  427.21
      6.2700	  767.00	  540.35	-1742.25	  427.82
      6.3700	  827.00	  540.95	-1742.25	  428.43
      6.4700	  744.00	  541.54	-1742.25	  429.02
      6.5700	  760.00	  542.12	-1742.25	  429.60
      6.6700	  746.00	  542.69	-1742.25	  430.17
      6.7700	  757.00	  543.25	-1742.25	  430.73
      6.8700	  704.00	  543.80	-1742.25	  431.27
      6.9700	  726.00	  544.33	-1742.25	  431.81
      7.0700	  667.00	  544.86	-1742.25	  432.34
      7.1700	  681.00	  545.38	-1742.25	  432.86
      7.2700	  692.00	  545.89	-1742.25	  433.37
      7.3700	  702.00	  546.39	-1742.25	  433.86
      7.4700	  718.00	  546.87	-1742.25	  434.35
      7.5700	  658.00	  547.35	-1742.25	  434.83
      7.6700	  633.00	  547.82	-1742.25	  435.30
      7.7700	  666.00	  548.28	-1742.25	  435.76
      7.8700	  625.00	  548.73	-1742.25	  436.21
      7.9700	  625.00	  549.17	-1742.25	  436.64
      8.0700	  620.00	  549.60	-1742.25	  437.07
      8.1700	  650.00	  550.02	-1742.25	  437.49
      8.2700	  588.00	  550.43	-1742.25	  437.90
      8.3700	  657.00	  550.83	-1742.25	  438.31
      8.4700	  598.00	  551.22	-1742.25	  438.70
      8.5700	  677.00	  551.60	-1742.25	  439.08
      8.6700	  599.00	  551.98	-1742.25	  439.45
      8.7700	  597.00	  552.34	-1742.25	  439.82
      8.8700	  627.00	  552.70	-1742.25	  440.18
      8.9700	  633.00	  553.04	-1742.25	  440.52
      9.0700	  583.00	  553.38	-1742.25	  440.86
      9.1700	  627.00	  553.71	-1742.25	  441.19
      9.2700	  588.00	  554.03	-1742.25	  441.51
      9.3700	  642.00	  554.35	-1742.25	  441.82
      9.4700	  603.00	  554.65	-1742.25	  442.13
      9.5700	  589.00	  554.95	-1742.25	  442.42
      9.6700	  559.00	  555.23	-1742.25	  442.71
      9.7700	  579.00	  555.51	-1742.25	  442.99
      9.8700	  542.00	  555.78	-1742.25	  443.26
      9.9700	  559.00	  556.04	-1742.25	  443.52
     10.0700	  589.00	  557.76	-1711.01	  443.78
     10.1700	  625.00	  558.17	-1675.42	  444.02
     10.2700	  579.00	  558.61	-1721.86	  444.26
     10.3700	  587.00	  559.09	-1714.34	  444.49
     10.4700	  552.00	  559.66	-1749.91	  444.72
     10.5700	  585.00	  560.37	-1717.62	  444.93
     10.6700	  589.00	  561.31	-1714.56	  445.14
     10.7700	  601.00	  562.57	-1703.82	  445.34
     10.8700	  580.00	  564.24	-1726.49	  445.53
     10.9700	  578.00	  566.33	-1730.58	  445.71
     11.0700	  559.00	  568.83	-1752.08	  445.89
     11.1700	  612.00	  571.75	-1702.00	  446.06
     11.2700	  595.00	  575.12	-1722.37	  446.22
     11.3700	  597.00	  579.03	-1724.28	  446.38
     11.4700	  588.00	  583.62	-1737.87	  446.53
     11.5700	  601.00	  589.11	-1730.36	  446.67
     11.6700	  557.00	  595.86	-1781.11	  446.80
     11.7700	  614.00	  604.36	-1732.61	  446.93
     11.8700	  657.00	  615.09	-1700.34	  447.05
     11.9700	  664.00	  627.89	-1706.14	  447.17
     12.0700	  663.00	  640.93	-1720.18	  447.27
     12.1700	  638.00	  649.74	-1753.99	  447.37
     12.2700	  661.00	  647.69	-1728.94	  447.47
     12.3700	  617.00	  631.96	-1757.21	  447.55
     12.4700	  599.00	  610.37	-1753.62	  447.63
     12.5700	  595.00	  592.02	-1739.27	  447.71
     12.6700	  541.00	  579.77	-1781.02	  447.78
     12.7700	  558.00	  572.70	-1756.95	  447.84
     12.8700	  560.00	  568.91	-1751.16	  447.89
     12.9700	  565.00	  566.82	-1744.07	  447.94
     13.0700	  595.00	  565.56	-1712.81	  447.98
     13.1700	  578.00	  564.70	-1728.95	  448.02
     13.2700	  530.00	  564.07	-1776.32	  448.05
     13.3700	  602.00	  563.59	-1703.84	  448.08
     13.4700	  526.00	  563.21	-1779.46	  448.10
     13.5700	  574.00	  562.91	-1731.16	  448.11
     13.6700	  527.00	  562.65	-1777.90	  448.12
     13.7700	  526.00	  562.44	-1778.69	  448.12
     13.8700	  546.00	  562.26	-1758.51	  448.11
     13.9700	  558.00	  562.10	-1746.35	  448.10
     14.0700	  539.00	  561.96	-1765.21	  448.09
     14.1700	  553.00	  561.83	-1751.08	  448.07
     14.2700	  592.00	  561.71	-1711.96	  448.04
     14.3700	  577.00	  561.60	-1726.85	  448.01
     14.4700	  515.00	  561.49	-1788.74	  447.97
     14.5700	  583.00	  561.42	-1720.67	  447.93
     14.6700	  510.00	  561.31	-1793.56	  447.88
     14.7700	  555.00	  561.21	-1748.46	  447.83
     14.8700	  570.00	  561.11	-1733.36	  447.77
     14.9700	  548.00	  561.01	-1755.26	  447.71
     15.0700	  558.00	  560.91	-1745.16	  447.64
     15.1700	  577.00	  560.80	-1726.05	  447.57
     15.2700	  527.00	  560.70	-1775.95	  447.49
     15.3700	  515.00	  560.59	-1787.84	  447.41
     15.4700	  512.00	  560.48	-1790.73	  447.32
     15.5700	  541.00	  560.37	-1761.62	  447.23
     15.6700	  486.00	  560.25	-1816.50	  447.13
     15.7700	  548.00	  560.13	-1754.38	  447.03
     15.8700	  576.00	  560.01	-1726.26	  446.93
     15.9700	  534.00	  559.89	-1768.14	  446.82
     16.0700	  613.00	  559.76	-1689.01	  446.70
     16.1700	  551.00	  559.63	-1750.88	  446.58
     16.2700	  569.00	  559.49	-1732.74	  446.46
     16.3700	  519.00	  559.36	-1782.61	  446.33
     16.4700	  512.00	  559.21	-1789.46	  446.20
     16.5700	  585.00	  559.07	-1716.32	  446.07
     16.6700	  521.00	  558.92	-1780.17	  445.93
     16.7700	  581.00	  558.77	-1720.02	  445.78
     16.8700	  536.00	  558.61	-1764.86	  445.63
     16.9700	  556.00	  558.46	-1744.71	  445.48
     17.0700	  516.00	  558.29	-1784.54	  445.33
     17.1700	  554.00	  558.13	-1746.38	  445.17
     17.2700	  554.00	  557.96	-1746.21	  445.00
     17.3700	  522.00	  557.79	-1778.04	  444.83
     17.4700	  555.00	  557.61	-1744.86	  444.66
     17.5700	  534.00	  557.43	-1765.68	  444.49
     17.6700	  519.00	  557.25	-1780.50	  444.31
     17.7700	  560.00	  557.07	-1739.32	  444.13
     17.8700	  598.00	  556.98	-1701.23	  443.94
     17.9700	  552.00	  556.79	-1747.04	  443.75
     18.0700	  541.00	  556.60	-1757.85	  443.56
     18.1700	  511.00	  556.41	-1787.66	  443.36
     18.2700	  581.00	  556.21	-1717.46	  443.16
     18.3700	  527.00	  556.01	-1771.26	  442.96
     18.4700	  538.00	  555.90	-1760.15	  442.75
     18.5700	  554.00	  555.69	-1743.94	  442.54
     18.6700	  523.00	  555.48	-1774.73	  442.33
     18.7700	  558.00	  555.27	-1739.52	  442.12
     18.8700	  575.00	  555.06	-1722.31	  441.90
     18.9700	  549.00	  554.84	-1748.09	  441.68
     19.0700	  556.00	  554.62	-1740.87	  441.45
     19.1700	  557.00	  554.40	-1739.65	  441.22
     19.2700	  567.00	  554.18	-1729.43	  440.99
     19.3700	  566.00	  553.95	-1730.20	  440.76
     19.4700	  565.00	  553.72	-1730.97	  440.52
     19.5700	  534.00	  553.49	-1761.74	  440.28
     19.6700	  566.00	  553.26	-1729.51	  440.04
     19.7700	  571.00	  553.03	-1724.28	  439.80
     19.8700	  532.00	  552.79	-1763.04	  439.55
     19.9700	  492.00	  552.55	-1802.80	  439.30
     20.0700	  536.00	  552.31	-1758.56	  439.05
     20.1700	  546.00	  552.11	-1748.36	  438.79
     20.2700	  522.00	  551.86	-1772.11	  438.54
     20.3700	  559.00	  551.62	-1734.87	  438.28
     20.4700	  559.00	  551.37	-1734.62	  438.02
     20.5700	  542.00	  551.12	-1751.37	  437.75
     20.6700	  564.00	  550.87	-1729.12	  437.48
     20.7700	  577.00	  550.62	-1715.87	  437.22
     20.8700	  533.00	  550.37	-1759.62	  436.94
     20.9700	  558.00	  550.12	-1734.37	  436.67
     21.0700	  533.00	  549.86	-1759.11	  436.40
     21.1700	  539.00	  549.61	-1752.86	  436.12
     21.2700	  538.00	  549.35	-1753.60	  435.84
     21.3700	  556.00	  549.10	-1735.35	  435.56
     21.4700	  592.00	  548.84	-1699.09	  435.27
     21.5700	  576.00	  548.59	-1714.84	  434.99
     21.6700	  539.00	  548.34	-1751.59	  434.70
     21.7700	  535.00	  548.08	-1755.33	  434.41
     21.8700	  526.00	  547.83	-1764.08	  434.12
     21.9700	  541.00	  547.58	-1748.83	  433.83
     22.0700	  544.00	  547.33	-1745.58	  433.53
     22.1700	  536.00	  547.08	-1753.33	  433.23
     22.2700	  547.00	  546.80	-1742.05	  432.94
     22.3700	  545.00	  546.56	-1743.81	  432.64
     22.4700	  556.00	  546.32	-1732.57	  432.34
     22.5700	  581.00	  546.10	-1707.35	  432.03
     22.6700	  532.00	  545.88	-1756.13	  431.73
     22.7700	  598.00	  545.81	-1690.06	  431.42
     22.8700	  577.00	  545.61	-1710.86	  431.11
     22.9700	  544.00	  545.43	-1743.68	  430.81
     23.0700	  547.00	  545.26	-1740.51	  430.50
     23.1700	  552.00	  545.12	-1735.37	  430.18
     23.2700	  578.00	  545.00	-1709.25	  429.87
     23.3700	  563.00	  544.92	-1724.17	  429.56
     23.4700	  538.00	  544.88	-1749.13	  429.24
     23.5700	  562.00	  544.91	-1725.16	  428.92
     23.6700	  544.00	  545.04	-1743.29	  428.61
     23.7700	  618.00	  545.31	-1669.56	  428.29
     23.8700	  555.00	  545.84	-1733.09	  427.97
     23.9700	  536.00	  546.80	-1753.05	  427.65
     24.0700	  551.00	  548.53	-1739.78	  427.32
     24.1700	  576.00	  551.52	-1717.77	  427.00
     24.2700	  552.00	  556.39	-1746.64	  426.68
     24.3700	  561.00	  563.78	-1745.03	  426.35
     24.4700	  614.00	  574.10	-1702.35	  426.02
     24.5700	  596.00	  587.04	-1733.29	  425.70
     24.6700	  636.00	  600.72	-1706.97	  425.37
     24.7700	  695.00	  610.96	-1658.21	  425.04
     24.8700	  613.00	  611.75	-1741.00	  424.71
     24.9700	  595.00	  600.38	-1747.63	  424.38
     25.0700	  617.00	  582.93	-1708.18	  424.05
     25.1700	  575.00	  567.13	-1734.38	  423.72
     25.2700	  602.00	  555.95	-1696.20	  423.38
     25.3700	  535.00	  549.14	-1756.39	  423.05
     25.4700	  553.00	  545.33	-1734.58	  422.72
     25.5700	  531.00	  543.19	-1754.44	  422.38
     25.6700	  542.00	  541.88	-1742.13	  422.05
     25.7700	  562.00	  541.00	-1721.25	  421.71
     25.8700	  569.00	  540.35	-1713.60	  421.38
     25.9700	  575.00	  539.86	-1707.11	  421.04
     26.0700	  565.00	  539.50	-1716.75	  420.70
     26.1700	  533.00	  539.24	-1748.49	  420.37
     26.2700	  539.00	  539.08	-1742.33	  420.03
     26.3700	  567.00	  539.02	-1714.27	  419.69
     26.4700	  531.00	  539.05	-1750.30	  419.35
     26.5700	  546.00	  539.19	-1735.44	  419.02
     26.6700	  543.00	  539.45	-1738.70	  418.68
     26.7700	  555.00	  539.85	-1727.10	  418.34
     26.8700	  553.00	  540.43	-1729.68	  418.00
     26.9700	  573.00	  541.23	-1710.48	  417.66
     27.0700	  544.00	  542.33	-1740.58	  417.32
     27.1700	  518.00	  543.85	-1768.10	  416.98
     27.2700	  565.00	  545.99	-1723.24	  416.64
     27.3700	  539.00	  549.17	-1752.42	  416.30
     27.4700	  534.00	  554.21	-1762.46	  415.96
     27.5700	  545.00	  562.58	-1759.83	  415.62
     27.6700	  545.00	  576.73	-1773.98	  415.28
     27.7700	  532.00	  600.01	-1810.26	  414.94
     27.8700	  610.00	  635.80	-1768.05	  414.60
     27.9700	  690.00	  685.42	-1737.67	  414.26
     28.0700	  738.00	  745.19	-1749.44	  413.92
     28.1700	  803.00	  803.44	-1742.69	  413.58
     28.2700	  916.00	  839.81	-1666.06	  413.24
     28.3700	  930.00	  834.93	-1647.18	  412.90
     28.4700	  863.00	  797.22	-1676.47	  412.57
     28.5700	  755.00	  761.38	-1748.63	  412.23
     28.6700	  733.00	  750.88	-1760.13	  411.89
     28.7700	  752.00	  767.24	-1757.49	  411.55
     28.8700	  822.00	  795.60	-1715.85	  411.21
     28.9700	  813.00	  810.56	-1739.81	  410.87
     29.0700	  766.00	  788.51	-1764.76	  410.54
     29.1700	  729.00	  732.24	-1745.49	  410.20
     29.2700	  686.00	  668.79	-1725.04	  409.86
     29.3700	  580.00	  617.61	-1779.86	  409.53
     29.4700	  606.00	  583.44	-1719.69	  409.19
     29.5700	  592.00	  563.33	-1713.58	  408.86
     29.6700	  546.00	  552.23	-1748.48	  408.52
     29.7700	  580.00	  546.02	-1708.27	  408.19
     29.8700	  561.00	  542.35	-1723.60	  407.85
     29.9700	  599.00	  540.04	-1683.29	  407.52
     30.0700	  546.00	  538.76	-1735.01	  407.19
     30.1700	  589.00	  538.55	-1691.80	  406.86
     30.2700	  547.00	  539.80	-1735.05	  406.52
     30.3700	  540.00	  543.32	-1745.57	  406.19
     30.4700	  564.00	  550.40	-1728.65	  405.86
     30.5700	  586.00	  562.43	-1718.68	  405.53
     30.6700	  552.00	  580.01	-1770.26	  405.20
     30.7700	  575.00	  601.63	-1768.88	  404.88
     30.8700	  606.00	  622.54	-1758.79	  404.55
     30.9700	  644.00	  634.61	-1732.86	  404.22
     31.0700	  644.00	  629.61	-1727.86	  403.90
     31.1700	  608.00	  608.53	-1742.78	  403.57
     31.2700	  617.00	  582.46	-1707.71	  403.25
     31.3700	  565.00	  560.35	-1737.60	  402.92
     31.4700	  522.00	  545.00	-1765.25	  402.60
     31.5700	  522.00	  535.68	-1755.93	  402.28
     31.6700	  512.00	  530.45	-1760.70	  401.96
     31.7700	  562.00	  527.52	-1707.77	  401.64
     31.8700	  511.00	  525.77	-1757.02	  401.32
     31.9700	  488.00	  524.62	-1778.87	  401.00
     32.0700	  548.00	  523.83	-1718.08	  400.68
     32.1700	  534.00	  523.31	-1731.56	  400.37
     32.2700	  543.00	  523.00	-1722.25	  400.05
     32.3700	  542.00	  522.88	-1723.13	  399.74
     32.4700	  553.00	  522.97	-1712.22	  399.42
     32.5700	  549.00	  523.27	-1716.52	  399.11
     32.6700	  531.00	  523.81	-1735.06	  398.80
     32.7700	  545.00	  524.65	-1721.90	  398.49
     32.8700	  521.00	  525.86	-1747.11	  398.18
     32.9700	  577.00	  527.57	-1692.82	  397.87
     33.0700	  564.00	  530.01	-1708.26	  397.56
     33.1700	  536.00	  533.64	-1739.89	  397.26
     33.2700	  544.00	  539.40	-1737.65	  396.95
     33.3700	  570.00	  549.19	-1721.44	  396.65
     33.4700	  606.00	  566.39	-1702.64	  396.35
     33.5700	  577.00	  596.14	-1761.39	  396.05
     33.6700	  637.00	  644.38	-1749.63	  395.75
     33.7700	  741.00	  714.44	-1715.69	  395.45
     33.8700	  809.00	  801.68	-1734.93	  395.15
     33.9700	  920.00	  888.86	-1711.11	  394.85
     34.0700	 1041.00	  945.60	-1646.85	  394.56
     34.1700	 1033.00	  939.69	-1648.94	  394.26
     34.2700	  917.00	  869.02	-1694.27	  393.97
     34.3700	  781.00	  771.00	-1732.25	  393.68
     34.4700	  648.00	  681.89	-1776.14	  393.39
     34.5700	  591.00	  616.51	-1767.76	  393.10
     34.6700	  566.00	  574.95	-1751.20	  392.81
     34.7700	  529.00	  550.97	-1764.22	  392.53
     34.8700	  554.00	  537.60	-1725.85	  392.24
     34.9700	  546.00	  529.79	-1726.04	  391.96
     35.0700	  509.00	  524.74	-1757.99	  391.68
     35.1700	  517.00	  521.12	-1746.37	  391.40
     35.2700	  516.00	  518.33	-1744.58	  391.12
     35.3700	  480.00	  516.07	-1778.32	  390.84
     35.4700	  519.00	  514.24	-1737.49	  390.56
     35.5700	  572.00	  512.70	-1682.95	  390.29
     35.6700	  476.00	  511.40	-1777.65	  390.01
     35.7700	  460.00	  510.27	-1792.52	  389.74
     35.8700	  548.00	  509.74	-1703.99	  389.47
     35.9700	  496.00	  508.88	-1755.13	  389.20
     36.0700	  507.00	  508.12	-1743.37	  388.93
     36.1700	  533.00	  507.43	-1716.68	  388.67
     36.2700	  444.00	  506.82	-1805.07	  388.40
     36.3700	  520.00	  506.29	-1728.54	  388.14
     36.4700	  538.00	  505.79	-1710.04	  387.88
     36.5700	  523.00	  505.36	-1724.61	  387.62
     36.6700	  503.00	  504.98	-1744.23	  387.36
     36.7700	  524.00	  504.67	-1722.92	  387.10
     36.8700	  517.00	  504.46	-1729.71	  386.85
     36.9700	  503.00	  504.40	-1743.65	  386.59
     37.0700	  527.00	  504.61	-1719.86	  386.34
     37.1700	  485.00	  505.26	-1762.51	  386.09
     37.2700	  506.00	  506.61	-1742.85	  385.84
     37.3700	  522.00	  508.83	-1729.08	  385.59
     37.4700	  547.00	  511.93	-1707.18	  385.35
     37.5700	  517.00	  515.47	-1740.72	  385.10
     37.6700	  520.00	  518.49	-1740.74	  384.86
     37.7700	  512.00	  519.67	-1749.92	  384.62
     37.8700	  528.00	  518.23	-1732.48	  384.38
     37.9700	  521.00	  514.86	-1736.11	  384.14
     38.0700	  505.00	  510.95	-1748.20	  383.91
     38.1700	  484.00	  507.54	-1765.79	  383.67
     38.2700	  497.00	  504.63	-1749.88	  383.44
     38.3700	  457.00	  502.46	-1787.71	  383.21
     38.4700	  507.00	  500.95	-1736.20	  382.98
     38.5700	  523.00	  499.91	-1719.16	  382.75
     38.6700	  504.00	  499.19	-1737.44	  382.53
     38.7700	  482.00	  498.65	-1758.90	  382.30
     38.8700	  473.00	  498.23	-1767.48	  382.08
     38.9700	  511.00	  497.77	-1729.02	  381.86
     39.0700	  546.00	  497.45	-1693.70	  381.64
     39.1700	  483.00	  497.17	-1756.42	  381.43
     39.2700	  442.00	  496.90	-1797.15	  381.21
     39.3700	  502.00	  496.66	-1736.91	  381.00
     39.4700	  529.00	  496.43	-1709.68	  380.78
     39.5700	  507.00	  496.21	-1731.46	  380.57
     39.6700	  471.00	  496.01	-1767.26	  380.37
     39.7700	  518.00	  495.73	-1719.98	  380.16
     39.8700	  506.00	  495.55	-1731.80	  379.96
     39.9700	  463.00	  495.39	-1774.64	  379.75
     40.0700	  465.00	  495.23	-1772.48	  379.55
     40.1700	  495.00	  495.09	-1742.34	  379.35
     40.2700	  515.00	  494.96	-1722.21	  379.15
     40.3700	  521.00	  494.85	-1716.10	  378.96
     40.4700	  477.00	  494.75	-1760.00	  378.76
     40.5700	  479.00	  494.67	-1757.92	  378.57
     40.6700	  487.00	  494.61	-1749.86	  378.38
     40.7700	  454.00	  495.06	-1783.31	  378.19
     40.8700	  488.00	  495.06	-1749.31	  378.01
     40.9700	  476.00	  495.09	-1761.34	  377.82
     41.0700	  448.00	  495.15	-1789.40	  377.64
     41.1700	  503.00	  495.27	-1734.52	  377.46
     41.2700	  470.00	  495.44	-1767.69	  377.28
     41.3700	  497.00	  495.68	-1740.93	  377.10
     41.4700	  502.00	  496.03	-1736.28	  376.93
     41.5700	  493.00	  496.50	-1745.75	  376.75
     41.6700	  524.00	  497.16	-1715.41	  376.58
     41.7700	  519.00	  498.14	-1721.39	  376.41
     41.8700	  496.00	  499.70	-1745.95	  376.24
     41.9700	  464.00	  502.33	-1780.58	  376.08
     42.0700	  508.00	  506.89	-1741.14	  375.91
     42.1700	  517.00	  514.78	-1740.03	  375.75
     42.2700	  511.00	  527.37	-1758.62	  375.59
     42.3700	  522.00	  545.69	-1765.94	  375.43
     42.4700	  528.00	  569.27	-1783.52	  375.27
     42.5700	  522.00	  594.58	-1814.83	  375.12
     42.6700	  583.00	  615.06	-1774.31	  374.96
     42.7700	  622.00	  622.22	-1742.47	  374.81
     42.8700	  574.00	  611.86	-1780.11	  374.66
     42.9700	  562.00	  588.97	-1769.22	  374.51
     43.0700	  568.00	  562.80	-1737.05	  374.37
     43.1700	  508.00	  539.81	-1774.06	  374.22
     43.2700	  502.00	  522.78	-1763.03	  374.08
     43.3700	  476.00	  511.31	-1777.56	  373.94
     43.4700	  487.00	  504.32	-1759.57	  373.80
     43.5700	  516.00	  500.26	-1726.51	  373.67
     43.6700	  505.00	  497.88	-1735.13	  373.53
     43.7700	  492.00	  496.39	-1746.64	  373.40
     43.8700	  449.00	  495.37	-1788.62	  373.27
     43.9700	  496.00	  494.62	-1740.87	  373.14
     44.0700	  523.00	  494.04	-1713.29	  373.01
     44.1700	  493.00	  493.57	-1742.82	  372.89
     44.2700	  524.00	  493.20	-1711.45	  372.77
     44.3700	  479.00	  492.90	-1756.15	  372.64
     44.4700	  504.00	  492.71	-1730.96	  372.52
     44.5700	  499.00	  492.52	-1735.77	  372.41
     44.6700	  483.00	  492.57	-1751.82	  372.29
     44.7700	  489.00	  492.47	-1745.72	  372.18
     44.8700	  501.00	  492.39	-1733.64	  372.06
     44.9700	  527.00	  492.35	-1707.60	  371.95
     45.0700	  521.00	  492.34	-1713.59	  371.85
     45.1700	  495.00	  492.35	-1739.60	  371.74
     45.2700	  504.00	  492.39	-1730.64	  371.64
     45.3700	  525.00	  492.46	-1709.71	  371.53
     45.4700	  468.00	  492.55	-1766.80	  371.43
     45.5700	  521.00	  492.68	-1713.93	  371.33
     45.6700	  487.00	  492.68	-1747.93	  371.24
     45.7700	  543.00	  492.87	-1692.12	  371.14
     45.8700	  499.00	  493.08	-1736.33	  371.05
     45.9700	  520.00	  493.34	-1715.59	  370.96
     46.0700	  502.00	  493.63	-1733.88	  370.87
     46.1700	  481.00	  493.97	-1755.22	  370.78
     46.2700	  498.00	  494.42	-1738.67	  370.69
     46.3700	  477.00	  494.87	-1760.12	  370.61
     46.4700	  520.00	  495.42	-1717.67	  370.53
     46.5700	  550.00	  496.02	-1688.27	  370.44
     46.6700	  470.00	  496.74	-1768.99	  370.37
     46.7700	  528.00	  497.59	-1711.84	  370.29
     46.8700	  526.00	  498.64	-1714.89	  370.21
     46.9700	  492.00	  500.02	-1750.27	  370.14
     47.0700	  491.00	  501.97	-1753.22	  370.07
     47.1700	  527.00	  504.92	-1720.17	  370.00
     47.2700	  526.00	  509.53	-1725.78	  369.93
     47.3700	  503.00	  516.66	-1755.91	  369.87
     47.4700	  514.00	  527.10	-1755.35	  369.80
     47.5700	  507.00	  541.18	-1776.43	  369.74
     47.6700	  551.00	  558.20	-1749.45	  369.68
     47.7700	  536.00	  575.79	-1782.04	  369.62
     47.8700	  592.00	  589.77	-1740.02	  369.56
     47.9700	  585.00	  595.33	-1752.58	  369.51
     48.0700	  588.00	  590.39	-1744.64	  369.46
     48.1700	  535.00	  577.90	-1785.15	  369.40
     48.2700	  565.00	  563.10	-1740.35	  369.35
     48.3700	  518.00	  549.96	-1774.21	  369.31
     48.4700	  508.00	  540.42	-1774.67	  369.26
     48.5700	  579.00	  534.96	-1698.21	  369.22
     48.6700	  525.00	  533.54	-1750.79	  369.17
     48.7700	  518.00	  534.71	-1758.96	  369.13
     48.8700	  572.00	  538.21	-1708.46	  369.09
     48.9700	  491.00	  543.78	-1795.03	  369.05
     49.0700	  526.00	  551.62	-1767.87	  369.02
     49.1700	  556.00	  562.61	-1748.86	  368.98
     49.2700	  552.00	  578.86	-1769.11	  368.95
     49.3700	  597.00	  604.58	-1749.83	  368.92
     49.4700	  631.00	  647.35	-1758.60	  368.89
     49.5700	  624.00	  719.02	-1837.27	  368.87
     49.6700	  818.00	  835.04	-1759.29	  368.84
     49.7700	  926.00	 1010.75	-1827.00	  368.82
     49.8700	 1270.00	 1253.85	-1726.10	  368.79
     49.9700	 1480.00	 1554.62	-1816.87	  368.77
     50.0700	 1861.00	 1875.89	-1757.14	  368.76
     50.1700	 2270.00	 2147.28	-1619.53	  368.74
     50.2700	 2374.00	 2278.66	-1646.91	  368.72
     50.3700	 2360.00	 2212.01	-1594.26	  368.71
     50.4700	 2068.00	 1976.49	-1650.74	  368.70
     50.5700	 1623.00	 1662.49	-1781.74	  368.69
     50.6700	 1205.00	 1352.93	-1890.18	  368.68
     50.7700	  948.00	 1095.57	-1889.82	  368.67
     50.8700	  821.00	  907.32	-1828.57	  368.66
     50.9700	  717.00	  783.69	-1808.94	  368.66
     51.0700	  683.00	  708.97	-1768.22	  368.66
     51.1700	  602.00	  664.73	-1804.98	  368.66
     51.2700	  644.00	  636.07	-1734.32	  368.66
     51.3700	  581.00	  613.55	-1774.80	  368.66
     51.4700	  554.00	  594.28	-1782.53	  368.67
     51.5700	  569.00	  577.87	-1751.12	  368.67
     51.6700	  552.00	  564.52	-1754.77	  368.68
     51.7700	  540.00	  554.29	-1756.54	  368.69
     51.8700	  580.00	  546.95	-1709.20	  368.70
     51.9700	  556.00	  542.05	-1728.30	  368.71
     52.0700	  532.00	  539.10	-1749.35	  368.72
     52.1700	  542.00	  537.69	-1737.94	  368.74
     52.2700	  564.00	  537.62	-1715.87	  368.75
     52.3700	  574.00	  538.89	-1707.14	  368.77
     52.4700	  542.00	  541.86	-1742.11	  368.79
     52.5700	  548.00	  547.40	-1741.65	  368.81
     52.6700	  560.00	  557.22	-1739.47	  368.83
     52.7700	  590.00	  574.14	-1726.40	  368.86
     52.8700	  623.00	  602.32	-1721.57	  368.88
     52.9700	  622.00	  646.71	-1766.96	  368.91
     53.0700	  751.00	  711.78	-1703.03	  368.94
     53.1700	  814.00	  799.23	-1727.48	  368.97
     53.2700	  938.00	  905.27	-1709.52	  369.00
     53.3700	 1039.00	 1017.89	-1721.14	  369.03
     53.4700	 1147.00	 1115.19	-1710.44	  369.07
     53.5700	 1145.00	 1168.61	-1765.86	  369.10
     53.6700	 1084.00	 1157.27	-1815.52	  369.14
     53.7700	 1074.00	 1085.57	-1753.82	  369.18
     53.8700	  986.00	  979.69	-1735.94	  369.22
     53.9700	  847.00	  867.49	-1762.74	  369.26
     54.0700	  770.00	  767.47	-1739.72	  369.30
     54.1700	  686.00	  688.43	-1744.68	  369.34
     54.2700	  600.00	  631.75	-1774.00	  369.39
     54.3700	  630.00	  594.43	-1706.68	  369.44
     54.4700	  533.00	  571.54	-1780.79	  369.48
     54.5700	  595.00	  558.29	-1705.54	  369.53
     54.6700	  565.00	  550.96	-1728.21	  369.58
     54.7700	  536.00	  547.14	-1753.39	  369.64
     54.8700	  592.00	  545.44	-1695.69	  369.69
     54.9700	  530.00	  545.17	-1757.42	  369.74
     55.0700	  550.00	  546.00	-1738.25	  369.80
     55.1700	  550.00	  547.82	-1740.07	  369.86
     55.2700	  580.00	  550.63	-1712.88	  369.91
     55.3700	  546.00	  554.51	-1750.76	  369.97
     55.4700	  606.00	  559.65	-1695.90	  370.03
     55.5700	  552.00	  566.37	-1756.62	  370.10
     55.6700	  576.00	  575.33	-1741.58	  370.16
     55.7700	  558.00	  587.75	-1772.00	  370.22
     55.8700	  620.00	  606.01	-1728.26	  370.29
     55.9700	  602.00	  634.47	-1774.72	  370.36
     56.0700	  612.00	  680.25	-1810.50	  370.42
     56.1700	  732.00	  753.83	-1764.08	  370.49
     56.2700	  779.00	  868.47	-1831.72	  370.56
     56.3700	 1002.00	 1037.48	-1777.73	  370.63
     56.4700	 1235.00	 1269.37	-1776.62	  370.71
     56.5700	 1533.00	 1561.29	-1770.54	  370.78
     56.6700	 1804.00	 1892.23	-1830.48	  370.86
     56.7700	 2248.00	 2217.73	-1711.98	  370.93
     56.8700	 2396.00	 2468.88	-1815.13	  371.01
     56.9700	 2504.00	 2569.99	-1808.24	  371.09
     57.0700	 2424.00	 2483.17	-1801.42	  371.17
     57.1700	 2274.00	 2241.06	-1709.31	  371.25
     57.2700	 1903.00	 1919.40	-1758.65	  371.33
     57.3700	 1636.00	 1589.28	-1695.53	  371.41
     57.4700	 1240.00	 1296.96	-1799.21	  371.49
     57.5700	 1065.00	 1064.71	-1741.96	  371.58
     57.6700	  901.00	  896.56	-1737.81	  371.66
     57.7700	  867.00	  784.88	-1660.13	  371.75
     57.8700	  738.00	  717.24	-1721.49	  371.84
     57.9700	  703.00	  681.55	-1720.80	  371.93
     58.0700	  682.00	  668.90	-1729.15	  372.02
     58.1700	  697.00	  674.20	-1719.45	  372.11
     58.2700	  715.00	  695.37	-1722.62	  372.20
     58.3700	  739.00	  731.94	-1735.19	  372.29
     58.4700	  832.00	  783.48	-1693.73	  372.38
     58.5700	  907.00	  848.16	-1683.41	  372.48
     58.6700	  975.00	  921.44	-1688.69	  372.57
     58.7700	 1021.00	  995.96	-1717.21	  372.67
     58.8700	 1144.00	 1063.93	-1662.18	  372.76
     58.9700	 1154.00	 1120.49	-1708.74	  372.86
     59.0700	 1287.00	 1162.36	-1617.61	  372.96
     59.1700	 1302.00	 1184.86	-1625.11	  373.06
     59.2700	 1355.00	 1185.04	-1572.29	  373.16
     59.3700	 1321.00	 1167.86	-1589.11	  373.26
     59.4700	 1333.00	 1144.57	-1553.82	  373.36
     59.5700	 1238.00	 1125.55	-1629.80	  373.47
     59.6700	 1238.00	 1117.91	-1622.16	  373.57
     59.7700	 1173.00	 1128.33	-1697.58	  373.67
     59.8700	 1187.00	 1163.79	-1719.04	  373.78
     59.9700	 1280.00	 1227.05	-1689.30	  373.88
     60.0700	 1323.00	 1311.73	-1730.98	  373.99
     60.1700	 1475.00	 1400.36	-1667.61	  374.10
     60.2700	 1545.00	 1465.75	-1663.00	  374.21
     60.3700	 1505.00	 1478.93	-1716.18	  374.31
     60.4700	 1395.00	 1425.78	-1773.03	  374.42
     60.5700	 1413.00	 1317.33	-1646.58	  374.53
     60.6700	 1190.00	 1179.99	-1732.24	  374.65
     60.7700	 1045.00	 1039.41	-1736.66	  374.76
     60.8700	  922.00	  913.49	-1733.74	  374.87
     60.9700	  804.00	  811.95	-1750.20	  374.98
     61.0700	  728.00	  738.10	-1752.35	  375.09
     61.1700	  732.00	  691.12	-1701.37	  375.21
     61.2700	  665.00	  668.50	-1745.75	  375.32
     61.3700	  622.00	  668.26	-1788.51	  375.44
     61.4700	  705.00	  690.08	-1727.33	  375.55
     61.5700	  711.00	  735.27	-1766.52	  375.67
     61.6700	  790.00	  805.64	-1757.89	  375.79
     61.7700	  832.00	  901.37	-1811.62	  375.90
     61.8700	 1059.00	 1018.86	-1702.11	  376.02
     61.9700	 1086.00	 1148.67	-1804.92	  376.14
     62.0700	 1242.00	 1274.03	-1774.28	  376.26
     62.1700	 1350.00	 1371.06	-1763.31	  376.38
     62.2700	 1308.00	 1414.14	-1848.39	  376.50
     62.3700	 1334.00	 1388.98	-1797.23	  376.62
     62.4700	 1210.00	 1303.23	-1835.48	  376.74
     62.5700	 1119.00	 1180.66	-1803.91	  376.86
     62.6700	  999.00	 1046.65	-1789.90	  376.98
     62.7700	  866.00	  920.20	-1796.45	  377.11
     62.8700	  767.00	  812.54	-1787.79	  377.23
     62.9700	  634.00	  728.26	-1836.51	  377.35
     63.0700	  622.00	  667.01	-1787.26	  377.47
     63.1700	  675.00	  625.37	-1692.62	  377.60
     63.2700	  566.00	  598.77	-1775.02	  377.72
     63.3700	  576.00	  582.89	-1749.14	  377.85
     63.4700	  581.00	  574.46	-1735.71	  377.97
     63.5700	  556.00	  571.54	-1757.79	  378.10
     63.6700	  552.00	  573.41	-1763.66	  378.22
     63.7700	  559.00	  580.48	-1763.73	  378.35
     63.8700	  589.00	  593.89	-1747.14	  378.47
     63.9700	  626.00	  615.27	-1731.52	  378.60
     64.0700	  660.00	  646.17	-1728.42	  378.73
     64.1700	  747.00	  687.44	-1682.69	  378.85
     64.2700	  781.00	  738.55	-1699.80	  378.98
     64.3700	  863.00	  796.85	-1676.10	  379.11
     64.4700	  839.00	  857.07	-1760.32	  379.24
     64.5700	  963.00	  911.04	-1690.29	  379.36
     64.6700	 1012.00	  949.32	-1679.57	  379.49
     64.7700	 1032.00	  964.56	-1674.81	  379.62
     64.8700	 1052.00	  954.37	-1644.62	  379.75
     64.9700	  883.00	  923.25	-1782.50	  379.88
     65.0700	  930.00	  877.96	-1690.21	  380.01
     65.1700	  846.00	  826.81	-1723.06	  380.13
     65.2700	  784.00	  776.68	-1734.93	  380.26
     65.3700	  775.00	  731.59	-1698.84	  380.39
     65.4700	  671.00	  692.91	-1764.16	  380.52
     65.5700	  633.00	  660.64	-1769.89	  380.65
     65.6700	  594.00	  634.02	-1782.27	  380.78
     65.7700	  584.00	  612.75	-1771.00	  380.91
     65.8700	  640.00	  596.30	-1698.55	  381.04
     65.9700	  602.00	  584.04	-1724.29	  381.17
     66.0700	  607.00	  575.39	-1710.64	  381.30
     66.1700	  546.00	  569.79	-1766.04	  381.43
     66.2700	  547.00	  566.77	-1762.02	  381.55
     66.3700	  551.00	  565.97	-1757.22	  381.68
     66.4700	  549.00	  567.12	-1760.37	  381.81
     66.5700	  531.00	  570.12	-1781.37	  381.94
     66.6700	  559.00	  575.11	-1758.36	  382.07
     66.7700	  594.00	  582.76	-1731.01	  382.20
     66.8700	  601.00	  594.00	-1735.25	  382.33
     66.9700	  579.00	  611.16	-1774.41	  382.46
     67.0700	  690.00	  637.25	-1689.50	  382.59
     67.1700	  615.00	  677.26	-1804.51	  382.72
     67.2700	  743.00	  737.57	-1736.82	  382.84
     67.3700	  824.00	  825.60	-1743.85	  382.97
     67.4700	  936.00	  948.55	-1754.80	  383.10
     67.5700	 1092.00	 1111.49	-1761.74	  383.23
     67.6700	 1256.00	 1314.81	-1801.06	  383.36
     67.7700	 1594.00	 1551.50	-1699.75	  383.48
     67.8700	 1813.00	 1805.62	-1734.87	  383.61
     67.9700	 2075.00	 2050.43	-1717.68	  383.74
     68.0700	 2315.00	 2249.21	-1676.46	  383.87
     68.1700	 2312.00	 2361.27	-1791.52	  383.99
     68.2700	 2351.00	 2358.15	-1749.40	  384.12
     68.3700	 2218.00	 2240.69	-1764.94	  384.25
     68.4700	 2021.00	 2038.61	-1759.86	  384.37
     68.5700	 1796.00	 1792.68	-1738.93	  384.50
     68.6700	 1559.00	 1539.30	-1722.55	  384.62
     68.7700	 1291.00	 1304.57	-1755.82	  384.75
     68.8700	 1102.00	 1103.92	-1744.17	  384.87
     68.9700	  957.00	  943.78	-1729.03	  385.00
     69.0700	  824.00	  823.42	-1741.67	  385.12
     69.1700	  749.00	  737.48	-1730.73	  385.25
     69.2700	  702.00	  679.03	-1719.28	  385.37
     69.3700	  620.00	  640.45	-1762.70	  385.49
     69.4700	  595.00	  615.50	-1762.75	  385.61
     69.5700	  580.00	  599.34	-1761.59	  385.74
     69.6700	  571.00	  588.70	-1759.95	  385.86
     69.7700	  580.00	  581.53	-1743.78	  385.98
     69.8700	  544.00	  576.59	-1774.84	  386.10
     69.9700	  558.00	  573.22	-1757.47	  386.22
     70.0700	  568.00	  571.03	-1745.28	  386.34
     70.1700	  528.00	  569.84	-1784.09	  386.46
     70.2700	  569.00	  569.60	-1742.85	  386.58
     70.3700	  581.00	  570.34	-1731.59	  386.70
     70.4700	  562.00	  572.23	-1752.48	  386.82
     70.5700	  586.00	  575.59	-1731.84	  386.93
     70.6700	  585.00	  581.05	-1738.30	  387.05
     70.7700	  560.00	  589.67	-1771.92	  387.17
     70.8700	  633.00	  603.14	-1712.39	  387.28
     70.9700	  623.00	  623.96	-1743.21	  387.40
     71.0700	  617.00	  655.55	-1780.80	  387.51
     71.1700	  692.00	  702.18	-1752.43	  387.63
     71.2700	  758.00	  769.40	-1753.65	  387.74
     71.3700	  860.00	  859.82	-1742.07	  387.85
     71.4700	  937.00	  977.06	-1782.31	  387.96
     71.5700	 1138.00	 1120.93	-1725.18	  388.08
     71.6700	 1268.00	 1286.97	-1761.22	  388.19
     71.7700	 1476.00	 1465.33	-1731.58	  388.30
     71.8700	 1631.00	 1640.09	-1751.34	  388.41
     71.9700	 1782.00	 1789.39	-1749.64	  388.51
     72.0700	 1839.00	 1888.08	-1791.33	  388.62
     72.1700	 1850.00	 1915.20	-1807.45	  388.73
     72.2700	 1802.00	 1864.27	-1804.52	  388.84
     72.3700	 1752.00	 1747.23	-1737.48	  388.94
     72.4700	 1543.00	 1587.50	-1786.75	  389.05
     72.5700	 1425.00	 1409.75	-1727.00	  389.15
     72.6700	 1309.00	 1233.96	-1667.21	  389.26
     72.7700	 1085.00	 1073.98	-1731.23	  389.36
     72.8700	  957.00	  937.79	-1723.04	  389.46
     72.9700	  837.00	  828.31	-1733.56	  389.56
     73.0700	  751.00	  744.65	-1735.90	  389.66
     73.1700	  780.00	  683.47	-1645.72	  389.76
     73.2700	  692.00	  640.30	-1690.55	  389.86
     73.3700	  672.00	  610.15	-1680.40	  389.96
     73.4700	  657.00	  590.03	-1675.28	  390.06
     73.5700	  639.00	  576.38	-1679.63	  390.15
     73.6700	  594.00	  567.01	-1715.26	  390.25
     73.7700	  614.00	  560.46	-1688.71	  390.34
     73.8700	  550.00	  555.84	-1748.09	  390.44
     73.9700	  554.00	  552.58	-1740.83	  390.53
     74.0700	  548.00	  550.35	-1744.60	  390.62
     74.1700	  609.00	  548.93	-1682.18	  390.71
     74.2700	  614.00	  548.14	-1676.39	  390.80
     74.3700	  625.00	  547.78	-1665.03	  390.89
     74.4700	  571.00	  547.65	-1718.90	  390.98
     74.5700	  640.00	  547.54	-1649.79	  391.07
     74.6700	  577.00	  547.19	-1712.44	  391.15
     74.7700	  593.00	  546.44	-1695.69	  391.24
     74.8700	  669.00	  545.25	-1618.50	  391.32
     74.9700	  670.00	  543.73	-1615.98	  391.40
     75.0700	  638.00	  542.13	-1646.38	  391.49
     75.1700	  606.00	  540.75	-1677.00	  391.57
     75.2700	  585.00	  539.88	-1697.13	  391.65
     75.3700	  585.00	  539.88	-1697.13	  391.73
     75.4700	  565.00	  541.11	-1718.36	  391.80
     75.5700	  532.00	  543.97	-1754.22	  391.88
     75.6700	  548.00	  549.00	-1743.25	  391.96
     75.7700	  564.00	  556.61	-1734.86	  392.03
     75.8700	  577.00	  567.19	-1732.44	  392.11
     75.9700	  540.00	  580.93	-1783.18	  392.18
     76.0700	  608.00	  597.63	-1731.88	  392.25
     76.1700	  633.00	  616.94	-1726.19	  392.32
     76.2700	  659.00	  637.74	-1720.99	  392.39
     76.3700	  654.00	  658.45	-1746.70	  392.46
     76.4700	  664.00	  676.92	-1755.17	  392.52
     76.5700	  725.00	  690.61	-1707.86	  392.59
     76.6700	  702.00	  697.13	-1737.38	  392.65
     76.7700	  685.00	  695.13	-1752.38	  392.72
     76.8700	  666.00	  684.94	-1761.19	  392.78
     76.9700	  687.00	  668.53	-1723.78	  392.84
     77.0700	  597.00	  648.40	-1793.65	  392.90
     77.1700	  590.00	  626.96	-1779.21	  392.96
     77.2700	  609.00	  606.10	-1739.35	  393.02
     77.3700	  580.00	  587.16	-1749.41	  393.07
     77.4700	  555.00	  570.93	-1758.18	  393.13
     77.5700	  510.00	  557.50	-1789.75	  393.18
     77.6700	  556.00	  547.21	-1733.46	  393.23
     77.7700	  542.00	  539.53	-1739.78	  393.28
     77.8700	  575.00	  533.99	-1701.24	  393.33
     77.9700	  517.00	  530.12	-1755.37	  393.38
     78.0700	  490.00	  527.46	-1779.71	  393.43
     78.1700	  532.00	  525.67	-1735.92	  393.48
     78.2700	  520.00	  524.45	-1746.70	  393.52
     78.3700	  469.00	  523.63	-1796.88	  393.56
     78.4700	  524.00	  523.07	-1741.32	  393.61
     78.5700	  530.00	  522.70	-1734.95	  393.65
     78.6700	  487.00	  522.48	-1777.73	  393.69
     78.7700	  491.00	  522.40	-1773.65	  393.72
     78.8700	  531.00	  522.44	-1733.69	  393.76
     78.9700	  484.00	  522.62	-1780.87	  393.80
     79.0700	  478.00	  522.96	-1787.21	  393.83
     79.1700	  524.00	  523.50	-1741.75	  393.86
     79.2700	  482.00	  524.25	-1784.50	  393.89
     79.3700	  499.00	  525.27	-1768.52	  393.92
     79.4700	  501.00	  526.59	-1767.84	  393.95
     79.5700	  545.00	  528.24	-1725.49	  393.98
     79.6700	  565.00	  530.30	-1707.55	  394.01
     79.7700	  497.00	  532.80	-1778.05	  394.03
     79.8700	  510.00	  535.85	-1768.10	  394.05
     79.9700	  517.00	  539.53	-1764.78	  394.07
     80.0700	  547.00	  543.80	-1739.05	  394.09
     80.1700	  540.00	  549.22	-1751.47	  394.11
     80.2700	  548.00	  555.83	-1750.08	  394.13
     80.3700	  557.00	  563.93	-1749.18	  394.14
     80.4700	  572.00	  573.80	-1744.05	  394.16
     80.5700	  585.00	  585.62	-1742.87	  394.17
     80.6700	  590.00	  599.40	-1751.65	  394.18
     80.7700	  572.00	  614.89	-1785.14	  394.19
     80.8700	  622.00	  631.56	-1751.81	  394.20
     80.9700	  646.00	  648.57	-1744.82	  394.21
     81.0700	  639.00	  664.89	-1768.14	  394.21
     81.1700	  698.00	  679.48	-1723.73	  394.22
     81.2700	  694.00	  691.43	-1739.68	  394.22
     81.3700	  725.00	  700.07	-1717.32	  394.22
     81.4700	  707.00	  704.91	-1740.16	  394.22
     81.5700	  717.00	  705.71	-1730.96	  394.21
     81.6700	  739.00	  702.50	-1705.75	  394.21
     81.7700	  748.00	  695.44	-1689.69	  394.21
     81.8700	  751.00	  684.94	-1676.19	  394.20
     81.9700	  729.00	  671.66	-1684.91	  394.19
     82.0700	  699.00	  656.56	-1699.81	  394.18
     82.1700	  675.00	  640.70	-1707.95	  394.17
     82.2700	  635.00	  624.97	-1732.22	  394.15
     82.3700	  615.00	  610.01	-1737.26	  394.14
     82.4700	  621.00	  596.19	-1717.44	  394.12
     82.5700	  605.00	  583.75	-1721.00	  394.11
     82.6700	  560.00	  572.85	-1755.10	  394.09
     82.7700	  593.00	  563.61	-1712.86	  394.06
     82.8700	  521.00	  556.12	-1777.37	  394.04
     82.9700	  589.00	  550.39	-1703.64	  394.02
     83.0700	  512.00	  546.39	-1776.64	  393.99
     83.1700	  556.00	  544.05	-1730.30	  393.96
     83.2700	  542.00	  543.20	-1743.45	  393.94
     83.3700	  538.00	  543.85	-1748.10	  393.90
     83.4700	  533.00	  545.73	-1754.98	  393.87
     83.5700	  541.00	  548.59	-1749.84	  393.84
     83.6700	  538.00	  552.18	-1756.43	  393.80
     83.7700	  549.00	  556.08	-1749.33	  393.77
     83.8700	  577.00	  559.84	-1725.09	  393.73
     83.9700	  546.00	  562.98	-1759.23	  393.69
     84.0700	  555.00	  564.97	-1752.22	  393.64
     84.1700	  579.00	  565.45	-1728.70	  393.60
     84.2700	  546.00	  564.24	-1760.49	  393.55
     84.3700	  563.00	  561.48	-1740.73	  393.51
     84.4700	  568.00	  557.55	-1731.80	  393.46
     84.5700	  533.00	  552.86	-1762.11	  393.41
     84.6700	  530.00	  547.86	-1760.11	  393.36
     84.7700	  551.00	  542.92	-1734.17	  393.30
     84.8700	  541.00	  538.30	-1739.55	  393.25
     84.9700	  520.00	  534.19	-1756.44	  393.19
     85.0700	  481.00	  530.70	-1791.95	  393.13
     85.1700	  549.00	  527.87	-1721.12	  393.07
     85.2700	  550.00	  525.67	-1717.92	  393.01
     85.3700	  488.00	  524.04	-1778.29	  392.95
     85.4700	  530.00	  522.91	-1735.16	  392.88
     85.5700	  511.00	  522.21	-1753.46	  392.81
     85.6700	  549.00	  521.89	-1715.14	  392.74
     85.7700	  530.00	  521.91	-1734.16	  392.67
     85.8700	  473.00	  522.28	-1791.53	  392.60
     85.9700	  520.00	  523.04	-1745.29	  392.53
     86.0700	  531.00	  524.27	-1735.52	  392.45
     86.1700	  511.00	  526.09	-1757.34	  392.38
     86.2700	  520.00	  528.65	-1750.90	  392.30
     86.3700	  510.00	  532.12	-1764.37	  392.22
     86.4700	  520.00	  536.69	-1758.94	  392.14
     86.5700	  540.00	  542.51	-1744.76	  392.05
     86.6700	  573.00	  549.69	-1718.94	  391.97
     86.7700	  538.00	  558.25	-1762.50	  391.88
     86.8700	  526.00	  568.09	-1784.34	  391.79
     86.9700	  589.00	  578.97	-1732.22	  391.70
     87.0700	  617.00	  590.48	-1715.73	  391.61
     87.1700	  644.00	  602.04	-1700.29	  391.51
     87.2700	  656.00	  612.89	-1699.14	  391.42
     87.3700	  596.00	  622.15	-1768.40	  391.32
     87.4700	  601.00	  628.88	-1770.13	  391.22
     87.5700	  659.00	  632.30	-1715.55	  391.12
     87.6700	  615.00	  631.99	-1759.24	  391.02
     87.7700	  626.00	  628.09	-1744.34	  390.91
     87.8700	  620.00	  620.85	-1743.10	  390.81
     87.9700	  622.00	  611.94	-1732.19	  390.70
     88.0700	  622.00	  601.99	-1722.24	  390.59
     88.1700	  626.00	  591.93	-1708.18	  390.48
     88.2700	  565.00	  582.55	-1759.80	  390.37
     88.3700	  635.00	  574.49	-1681.74	  390.26
     88.4700	  593.00	  568.21	-1717.46	  390.14
     88.5700	  596.00	  563.98	-1710.23	  390.02
     88.6700	  556.00	  561.89	-1748.14	  389.90
     88.7700	  515.00	  561.87	-1789.12	  389.78
     88.8700	  601.00	  563.69	-1704.94	  389.66
     88.9700	  571.00	  566.99	-1738.24	  389.54
     89.0700	  573.00	  571.32	-1740.57	  389.41
     89.1700	  624.00	  576.13	-1694.38	  389.28
     89.2700	  567.00	  580.82	-1756.07	  389.16
     89.3700	  575.00	  584.73	-1751.98	  389.02
     89.4700	  599.00	  587.26	-1730.51	  388.89
     89.5700	  571.00	  587.97	-1759.22	  388.76
     89.6700	  588.00	  586.63	-1740.88	  388.62
     89.7700	  548.00	  583.36	-1777.61	  388.49
     89.8700	  565.00	  578.51	-1755.76	  388.35
     89.9700	  563.00	  572.57	-1751.82	  388.21
     90.0700	  546.00	  566.02	-1762.27	  388.06
     90.1700	  585.00	  559.33	-1716.58	  387.92
     90.2700	  571.00	  552.86	-1724.11	  387.78
     90.3700	  536.00	  546.89	-1753.14	  387.63
     90.4700	  535.00	  541.61	-1748.86	  387.48
     90.5700	  543.00	  537.13	-1736.38	  387.33
     90.6700	  488.00	  533.47	-1787.72	  387.18
     90.7700	  479.00	  530.61	-1793.86	  387.02
     90.8700	  508.00	  528.50	-1762.75	  386.87
     90.9700	  505.00	  527.05	-1764.30	  386.71
     91.0700	  519.00	  526.19	-1749.44	  386.56
     91.1700	  495.00	  525.85	-1773.10	  386.40
     91.2700	  537.00	  525.99	-1731.24	  386.23
     91.3700	  519.00	  526.60	-1749.85	  386.07
     91.4700	  498.00	  527.72	-1771.97	  385.91
     91.5700	  528.00	  529.40	-1743.65	  385.74
     91.6700	  508.00	  531.76	-1766.01	  385.57
     91.7700	  529.00	  534.96	-1748.21	  385.40
     91.8700	  484.00	  539.15	-1797.40	  385.23
     91.9700	  543.00	  544.55	-1743.80	  385.06
     92.0700	  509.00	  551.35	-1784.60	  384.89
     92.1700	  549.00	  559.73	-1752.98	  384.71
     92.2700	  559.00	  569.83	-1753.08	  384.54
     92.3700	  595.00	  581.74	-1728.99	  384.36
     92.4700	  577.00	  595.44	-1760.69	  384.18
     92.5700	  583.00	  610.81	-1770.06	  384.00
     92.6700	  630.00	  627.62	-1739.87	  383.82
     92.7700	  674.00	  645.48	-1713.73	  383.63
     92.8700	  696.00	  663.87	-1710.12	  383.45
     92.9700	  650.00	  682.13	-1774.38	  383.26
     93.0700	  677.00	  699.53	-1764.78	  383.07
     93.1700	  668.00	  715.09	-1789.34	  382.88
     93.2700	  775.00	  728.87	-1696.12	  382.69
     93.3700	  781.00	  740.41	-1701.66	  382.50
     93.4700	  760.00	  749.93	-1732.18	  382.30
     93.5700	  757.00	  757.91	-1743.16	  382.11
     93.6700	  778.00	  764.89	-1729.14	  381.91
     93.7700	  800.00	  771.39	-1713.64	  381.71
     93.8700	  790.00	  777.83	-1730.08	  381.51
     93.9700	  822.00	  784.61	-1704.86	  381.31
     94.0700	  831.00	  792.15	-1703.40	  381.11
     94.1700	  825.00	  800.90	-1718.15	  380.90
     94.2700	  813.00	  811.21	-1740.46	  380.70
     94.3700	  799.00	  823.19	-1766.44	  380.49
     94.4700	  759.00	  836.58	-1819.83	  380.28
     94.5700	  831.00	  850.69	-1761.94	  380.08
     94.6700	  854.00	  864.42	-1752.67	  379.86
     94.7700	  919.00	  876.29	-1699.54	  379.65
     94.8700	  832.00	  884.66	-1794.91	  379.44
     94.9700	  908.00	  887.93	-1722.18	  379.23
     95.0700	  958.00	  884.94	-1669.19	  379.01
     95.1700	  858.00	  875.31	-1759.56	  378.79
     95.2700	  843.00	  859.54	-1758.79	  378.57
     95.3700	  857.00	  838.86	-1724.11	  378.36
     95.4700	  835.00	  814.97	-1722.22	  378.14
     95.5700	  757.00	  789.75	-1775.00	  377.91
     95.6700	  739.00	  765.04	-1768.29	  377.69
     95.7700	  722.00	  742.58	-1762.83	  377.47
     95.8700	  690.00	  723.94	-1776.19	  377.24
     95.9700	  760.00	  710.57	-1692.82	  377.01
     96.0700	  660.00	  703.71	-1785.96	  376.79
     96.1700	  674.00	  704.47	-1772.72	  376.56
     96.2700	  717.00	  713.75	-1739.00	  376.33
     96.3700	  766.00	  732.25	-1708.50	  376.10
     96.4700	  747.00	  760.47	-1755.72	  375.87
     96.5700	  758.00	  798.55	-1782.80	  375.63
     96.6700	  864.00	  846.34	-1724.59	  375.40
     96.7700	  893.00	  903.23	-1752.48	  375.16
     96.8700	  948.00	  968.08	-1762.33	  374.93
     96.9700	 1069.00	 1039.19	-1712.44	  374.69
     97.0700	 1178.00	 1114.23	-1678.48	  374.45
     97.1700	 1130.00	 1190.27	-1802.52	  374.21
     97.2700	 1243.00	 1263.75	-1763.00	  373.97
     97.3700	 1336.00	 1330.61	-1736.86	  373.73
     97.4700	 1325.00	 1386.50	-1803.75	  373.49
     97.5700	 1366.00	 1427.29	-1803.54	  373.24
     97.6700	 1451.00	 1449.70	-1740.95	  373.00
     97.7700	 1429.00	 1452.05	-1765.30	  372.76
     97.8700	 1407.00	 1434.60	-1769.85	  372.51
     97.9700	 1346.00	 1399.46	-1795.71	  372.26
     98.0700	 1348.00	 1350.02	-1744.27	  372.02
     98.1700	 1267.00	 1290.29	-1765.54	  371.77
     98.2700	 1253.00	 1224.36	-1713.61	  371.52
     98.3700	 1213.00	 1156.14	-1685.39	  371.27
     98.4700	 1066.00	 1089.11	-1765.36	  371.02
     98.5700	 1024.00	 1026.33	-1744.58	  370.77
     98.6700	 1000.00	  970.32	-1712.57	  370.51
     98.7700	  884.00	  923.17	-1781.42	  370.26
     98.8700	  799.00	  886.55	-1829.80	  370.01
     98.9700	  895.00	  861.70	-1708.95	  369.75
     99.0700	  831.00	  849.56	-1760.81	  369.50
     99.1700	  820.00	  850.74	-1772.99	  369.24
     99.2700	  877.00	  865.60	-1730.85	  368.98
     99.3700	  895.00	  894.23	-1741.48	  368.73
     99.4700	  995.00	  936.58	-1683.83	  368.47
     99.5700	  969.00	  992.21	-1765.46	  368.21
     99.6700	 1083.00	 1060.39	-1719.64	  367.95
     99.7700	 1079.00	 1139.98	-1803.23	  367.69
     99.8700	 1222.00	 1229.38	-1749.63	  367.43
     99.9700	 1321.00	 1326.44	-1747.69	  367.17
    100.0700	 1398.00	 1428.38	-1772.63	  366.91
    100.1700	 1508.00	 1531.81	-1766.06	  366.65
    100.2700	 1670.00	 1632.86	-1705.11	  366.39
    100.3700	 1762.00	 1727.44	-1707.69	  366.12
    100.4700	 1850.00	 1811.56	-1703.81	  365.86
    100.5700	 1868.00	 1881.87	-1756.12	  365.60
    100.6700	 1950.00	 1935.86	-1728.11	  365.33
    100.7700	 1949.00	 1971.88	-1765.13	  365.07
    100.8700	 1973.00	 1988.94	-1758.19	  364.80
    100.9700	 2088.00	 1986.51	-1640.76	  364.54
    101.0700	 2010.00	 1964.62	-1696.87	  364.27
    101.1700	 1893.00	 1924.23	-1773.48	  364.01
    101.2700	 1938.00	 1867.50	-1671.75	  363.74
    101.3700	 1923.00	 1797.77	-1617.02	  363.48
    101.4700	 1711.00	 1719.36	-1750.61	  363.21
    101.5700	 1600.00	 1636.86	-1779.11	  362.94
    101.6700	 1508.00	 1554.67	-1788.92	  362.68
    101.7700	 1462.00	 1476.51	-1756.76	  362.41
    101.8700	 1404.00	 1405.22	-1743.47	  362.15
    101.9700	 1321.00	 1342.71	-1763.96	  361.88
    102.0700	 1292.00	 1289.93	-1740.18	  361.61
    102.1700	 1246.00	 1246.95	-1743.20	  361.34
    102.2700	 1193.00	 1212.98	-1762.23	  361.08
    102.3700	 1144.00	 1186.53	-1784.78	  360.81
    102.4700	 1136.00	 1165.55	-1771.80	  360.54
    102.5700	 1220.00	 1147.60	-1669.85	  360.28
    102.6700	 1207.00	 1130.15	-1665.40	  360.01
    102.7700	 1120.00	 1110.85	-1733.10	  359.74
    102.8700	 1055.00	 1087.94	-1775.19	  359.48
    102.9700	 1002.00	 1060.43	-1800.68	  359.21
    103.0700	  998.00	 1028.15	-1772.40	  358.94
    103.1700	 1041.00	  991.66	-1692.91	  358.68
    103.2700	 1009.00	  951.95	-1685.20	  358.41
    103.3700	  849.00	  910.24	-1803.49	  358.15
    103.4700	  907.00	  867.80	-1703.05	  357.88
    103.5700	  856.00	  825.81	-1712.06	  357.62
    103.6700	  773.00	  785.29	-1754.54	  357.35
    103.7700	  773.00	  747.12	-1716.37	  357.09
    103.8700	  681.00	  711.96	-1773.21	  356.82
    103.9700	  677.00	  680.25	-1745.50	  356.56
    104.0700	  658.00	  652.26	-1736.51	  356.29
    104.1700	  596.00	  628.03	-1774.28	  356.03
    104.2700	  605.00	  607.49	-1744.74	  355.77
    104.3700	  591.00	  590.43	-1741.68	  355.51
    104.4700	  558.00	  576.55	-1760.80	  355.25
    104.5700	  593.00	  565.49	-1714.74	  354.99
    104.6700	  550.00	  556.88	-1749.13	  354.73
    104.7700	  596.00	  550.35	-1696.60	  354.47
    104.8700	  570.00	  545.58	-1717.83	  354.21
    104.9700	  555.00	  542.24	-1729.49	  353.95
    105.0700	  559.00	  540.09	-1723.34	  353.69
    105.1700	  555.00	  538.91	-1726.16	  353.44
    105.2700	  541.00	  538.53	-1739.78	  353.18
    105.3700	  530.00	  538.82	-1751.07	  352.92
    105.4700	  515.00	  539.72	-1766.97	  352.67
    105.5700	  572.00	  541.17	-1711.42	  352.42
    105.6700	  528.00	  543.16	-1757.41	  352.16
    105.7700	  537.00	  545.72	-1750.97	  351.91
    105.8700	  569.00	  548.90	-1722.15	  351.66
    105.9700	  541.00	  552.78	-1754.03	  351.41
    106.0700	  539.00	  557.43	-1760.68	  351.16
    106.1700	  561.00	  562.91	-1744.16	  350.92
    106.2700	  564.00	  569.26	-1747.51	  350.67
    106.3700	  577.00	  576.48	-1741.73	  350.42
    106.4700	  623.00	  584.50	-1703.75	  350.18
    106.5700	  598.00	  593.27	-1737.52	  349.94
    106.6700	  563.00	  602.59	-1781.84	  349.70
    106.7700	  615.00	  612.29	-1739.54	  349.45
    106.8700	  651.00	  622.09	-1713.34	  349.22
    106.9700	  657.00	  631.71	-1716.96	  348.98
    107.0700	  639.00	  640.81	-1744.06	  348.74
    107.1700	  649.00	  649.06	-1742.31	  348.51
    107.2700	  635.00	  656.15	-1763.40	  348.27
    107.3700	  664.00	  661.83	-1740.08	  348.04
    107.4700	  691.00	  665.98	-1717.23	  347.81
    107.5700	  633.00	  668.62	-1777.87	  347.58
    107.6700	  655.00	  669.92	-1757.17	  347.35
    107.7700	  692.00	  670.18	-1720.43	  347.12
    107.8700	  669.00	  669.77	-1743.02	  346.90
    107.9700	  715.00	  669.06	-1696.31	  346.68
    108.0700	  710.00	  668.41	-1700.66	  346.46
    108.1700	  639.00	  668.09	-1771.34	  346.24
    108.2700	  681.00	  668.28	-1729.53	  346.02
    108.3700	  668.00	  669.07	-1743.32	  345.80
    108.4700	  680.00	  670.46	-1732.71	  345.59
    108.5700	  722.00	  672.30	-1692.55	  345.38
    108.6700	  693.00	  674.39	-1723.64	  345.17
    108.7700	  628.00	  676.41	-1790.66	  344.96
    108.8700	  663.00	  677.99	-1757.24	  344.75
    108.9700	  686.00	  678.74	-1734.99	  344.55
    109.0700	  683.00	  678.27	-1737.52	  344.34
    109.1700	  629.00	  676.27	-1789.52	  344.14
    109.2700	  696.00	  672.56	-1718.81	  343.95
    109.3700	  620.00	  667.09	-1789.34	  343.75
    109.4700	  706.00	  660.00	-1696.25	  343.56
    109.5700	  650.00	  651.50	-1743.75	  343.36
    109.6700	  695.00	  641.89	-1689.14	  343.18
    109.7700	  632.00	  631.54	-1741.79	  342.99
    109.8700	  618.00	  620.78	-1745.03	  342.80
    109.9700	  591.00	  609.93	-1761.18	  342.62
    110.0700	  627.00	  599.28	-1714.53	  342.44
    110.1700	  598.00	  589.10	-1733.35	  342.27
    110.2700	  585.00	  579.57	-1736.82	  342.09
    110.3700	  613.00	  570.86	-1700.11	  341.92
    110.4700	  569.00	  563.09	-1736.34	  341.75
    110.5700	  635.00	  556.33	-1663.58	  341.58
    110.6700	  566.00	  550.60	-1726.85	  341.42
    110.7700	  558.00	  545.89	-1730.14	  341.26
    110.8700	  566.00	  542.17	-1718.42	  341.10
    110.9700	  566.00	  539.38	-1715.63	  340.94
    111.0700	  544.00	  537.44	-1735.69	  340.79
    111.1700	  514.00	  536.26	-1764.51	  340.64
    111.2700	  532.00	  535.76	-1746.01	  340.49
    111.3700	  539.00	  535.85	-1739.10	  340.35
    111.4700	  528.00	  536.43	-1750.68	  340.21
    111.5700	  554.00	  537.44	-1725.69	  340.07
    111.6700	  503.00	  538.81	-1778.06	  339.94
    111.7700	  537.00	  540.47	-1745.72	  339.81
    111.8700	  490.00	  542.37	-1794.62	  339.68
    111.9700	  536.00	  544.48	-1750.73	  339.55
    112.0700	  558.00	  546.76	-1731.01	  339.43
    112.1700	  526.00	  549.22	-1765.47	  339.31
    112.2700	  573.00	  551.83	-1721.08	  339.20
    112.3700	  527.00	  554.63	-1769.88	  339.09
    112.4700	  581.00	  557.63	-1718.88	  338.98
    112.5700	  543.00	  560.88	-1760.13	  338.88
    112.6700	  607.00	  564.41	-1699.66	  338.77
    112.7700	  572.00	  568.30	-1738.55	  338.68
    112.8700	  552.00	  572.62	-1762.87	  338.58
    112.9700	  552.00	  577.47	-1767.72	  338.49
    113.0700	  571.00	  582.96	-1754.21	  338.41
    113.1700	  573.00	  589.24	-1758.49	  338.33
    113.2700	  612.00	  596.51	-1726.76	  338.25
    113.3700	  621.00	  605.02	-1726.27	  338.17
    113.4700	  583.00	  615.08	-1774.33	  338.10
    113.5700	  672.00	  627.08	-1697.33	  338.04
    113.6700	  645.00	  641.53	-1738.78	  337.98
    113.7700	  699.00	  659.05	-1702.30	  337.92
    113.8700	  713.00	  680.41	-1709.66	  337.87
    113.9700	  704.00	  706.54	-1744.79	  337.82
    114.0700	  724.00	  738.55	-1756.80	  337.77
    114.1700	  781.00	  777.77	-1739.02	  337.73
    114.2700	  921.00	  825.72	-1646.97	  337.69
    114.3700	  930.00	  884.13	-1696.38	  337.66
    114.4700	 1036.00	  954.92	-1661.17	  337.63
    114.5700	 1074.00	 1040.18	-1708.43	  337.61
    114.6700	 1236.00	 1142.14	-1648.39	  337.59
    114.7700	 1338.00	 1263.03	-1667.28	  337.58
    114.8700	 1414.00	 1405.12	-1733.37	  337.57
    114.9700	 1634.00	 1570.45	-1678.70	  337.56
    115.0700	 1870.00	 1760.85	-1633.10	  337.56
    115.1700	 2116.00	 1977.77	-1604.02	  337.57
    115.2700	 2303.00	 2222.02	-1661.27	  337.58
    115.3700	 2571.00	 2493.76	-1665.01	  337.60
    115.4700	 2729.00	 2792.23	-1805.48	  337.62
    115.5700	 3098.00	 3115.81	-1760.06	  337.64
    115.6700	 3460.00	 3461.80	-1744.05	  337.67
    115.7700	 3873.00	 3826.28	-1695.53	  337.71
    115.8700	 4071.00	 4204.19	-1875.44	  337.75
    115.9700	 4543.00	 4589.21	-1788.46	  337.79
    116.0700	 4909.00	 4974.00	-1807.25	  337.84
    116.1700	 5260.00	 5350.14	-1832.39	  337.90
    116.2700	 5559.00	 5708.13	-1891.38	  337.96
    116.3700	 5945.00	 6037.83	-1835.08	  338.03
    116.4700	 6299.00	 6328.66	-1771.91	  338.10
    116.5700	 6620.00	 6570.33	-1692.58	  338.18
    116.6700	 6701.00	 6753.38	-1794.62	  338.27
    116.7700	 6801.00	 6870.01	-1811.26	  338.36
    116.8700	 6952.00	 6915.11	-1705.36	  338.45
    116.9700	 6969.00	 6886.79	-1660.04	  338.56
    117.0700	 6648.00	 6786.72	-1880.97	  338.66
    117.1700	 6661.00	 6619.75	-1701.00	  338.78
    117.2700	 6333.00	 6393.46	-1802.71	  338.90
    117.3700	 6140.00	 6117.17	-1719.42	  339.02
    117.4700	 5615.00	 5801.18	-1928.43	  339.16
    117.5700	 5285.00	 5455.87	-1913.12	  339.29
    117.6700	 5022.00	 5091.27	-1811.52	  339.44
    117.7700	 4702.00	 4716.75	-1757.00	  339.59
    117.8700	 4394.00	 4340.72	-1688.97	  339.75
    117.9700	 3972.00	 3970.53	-1740.78	  339.91
    118.0700	 3750.00	 3612.26	-1604.51	  340.08
    118.1700	 3400.00	 3270.84	-1613.09	  340.26
    118.2700	 3085.00	 2950.12	-1607.37	  340.44
    118.3700	 2810.00	 2652.80	-1585.05	  340.63
    118.4700	 2421.00	 2380.59	-1701.84	  340.83
    118.5700	 2154.00	 2134.20	-1722.45	  341.03
    118.6700	 1886.00	 1913.59	-1769.84	  341.24
    118.7700	 1741.00	 1718.12	-1719.37	  341.46
    118.8700	 1535.00	 1546.59	-1753.84	  341.69
    118.9700	 1388.00	 1397.43	-1751.68	  341.92
    119.0700	 1234.00	 1268.76	-1777.01	  342.16
    119.1700	 1103.00	 1158.58	-1797.83	  342.40
    119.2700	 1013.00	 1064.83	-1794.08	  342.66
    119.3700	  965.00	  985.51	-1762.76	  342.92
    119.4700	  938.00	  918.70	-1722.95	  343.18
    119.5700	  846.00	  862.59	-1758.84	  343.46
    119.6700	  811.00	  815.58	-1746.83	  343.74
    119.7700	  776.00	  776.24	-1742.49	  344.03
    119.8700	  722.00	  743.32	-1763.57	  344.33
    119.9700	  667.00	  715.77	-1791.02	  344.64
    120.0700	  640.00	  692.68	-1794.93	  344.95
    120.1700	  659.00	  673.31	-1756.56	  345.27
    120.2700	  691.00	  657.04	-1708.29	  345.60
    120.3700	  618.00	  643.36	-1767.61	  345.94
    120.4700	  581.00	  631.88	-1793.13	  346.29
    120.5700	  619.00	  622.26	-1745.51	  346.64
    120.6700	  608.00	  614.23	-1748.48	  347.00
    120.7700	  572.00	  607.59	-1777.84	  347.37
    120.8700	  533.00	  602.16	-1811.41	  347.75
    120.9700	  585.00	  597.82	-1755.07	  348.14
    121.0700	  563.00	  594.46	-1773.71	  348.53
    121.1700	  572.00	  591.98	-1762.23	  348.94
    121.2700	  587.00	  590.31	-1745.56	  349.35
    121.3700	  576.00	  589.40	-1755.65	  349.77
    121.4700	  603.00	  589.17	-1728.42	  350.20
    121.5700	  575.00	  589.59	-1756.84	  350.64
    121.6700	  586.00	  590.60	-1746.85	  351.09
    121.7700	  602.00	  592.13	-1732.38	  351.55
    121.8700	  570.00	  594.14	-1766.39	  352.01
    121.9700	  593.00	  596.56	-1745.81	  352.49
    122.0700	  623.00	  599.32	-1718.57	  352.97
    122.1700	  602.00	  602.35	-1742.60	  353.46
    122.2700	  568.00	  605.56	-1779.81	  353.97
    122.3700	  588.00	  608.86	-1763.11	  354.48
    122.4700	  600.00	  612.16	-1754.41	  355.00
    122.5700	  652.00	  615.36	-1705.61	  355.53
    122.6700	  640.00	  618.36	-1720.61	  356.07
    122.7700	  602.00	  621.05	-1761.30	  356.62
    122.8700	  638.00	  623.36	-1727.61	  357.18
    122.9700	  611.00	  625.20	-1756.45	  357.75
    123.0700	  627.00	  626.48	-1741.73	  358.33
    123.1700	  647.00	  627.20	-1722.45	  358.93
    123.2700	  633.00	  627.34	-1736.59	  359.53
    123.3700	  669.00	  626.90	-1700.15	  360.14
    123.4700	  635.00	  625.91	-1733.16	  360.76
    123.5700	  585.00	  624.42	-1781.67	  361.39
    123.6700	  636.00	  622.48	-1728.73	  362.03
    123.7700	  621.00	  620.18	-1741.43	  362.68
    123.8700	  639.00	  617.57	-1720.82	  363.34
    123.9700	  647.00	  614.73	-1709.98	  364.02
    124.0700	  635.00	  611.73	-1718.98	  364.70
    124.1700	  614.00	  608.65	-1736.90	  365.40
    124.2700	  612.00	  605.51	-1735.76	  366.10
    124.3700	  624.00	  602.42	-1720.67	  366.82
    124.4700	  572.00	  599.41	-1769.66	  367.55
    124.5700	  671.00	  596.52	-1667.77	  368.28
    124.6700	  602.00	  593.79	-1734.04	  369.03
    124.7700	  585.00	  591.24	-1748.49	  369.79
    124.8700	  564.00	  588.90	-1767.15	  370.57
    124.9700	  550.00	  483.87	-1676.12	  371.35
    125.0700	  595.00	  484.67	-1742.25	  372.15
    125.1700	  605.00	  485.48	-1742.25	  372.95
    125.2700	  565.00	  486.29	-1742.25	  373.77
    125.3700	  552.00	  487.12	-1742.25	  374.60
    125.4700	  593.00	  487.97	-1742.25	  375.45
    125.5700	  567.00	  488.82	-1742.25	  376.30
    125.6700	  565.00	  489.69	-1742.25	  377.17
    125.7700	  561.00	  490.57	-1742.25	  378.04
    125.8700	  555.00	  491.46	-1742.25	  378.94
    125.9700	  550.00	  492.36	-1742.25	  379.84
    126.0700	  526.00	  493.27	-1742.25	  380.75
    126.1700	  587.00	  494.20	-1742.25	  381.68
    126.2700	  623.00	  495.14	-1742.25	  382.62
    126.3700	  575.00	  496.10	-1742.25	  383.57
    126.4700	  589.00	  497.06	-1742.25	  384.54
    126.5700	  549.00	  498.04	-1742.25	  385.52
    126.6700	  568.00	  499.03	-1742.25	  386.51
    126.7700	  563.00	  500.03	-1742.25	  387.51
    126.8700	  580.00	  501.05	-1742.25	  388.53
    126.9700	  557.00	  502.08	-1742.25	  389.56
    127.0700	  557.00	  503.13	-1742.25	  390.60
    127.1700	  613.00	  504.18	-1742.25	  391.66
    127.2700	  603.00	  505.25	-1742.25	  392.73
    127.3700	  610.00	  506.34	-1742.25	  393.82
    127.4700	  637.00	  507.43	-1742.25	  394.91
    127.5700	  643.00	  508.55	-1742.25	  396.02
    127.6700	  624.00	  509.67	-1742.25	  397.15
    127.7700	  629.00	  510.81	-1742.25	  398.29
    127.8700	  681.00	  511.96	-1742.25	  399.44
    127.9700	  672.00	  513.13	-1742.25	  400.61
    128.0700	  695.00	  514.31	-1742.25	  401.79
    128.1700	  752.00	  515.50	-1742.25	  402.98
    128.2700	  725.00	  516.71	-1742.25	  404.19
    128.3700	  742.00	  517.94	-1742.25	  405.42
    128.4700	  768.00	  519.18	-1742.25	  406.65
    128.5700	    0.00	  520.43	-1742.25	  407.91
    128.6700	    0.00	  521.70	-1742.25	  409.17
     12.3199	        	        	        	        	       0	(  0  0  2)	  0  1
     24.9153	        	        	        	        	       0	(  0  0  4)	  0  1
     28.3673	        	        	        	        	       0	(  1  0  0)	  0  1
     29.0650	        	        	        	        	       0	(  1  0  1)	  0  1
     31.0729	        	        	        	        	       0	(  1  0  2)	  0  1
     34.1839	        	        	        	        	       0	(  1  0  3)	  0  1
     37.8276	        	        	        	        	       0	(  0  0  6)	  0  1
     38.1646	        	        	        	        	       0	(  1  0  4)	  0  1
     42.8192	        	        	        	        	       0	(  1  0  5)	  0  1
     48.0085	        	        	        	        	       0	(  1  0  6)	  0  1
     50.3335	        	        	        	        	       0	(  1  1  0)	  0  1
     51.2638	        	        	        	        	       0	(  0  0  8)	  0  1
     52.0582	        	        	        	        	       0	(  1  1  2)	  0  1
     53.6450	        	        	        	        	       0	(  1  0  7)	  0  1
     57.0112	        	        	        	        	       0	(  1  1  4)	  0  1
     58.8432	        	        	        	        	       0	(  2  0  0)	  0  1
     59.2352	        	        	        	        	       0	(  2  0  1)	  0  1
     59.6823	        	        	        	        	       0	(  1  0  8)	  0  1
     60.4019	        	        	        	        	       0	(  2  0  2)	  0  1
     62.3172	        	        	        	        	       0	(  2  0  3)	  0  1
     64.7147	        	        	        	        	       0	(  1  1  6)	  0  1
     64.9444	        	        	        	        	       0	(  2  0  4)	  0  1
     65.5101	        	        	        	        	       0	(  0  0 10)	  0  1
     66.1066	        	        	        	        	       0	(  1  0  9)	  0  1
     68.2427	        	        	        	        	       0	(  2  0  5)	  0  1
     72.1753	        	        	        	        	       0	(  2  0  6)	  0  1
     72.9318	        	        	        	        	       0	(  1  0 10)	  0  1
     74.7656	        	        	        	        	       0	(  1  1  8)	  0  1
     76.7158	        	        	        	        	       0	(  2  0  7)	  0  1
     80.2001	        	        	        	        	       0	(  1  0 11)	  0  1
     81.0125	        	        	        	        	       0	(  0  0 12)	  0  1
     81.1238	        	        	        	        	       0	(  2  1  0)	  0  1
     81.4642	        	        	        	        	       0	(  2  1  1)	  0  1
     81.8538	        	        	        	        	       0	(  2  0  8)	  0  1
     82.4837	        	        	        	        	       0	(  2  1  2)	  0  1
     84.1777	        	        	        	        	       0	(  2  1  3)	  0  1
     86.5414	        	        	        	        	       0	(  2  1  4)	  0  1
     87.0563	        	        	        	        	       0	(  1  1 10)	  0  1
     87.6014	        	        	        	        	       0	(  2  0  9)	  0  1
     87.9873	        	        	        	        	       0	(  1  0 12)	  0  1
     89.5726	        	        	        	        	       0	(  2  1  5)	  0  1
     93.2771	        	        	        	        	       0	(  2  1  6)	  0  1
     94.0009	        	        	        	        	       0	(  2  0 10)	  0  1
     95.0446	        	        	        	        	       0	(  3  0  0)	  0  1
     95.3826	        	        	        	        	       0	(  3  0  1)	  0  1
     96.3980	        	        	        	        	       0	(  3  0  2)	  0  1
     96.4166	        	        	        	        	       0	(  1  0 13)	  0  1
     97.6749	        	        	        	        	       0	(  2  1  7)	  0  1
     98.0951	        	        	        	        	       0	(  3  0  3)	  0  1
     98.5840	        	        	        	        	       0	(  0  0 14)	  0  1
    100.4836	        	        	        	        	       0	(  3  0  4)	  0  1
    101.1381	        	        	        	        	       0	(  2  0 11)	  0  1
    101.9568	        	        	        	        	       0	(  1  1 12)	  0  1
    102.8092	        	        	        	        	       0	(  2  1  8)	  0  1
    103.5828	        	        	        	        	       0	(  3  0  5)	  0  1
    105.6905	        	        	        	        	       0	(  1  0 14)	  0  1
    107.4282	        	        	        	        	       0	(  3  0  6)	  0  1
    108.7619	        	        	        	        	       0	(  2  1  9)	  0  1
    109.1700	        	        	        	        	       0	(  2  0 12)	  0  1
    112.0825	        	        	        	        	       0	(  3  0  7)	  0  1
    115.6806	        	        	        	        	       0	(  2  1 10)	  0  1
    116.1644	        	        	        	        	       0	(  1  0 15)	  0  1
    116.8420	        	        	        	        	       0	(  2  2  0)	  0  1
    117.6552	        	        	        	        	       0	(  3  0  8)	  0  1
    118.3630	        	        	        	        	       0	(  2  2  2)	  0  1
    118.3841	        	        	        	        	       0	(  2  0 13)	  0  1
    120.1331	        	        	        	        	       0	(  0  0 16)	  0  1
    120.8584	        	        	        	        	       0	(  1  1 14)	  0  1
    123.0687	        	        	        	        	       0	(  2  2  4)	  0  1
    123.8401	        	        	        	        	       0	(  2  1 11)	  0  1
    124.3433	        	        	        	        	       0	(  3  0  9)	  0  1
    124.9467	        	        	        	        	       0	(  3  1  0)	  0  1
    125.3590	        	        	        	        	       0	(  3  1  1)	  0  1
    126.6089	        	        	        	        	       0	(  3  1  2)	  0  1
    128.5587	        	        	        	        	       0	(  1  0 16)	  0  1
    128.7390	        	        	        	        	       0	(  3  1  3)	  0  1
    129.3628	        	        	        	        	       0	(  2  0 14)	  0  1
    131.5546	        	        	        	        	       0	(  2  2  6)	  0  1
    131.8338	        	        	        	        	       0	(  3  1  4)	  0  1
    132.5290	        	        	        	        	       0	(  3  0 10)	  0  1
    133.8071	        	        	        	        	       0	(  2  1 12)	  0  1
    136.0508	        	        	        	        	       0	(  3  1  5)	  0  1
    141.6966	        	        	        	        	       0	(  3  1  6)	  0  1
    143.0948	        	        	        	        	       0	(  3  0 11)	  0  1
    143.6091	        	        	        	        	       0	(  2  0 15)	  0  1
    144.8484	        	        	        	        	       0	(  1  0 17)	  0  1
    145.9180	        	        	        	        	       0	(  2  2  8)	  0  1
    147.0863	        	        	        	        	       0	(  2  1 13)	  0  1
    149.4691	        	        	        	        	       0	(  3  1  7)	  0  1
    150.0181	        	        	        	        	       0	(  1  1 16)	  0  1
    154.4803	        	        	        	        	       0	(  0  0 18)	  0  1
    159.2746	        	        	        	        	       0	(  3  0 12)	  0  1
    159.5898	        	        	        	        	       0	(  4  0  0)	  0  1
    160.5840	        	        	        	        	       0	(  4  0  1)	  0  1
    161.7875	        	        	        	        	       0	(  3  1  8)	  0  1
    163.9199	        	        	        	        	       0	(  4  0  2)	  0  1
    171.1391	        	        	        	        	       0	(  2  0 16)	  0  1
    172.1192	        	        	        	        	       0	(  4  0  3)	  0  1
