MSG Master    CELL:    5.91950   5.91950  23.27047   90.0000   90.0000  120.0000   SPGR: P 63/m m c             TEMP:   1074.85
  1   1280     2.52000     0.00000    -0.12377     0.00000     0.00000    0
    99     0     2
       0.00000      10.00000
     125.00000     130.00000
 2Theta	Yobs	Ycal	Yobs-Ycal	Backg	Posr	(hkl)	K
      0.7700	    0.00	  561.27	-1764.25	  442.13
      0.8700	    0.00	  561.82	-1764.25	  442.68
      0.9700	   40.00	  562.37	-1764.25	  443.22
      1.0700	   52.00	  562.90	-1764.25	  443.76
      1.1700	   42.00	  563.42	-1764.25	  444.28
      1.2700	   44.00	  563.94	-1764.25	  444.80
      1.3700	   49.00	  564.45	-1764.25	  445.30
      1.4700	   97.00	  564.94	-1764.25	  445.80
      1.5700	  331.00	  565.43	-1764.25	  446.29
      1.6700	  434.00	  565.91	-1764.25	  446.76
      1.7700	  583.00	  566.38	-1764.25	  447.23
      1.8700	  640.00	  566.84	-1764.25	  447.69
      1.9700	  722.00	  567.29	-1764.25	  448.14
      2.0700	  731.00	  567.73	-1764.25	  448.59
      2.1700	  752.00	  568.16	-1764.25	  449.02
      2.2700	  788.00	  568.59	-1764.25	  449.45
      2.3700	  764.00	  569.01	-1764.25	  449.86
      2.4700	  738.00	  569.41	-1764.25	  450.27
      2.5700	  674.00	  569.81	-1764.25	  450.67
      2.6700	  676.00	  570.20	-1764.25	  451.06
      2.7700	  658.00	  570.59	-1764.25	  451.44
      2.8700	  652.00	  570.96	-1764.25	  451.82
      2.9700	  628.00	  571.33	-1764.25	  452.18
      3.0700	  621.00	  571.68	-1764.25	  452.54
      3.1700	  599.00	  572.03	-1764.25	  452.89
      3.2700	  633.00	  572.38	-1764.25	  453.23
      3.3700	  674.00	  572.71	-1764.25	  453.57
      3.4700	  727.00	  573.03	-1764.25	  453.89
      3.5700	  826.00	  573.35	-1764.25	  454.21
      3.6700	  918.00	  573.66	-1764.25	  454.52
      3.7700	  923.00	  573.96	-1764.25	  454.82
      3.8700	  947.00	  574.26	-1764.25	  455.11
      3.9700	 1013.00	  574.55	-1764.25	  455.40
      4.0700	 1091.00	  574.82	-1764.25	  455.68
      4.1700	 1084.00	  575.10	-1764.25	  455.95
      4.2700	 1081.00	  575.36	-1764.25	  456.22
      4.3700	 1051.00	  575.62	-1764.25	  456.47
      4.4700	 1081.00	  575.87	-1764.25	  456.72
      4.5700	 1035.00	  576.11	-1764.25	  456.96
      4.6700	  994.00	  576.34	-1764.25	  457.20
      4.7700	 1038.00	  576.57	-1764.25	  457.43
      4.8700	 1077.00	  576.79	-1764.25	  457.65
      4.9700	  999.00	  577.00	-1764.25	  457.86
      5.0700	  914.00	  577.21	-1764.25	  458.07
      5.1700	  905.00	  577.41	-1764.25	  458.26
      5.2700	  855.00	  577.60	-1764.25	  458.46
      5.3700	  901.00	  577.79	-1764.25	  458.64
      5.4700	  842.00	  577.96	-1764.25	  458.82
      5.5700	  845.00	  578.14	-1764.25	  458.99
      5.6700	  876.00	  578.30	-1764.25	  459.16
      5.7700	  828.00	  578.46	-1764.25	  459.32
      5.8700	  798.00	  578.61	-1764.25	  459.47
      5.9700	  821.00	  578.76	-1764.25	  459.61
      6.0700	  811.00	  578.90	-1764.25	  459.75
      6.1700	  787.00	  579.03	-1764.25	  459.89
      6.2700	  795.00	  579.16	-1764.25	  460.01
      6.3700	  778.00	  579.28	-1764.25	  460.13
      6.4700	  782.00	  579.39	-1764.25	  460.25
      6.5700	  746.00	  579.50	-1764.25	  460.35
      6.6700	  733.00	  579.60	-1764.25	  460.46
      6.7700	  705.00	  579.69	-1764.25	  460.55
      6.8700	  783.00	  579.78	-1764.25	  460.64
      6.9700	  693.00	  579.87	-1764.25	  460.72
      7.0700	  722.00	  579.94	-1764.25	  460.80
      7.1700	  685.00	  580.02	-1764.25	  460.87
      7.2700	  648.00	  580.08	-1764.25	  460.94
      7.3700	  642.00	  580.14	-1764.25	  461.00
      7.4700	  641.00	  580.20	-1764.25	  461.05
      7.5700	  671.00	  580.24	-1764.25	  461.10
      7.6700	  635.00	  580.29	-1764.25	  461.14
      7.7700	  669.00	  580.32	-1764.25	  461.18
      7.8700	  646.00	  580.36	-1764.25	  461.21
      7.9700	  621.00	  580.38	-1764.25	  461.24
      8.0700	  594.00	  580.40	-1764.25	  461.26
      8.1700	  667.00	  580.42	-1764.25	  461.27
      8.2700	  628.00	  580.43	-1764.25	  461.28
      8.3700	  639.00	  580.43	-1764.25	  461.29
      8.4700	  650.00	  580.43	-1764.25	  461.29
      8.5700	  629.00	  580.43	-1764.25	  461.28
      8.6700	  662.00	  580.42	-1764.25	  461.27
      8.7700	  625.00	  580.40	-1764.25	  461.26
      8.8700	  636.00	  580.38	-1764.25	  461.24
      8.9700	  596.00	  580.36	-1764.25	  461.21
      9.0700	  597.00	  580.32	-1764.25	  461.18
      9.1700	  614.00	  580.29	-1764.25	  461.15
      9.2700	  603.00	  580.25	-1764.25	  461.11
      9.3700	  650.00	  580.20	-1764.25	  461.06
      9.4700	  649.00	  580.15	-1764.25	  461.01
      9.5700	  621.00	  580.10	-1764.25	  460.96
      9.6700	  614.00	  580.04	-1764.25	  460.90
      9.7700	  632.00	  579.98	-1764.25	  460.83
      9.8700	  656.00	  579.91	-1764.25	  460.77
      9.9700	  587.00	  579.84	-1764.25	  460.69
     10.0700	  601.00	  580.49	-1743.74	  460.62
     10.1700	  598.00	  580.48	-1746.73	  460.53
     10.2700	  595.00	  580.49	-1749.74	  460.45
     10.3700	  578.00	  580.52	-1766.77	  460.36
     10.4700	  612.00	  580.60	-1732.85	  460.26
     10.5700	  575.00	  580.78	-1770.03	  460.16
     10.6700	  599.00	  581.17	-1746.42	  460.06
     10.7700	  549.00	  581.88	-1797.13	  459.95
     10.8700	  622.00	  582.99	-1725.24	  459.84
     10.9700	  570.00	  584.49	-1778.74	  459.73
     11.0700	  584.00	  586.35	-1766.60	  459.61
     11.1700	  591.00	  588.54	-1761.79	  459.48
     11.2700	  603.00	  591.10	-1752.35	  459.36
     11.3700	  588.00	  594.12	-1770.37	  459.23
     11.4700	  608.00	  597.71	-1753.96	  459.09
     11.5700	  594.00	  602.10	-1772.35	  458.95
     11.6700	  556.00	  607.61	-1815.86	  458.81
     11.7700	  594.00	  614.87	-1785.12	  458.66
     11.8700	  661.00	  624.89	-1728.14	  458.52
     11.9700	  644.00	  638.58	-1758.83	  458.36
     12.0700	  676.00	  654.66	-1742.92	  458.20
     12.1700	  676.00	  666.70	-1754.95	  458.04
     12.2700	  683.00	  663.90	-1745.15	  457.88
     12.3700	  655.00	  642.39	-1751.64	  457.71
     12.4700	  654.00	  615.64	-1725.89	  457.54
     12.5700	  654.00	  596.29	-1706.54	  457.37
     12.6700	  618.00	  586.13	-1732.38	  457.19
     12.7700	  613.00	  581.72	-1732.97	  457.01
     12.8700	  595.00	  579.78	-1749.03	  456.83
     12.9700	  543.00	  578.70	-1799.95	  456.64
     13.0700	  550.00	  577.94	-1792.19	  456.45
     13.1700	  593.00	  577.34	-1748.59	  456.25
     13.2700	  600.00	  576.84	-1741.09	  456.06
     13.3700	  598.00	  576.41	-1742.66	  455.86
     13.4700	  547.00	  576.03	-1793.28	  455.66
     13.5700	  556.00	  575.68	-1783.93	  455.45
     13.6700	  576.00	  575.35	-1763.60	  455.24
     13.7700	  581.00	  575.04	-1758.29	  455.03
     13.8700	  561.00	  574.75	-1778.00	  454.82
     13.9700	  528.00	  574.46	-1810.71	  454.60
     14.0700	  590.00	  574.19	-1748.44	  454.38
     14.1700	  513.00	  573.91	-1825.16	  454.16
     14.2700	  625.00	  573.65	-1712.90	  453.93
     14.3700	  584.00	  573.38	-1753.63	  453.70
     14.4700	  581.00	  573.12	-1756.37	  453.47
     14.5700	  576.00	  572.86	-1761.11	  453.24
     14.6700	  573.00	  572.60	-1763.85	  453.00
     14.7700	  567.00	  572.34	-1769.59	  452.76
     14.8700	  540.00	  572.08	-1796.33	  452.52
     14.9700	  571.00	  571.81	-1765.06	  452.28
     15.0700	  587.00	  571.55	-1748.80	  452.03
     15.1700	  548.00	  571.29	-1787.54	  451.79
     15.2700	  563.00	  571.03	-1772.28	  451.54
     15.3700	  523.00	  570.76	-1812.01	  451.28
     15.4700	  535.00	  570.50	-1799.75	  451.03
     15.5700	  576.00	  570.23	-1758.48	  450.77
     15.6700	  541.00	  569.96	-1793.21	  450.51
     15.7700	  534.00	  569.69	-1799.94	  450.25
     15.8700	  557.00	  569.42	-1776.67	  449.99
     15.9700	  536.00	  569.15	-1797.40	  449.72
     16.0700	  579.00	  568.87	-1754.12	  449.45
     16.1700	  562.00	  568.60	-1770.85	  449.18
     16.2700	  595.00	  568.32	-1737.57	  448.91
     16.3700	  573.00	  568.07	-1759.32	  448.64
     16.4700	  566.00	  567.79	-1766.04	  448.36
     16.5700	  582.00	  567.51	-1749.76	  448.08
     16.6700	  567.00	  567.22	-1764.47	  447.81
     16.7700	  590.00	  566.94	-1741.19	  447.52
     16.8700	  606.00	  566.65	-1724.90	  447.24
     16.9700	  606.00	  566.37	-1724.62	  446.96
     17.0700	  544.00	  566.08	-1786.33	  446.67
     17.1700	  569.00	  565.79	-1761.04	  446.38
     17.2700	  573.00	  565.49	-1756.74	  446.09
     17.3700	  574.00	  565.20	-1755.45	  445.80
     17.4700	  546.00	  564.91	-1783.16	  445.51
     17.5700	  537.00	  564.61	-1791.86	  445.21
     17.6700	  547.00	  564.31	-1781.56	  444.92
     17.7700	  498.00	  564.01	-1830.26	  444.62
     17.8700	  528.00	  563.71	-1799.96	  444.32
     17.9700	  520.00	  563.41	-1807.66	  444.02
     18.0700	  549.00	  563.21	-1778.46	  443.72
     18.1700	  551.00	  562.91	-1776.16	  443.42
     18.2700	  575.00	  562.61	-1751.86	  443.11
     18.3700	  543.00	  562.30	-1783.55	  442.80
     18.4700	  541.00	  562.00	-1785.25	  442.50
     18.5700	  574.00	  561.69	-1751.94	  442.19
     18.6700	  578.00	  561.38	-1747.63	  441.88
     18.7700	  559.00	  561.08	-1766.33	  441.57
     18.8700	  551.00	  560.77	-1774.02	  441.26
     18.9700	  570.00	  560.54	-1754.79	  440.94
     19.0700	  561.00	  560.23	-1763.48	  440.63
     19.1700	  562.00	  559.92	-1762.17	  440.31
     19.2700	  523.00	  559.61	-1800.86	  440.00
     19.3700	  505.00	  559.30	-1818.55	  439.68
     19.4700	  529.00	  558.99	-1794.24	  439.36
     19.5700	  564.00	  558.67	-1758.92	  439.04
     19.6700	  582.00	  558.36	-1740.61	  438.72
     19.7700	  530.00	  558.05	-1792.30	  438.40
     19.8700	  557.00	  557.73	-1764.98	  438.08
     19.9700	  609.00	  557.42	-1712.67	  437.76
     20.0700	  533.00	  557.10	-1788.35	  437.43
     20.1700	  548.00	  556.79	-1773.04	  437.11
     20.2700	  558.00	  556.47	-1762.72	  436.78
     20.3700	  540.00	  556.13	-1780.38	  436.46
     20.4700	  562.00	  555.81	-1758.06	  436.13
     20.5700	  523.00	  555.50	-1796.75	  435.80
     20.6700	  570.00	  555.18	-1749.43	  435.47
     20.7700	  547.00	  554.86	-1772.11	  435.15
     20.8700	  545.00	  554.55	-1773.80	  434.82
     20.9700	  510.00	  554.27	-1808.52	  434.49
     21.0700	  578.00	  553.95	-1740.20	  434.16
     21.1700	  520.00	  553.64	-1797.89	  433.82
     21.2700	  579.00	  553.33	-1738.58	  433.49
     21.3700	  562.00	  553.02	-1755.27	  433.16
     21.4700	  551.00	  552.70	-1765.95	  432.83
     21.5700	  575.00	  552.39	-1741.64	  432.50
     21.6700	  556.00	  552.08	-1760.33	  432.16
     21.7700	  524.00	  551.77	-1792.02	  431.83
     21.8700	  526.00	  551.47	-1789.72	  431.49
     21.9700	  562.00	  551.16	-1753.41	  431.16
     22.0700	  568.00	  550.86	-1747.11	  430.82
     22.1700	  556.00	  550.56	-1758.81	  430.49
     22.2700	  558.00	  550.26	-1756.51	  430.15
     22.3700	  527.00	  549.97	-1787.22	  429.82
     22.4700	  528.00	  549.67	-1785.92	  429.48
     22.5700	  532.00	  549.39	-1781.64	  429.15
     22.6700	  558.00	  549.11	-1755.36	  428.81
     22.7700	  536.00	  548.83	-1777.08	  428.47
     22.8700	  550.00	  548.56	-1762.81	  428.14
     22.9700	  533.00	  548.31	-1779.56	  427.80
     23.0700	  559.00	  548.06	-1753.31	  427.47
     23.1700	  550.00	  547.83	-1762.08	  427.13
     23.2700	  560.00	  547.61	-1751.86	  426.79
     23.3700	  550.00	  547.42	-1761.67	  426.46
     23.4700	  563.00	  547.26	-1748.51	  426.12
     23.5700	  616.00	  547.14	-1695.39	  425.78
     23.6700	  585.00	  547.08	-1726.33	  425.45
     23.7700	  542.00	  547.12	-1769.37	  425.11
     23.8700	  540.00	  547.47	-1771.72	  424.77
     23.9700	  567.00	  548.10	-1745.35	  424.44
     24.0700	  550.00	  549.54	-1763.79	  424.10
     24.1700	  577.00	  552.47	-1739.72	  423.76
     24.2700	  586.00	  557.74	-1735.99	  423.43
     24.3700	  553.00	  566.32	-1777.57	  423.09
     24.4700	  618.00	  579.35	-1725.60	  422.76
     24.5700	  554.00	  597.41	-1807.66	  422.42
     24.6700	  641.00	  617.96	-1741.21	  422.09
     24.7700	  598.00	  632.90	-1799.15	  421.75
     24.8700	  631.00	  630.72	-1763.97	  421.42
     24.9700	  583.00	  609.22	-1790.47	  421.08
     25.0700	  605.00	  582.52	-1741.77	  420.75
     25.1700	  545.00	  562.66	-1781.91	  420.42
     25.2700	  589.00	  551.77	-1727.02	  420.08
     25.3700	  527.00	  546.86	-1784.11	  419.75
     25.4700	  585.00	  544.71	-1723.96	  419.42
     25.5700	  530.00	  543.59	-1777.84	  419.09
     25.6700	  557.00	  542.86	-1750.11	  418.75
     25.7700	  521.00	  542.31	-1785.56	  418.42
     25.8700	  586.00	  541.90	-1720.15	  418.09
     25.9700	  567.00	  541.58	-1738.83	  417.76
     26.0700	  541.00	  541.34	-1764.59	  417.43
     26.1700	  578.00	  541.17	-1727.42	  417.11
     26.2700	  551.00	  541.08	-1754.33	  416.78
     26.3700	  535.00	  541.06	-1770.31	  416.45
     26.4700	  546.00	  541.12	-1759.37	  416.12
     26.5700	  525.00	  541.27	-1780.52	  415.80
     26.6700	  628.00	  541.53	-1677.78	  415.47
     26.7700	  568.00	  541.92	-1738.17	  415.14
     26.8700	  558.00	  542.48	-1748.73	  414.82
     26.9700	  598.00	  543.25	-1709.50	  414.50
     27.0700	  534.00	  544.31	-1774.56	  414.17
     27.1700	  573.00	  545.79	-1737.04	  413.85
     27.2700	  555.00	  547.93	-1757.18	  413.53
     27.3700	  598.00	  551.21	-1717.46	  413.21
     27.4700	  575.00	  556.58	-1745.83	  412.89
     27.5700	  521.00	  565.72	-1808.97	  412.57
     27.6700	  534.00	  581.32	-1811.57	  412.25
     27.7700	  587.00	  606.85	-1784.10	  411.93
     27.8700	  612.00	  645.34	-1797.59	  411.61
     27.9700	  676.00	  696.96	-1785.21	  411.30
     28.0700	  793.00	  755.86	-1727.11	  410.98
     28.1700	  844.00	  807.35	-1727.60	  410.67
     28.2700	  982.00	  829.30	-1611.55	  410.35
     28.3700	  920.00	  808.58	-1652.83	  410.04
     28.4700	  801.00	  766.04	-1729.29	  409.73
     28.5700	  708.00	  736.44	-1792.69	  409.42
     28.6700	  681.00	  735.79	-1819.04	  409.11
     28.7700	  734.00	  759.56	-1789.81	  408.80
     28.8700	  753.00	  788.09	-1799.34	  408.49
     28.9700	  842.00	  793.41	-1715.66	  408.18
     29.0700	  773.00	  757.52	-1748.77	  407.88
     29.1700	  679.00	  695.69	-1780.94	  407.57
     29.2700	  641.00	  636.66	-1759.91	  407.27
     29.3700	  597.00	  594.18	-1761.43	  406.96
     29.4700	  603.00	  568.66	-1729.91	  406.66
     29.5700	  633.00	  554.98	-1686.23	  406.36
     29.6700	  603.00	  547.80	-1709.05	  406.06
     29.7700	  582.00	  543.75	-1726.00	  405.76
     29.8700	  608.00	  541.23	-1697.48	  405.46
     29.9700	  545.00	  539.62	-1758.87	  405.17
     30.0700	  571.00	  538.80	-1732.05	  404.87
     30.1700	  602.00	  538.90	-1701.15	  404.58
     30.2700	  556.00	  540.47	-1748.72	  404.28
     30.3700	  521.00	  544.57	-1787.82	  403.99
     30.4700	  597.00	  552.82	-1720.07	  403.70
     30.5700	  545.00	  567.00	-1786.25	  403.41
     30.6700	  539.00	  587.72	-1812.97	  403.12
     30.7700	  581.00	  612.51	-1795.76	  402.83
     30.8700	  622.00	  634.36	-1776.61	  402.55
     30.9700	  614.00	  642.41	-1792.66	  402.26
     31.0700	  649.00	  629.04	-1744.29	  401.98
     31.1700	  605.00	  601.24	-1760.49	  401.70
     31.2700	  567.00	  573.29	-1770.54	  401.42
     31.3700	  570.00	  552.72	-1746.97	  401.14
     31.4700	  569.00	  540.33	-1735.58	  400.86
     31.5700	  543.00	  533.79	-1755.04	  400.58
     31.6700	  506.00	  530.48	-1788.73	  400.30
     31.7700	  554.00	  528.65	-1738.90	  400.03
     31.8700	  529.00	  527.50	-1762.75	  399.75
     31.9700	  528.00	  526.70	-1762.95	  399.48
     32.0700	  560.00	  526.12	-1730.37	  399.21
     32.1700	  523.00	  525.73	-1766.98	  398.94
     32.2700	  553.00	  525.48	-1736.73	  398.67
     32.3700	  574.00	  525.39	-1715.64	  398.41
     32.4700	  541.00	  525.44	-1748.69	  398.14
     32.5700	  537.00	  525.65	-1752.90	  397.88
     32.6700	  563.00	  526.05	-1727.30	  397.61
     32.7700	  541.00	  526.69	-1749.94	  397.35
     32.8700	  588.00	  527.62	-1703.87	  397.09
     32.9700	  532.00	  528.95	-1761.20	  396.84
     33.0700	  550.00	  530.89	-1745.14	  396.58
     33.1700	  565.00	  533.86	-1733.11	  396.32
     33.2700	  542.00	  538.86	-1761.11	  396.07
     33.3700	  500.00	  548.13	-1812.38	  395.82
     33.4700	  529.00	  566.00	-1801.25	  395.57
     33.5700	  624.00	  599.68	-1739.93	  395.32
     33.6700	  611.00	  657.69	-1810.94	  395.07
     33.7700	  699.00	  744.44	-1809.69	  394.82
     33.8700	  883.00	  851.18	-1732.43	  394.58
     33.9700	 1046.00	  949.54	-1667.79	  394.33
     34.0700	 1075.00	  994.94	-1684.19	  394.09
     34.1700	 1051.00	  953.36	-1666.61	  393.85
     34.2700	  862.00	  846.09	-1748.34	  393.61
     34.3700	  755.00	  729.72	-1738.97	  393.37
     34.4700	  595.00	  639.86	-1809.11	  393.14
     34.5700	  574.00	  583.93	-1774.18	  392.90
     34.6700	  592.00	  554.15	-1726.40	  392.67
     34.7700	  546.00	  539.47	-1757.72	  392.44
     34.8700	  564.00	  531.95	-1732.20	  392.21
     34.9700	  557.00	  527.48	-1734.73	  391.98
     35.0700	  513.00	  524.40	-1775.65	  391.75
     35.1700	  507.00	  522.08	-1779.33	  391.53
     35.2700	  560.00	  520.24	-1724.49	  391.30
     35.3700	  454.00	  518.74	-1828.99	  391.08
     35.4700	  571.00	  517.52	-1710.77	  390.86
     35.5700	  473.00	  516.47	-1807.72	  390.64
     35.6700	  522.00	  515.58	-1757.83	  390.42
     35.7700	  511.00	  514.79	-1768.04	  390.21
     35.8700	  516.00	  514.11	-1762.36	  389.99
     35.9700	  516.00	  513.50	-1761.75	  389.78
     36.0700	  508.00	  513.44	-1769.69	  389.57
     36.1700	  531.00	  512.95	-1746.20	  389.36
     36.2700	  483.00	  512.51	-1793.76	  389.15
     36.3700	  488.00	  512.12	-1788.36	  388.95
     36.4700	  508.00	  511.76	-1768.01	  388.74
     36.5700	  507.00	  511.43	-1768.68	  388.54
     36.6700	  508.00	  511.15	-1767.40	  388.34
     36.7700	  503.00	  510.91	-1772.16	  388.14
     36.8700	  486.00	  510.74	-1788.99	  387.94
     36.9700	  507.00	  510.68	-1767.93	  387.75
     37.0700	  522.00	  510.86	-1753.11	  387.55
     37.1700	  547.00	  511.55	-1728.80	  387.36
     37.2700	  539.00	  513.13	-1738.38	  387.17
     37.3700	  512.00	  516.06	-1768.31	  386.98
     37.4700	  511.00	  520.42	-1773.67	  386.79
     37.5700	  509.00	  525.54	-1780.79	  386.61
     37.6700	  524.00	  529.82	-1770.07	  386.42
     37.7700	  516.00	  531.32	-1779.57	  386.24
     37.8700	  479.00	  529.44	-1814.69	  386.06
     37.9700	  496.00	  525.60	-1793.85	  385.88
     38.0700	  522.00	  521.30	-1763.55	  385.71
     38.1700	  501.00	  517.14	-1780.39	  385.53
     38.2700	  556.00	  513.55	-1721.80	  385.36
     38.3700	  507.00	  510.80	-1768.05	  385.18
     38.4700	  494.00	  508.91	-1779.16	  385.01
     38.5700	  510.00	  507.71	-1761.96	  384.84
     38.6700	  523.00	  506.98	-1748.23	  384.68
     38.7700	  482.00	  506.42	-1788.67	  384.51
     38.8700	  524.00	  506.09	-1746.34	  384.35
     38.9700	  537.00	  505.82	-1733.07	  384.19
     39.0700	  519.00	  505.59	-1750.84	  384.03
     39.1700	  502.00	  505.31	-1767.56	  383.87
     39.2700	  521.00	  505.12	-1748.37	  383.71
     39.3700	  492.00	  504.95	-1777.20	  383.56
     39.4700	  499.00	  504.79	-1770.04	  383.40
     39.5700	  543.00	  504.64	-1725.89	  383.25
     39.6700	  554.00	  504.49	-1714.74	  383.10
     39.7700	  510.00	  504.48	-1758.73	  382.96
     39.8700	  454.00	  504.36	-1814.61	  382.81
     39.9700	  496.00	  504.25	-1772.50	  382.67
     40.0700	  493.00	  504.15	-1775.40	  382.52
     40.1700	  498.00	  504.05	-1770.30	  382.38
     40.2700	  482.00	  503.97	-1786.22	  382.24
     40.3700	  531.00	  503.90	-1737.15	  382.11
     40.4700	  461.00	  503.84	-1807.09	  381.97
     40.5700	  479.00	  503.80	-1789.05	  381.84
     40.6700	  512.00	  503.77	-1756.02	  381.71
     40.7700	  520.00	  503.75	-1748.00	  381.57
     40.8700	  457.00	  503.76	-1811.01	  381.45
     40.9700	  491.00	  503.80	-1777.05	  381.32
     41.0700	  476.00	  503.86	-1792.11	  381.19
     41.1700	  542.00	  503.93	-1726.18	  381.07
     41.2700	  515.00	  504.07	-1753.32	  380.95
     41.3700	  470.00	  504.28	-1798.53	  380.83
     41.4700	  488.00	  504.56	-1780.81	  380.71
     41.5700	  513.00	  504.94	-1756.19	  380.60
     41.6700	  478.00	  505.89	-1792.14	  380.48
     41.7700	  497.00	  506.70	-1773.95	  380.37
     41.8700	  503.00	  508.07	-1769.32	  380.26
     41.9700	  481.00	  510.62	-1793.87	  380.15
     42.0700	  530.00	  515.67	-1749.92	  380.04
     42.1700	  496.00	  525.37	-1793.62	  379.94
     42.2700	  525.00	  542.41	-1781.66	  379.83
     42.3700	  516.00	  568.54	-1816.79	  379.73
     42.4700	  542.00	  602.03	-1824.28	  379.63
     42.5700	  618.00	  635.77	-1782.02	  379.53
     42.6700	  608.00	  657.66	-1813.91	  379.43
     42.7700	  594.00	  656.40	-1826.65	  379.34
     42.8700	  567.00	  631.70	-1828.95	  379.25
     42.9700	  588.00	  596.21	-1772.46	  379.15
     43.0700	  503.00	  562.75	-1824.00	  379.06
     43.1700	  511.00	  537.78	-1791.03	  378.98
     43.2700	  544.00	  522.14	-1742.39	  378.89
     43.3700	  505.00	  513.59	-1772.84	  378.80
     43.4700	  503.00	  509.29	-1770.54	  378.72
     43.5700	  495.00	  507.12	-1776.37	  378.64
     43.6700	  517.00	  505.90	-1753.15	  378.56
     43.7700	  543.00	  505.30	-1726.55	  378.48
     43.8700	  517.00	  504.74	-1751.99	  378.41
     43.9700	  505.00	  504.32	-1763.57	  378.33
     44.0700	  473.00	  504.00	-1795.25	  378.26
     44.1700	  542.00	  503.76	-1726.01	  378.19
     44.2700	  541.00	  503.60	-1726.85	  378.12
     44.3700	  475.00	  503.46	-1792.71	  378.05
     44.4700	  504.00	  503.24	-1763.49	  377.99
     44.5700	  503.00	  503.18	-1764.43	  377.92
     44.6700	  525.00	  503.14	-1742.39	  377.86
     44.7700	  491.00	  503.14	-1776.39	  377.80
     44.8700	  499.00	  503.15	-1768.40	  377.74
     44.9700	  531.00	  503.19	-1736.44	  377.68
     45.0700	  541.00	  503.25	-1726.50	  377.63
     45.1700	  476.00	  503.34	-1791.59	  377.57
     45.2700	  517.00	  503.62	-1750.87	  377.52
     45.3700	  512.00	  503.75	-1756.00	  377.47
     45.4700	  558.00	  503.89	-1710.14	  377.42
     45.5700	  497.00	  504.07	-1771.32	  377.37
     45.6700	  514.00	  504.26	-1754.51	  377.33
     45.7700	  522.00	  504.48	-1746.73	  377.28
     45.8700	  462.00	  504.73	-1806.98	  377.24
     45.9700	  509.00	  505.01	-1760.26	  377.20
     46.0700	  477.00	  505.32	-1792.57	  377.16
     46.1700	  529.00	  505.67	-1740.92	  377.13
     46.2700	  501.00	  506.06	-1769.31	  377.09
     46.3700	  511.00	  506.50	-1759.75	  377.06
     46.4700	  518.00	  506.99	-1753.24	  377.02
     46.5700	  484.00	  507.56	-1787.81	  376.99
     46.6700	  501.00	  508.20	-1771.45	  376.97
     46.7700	  514.00	  508.95	-1759.20	  376.94
     46.8700	  506.00	  509.86	-1768.11	  376.91
     46.9700	  526.00	  511.03	-1749.28	  376.89
     47.0700	  512.00	  512.72	-1764.97	  376.87
     47.1700	  471.00	  515.44	-1808.69	  376.84
     47.2700	  511.00	  520.12	-1773.37	  376.83
     47.3700	  515.00	  528.01	-1777.26	  376.81
     47.4700	  548.00	  540.42	-1756.67	  376.79
     47.5700	  587.00	  557.64	-1734.89	  376.78
     47.6700	  592.00	  578.10	-1750.35	  376.76
     47.7700	  581.00	  597.55	-1780.80	  376.75
     47.8700	  614.00	  609.70	-1759.95	  376.74
     47.9700	  610.00	  609.48	-1763.73	  376.74
     48.0700	  601.00	  597.64	-1760.89	  376.73
     48.1700	  535.00	  580.32	-1809.57	  376.72
     48.2700	  543.00	  563.76	-1785.01	  376.72
     48.3700	  532.00	  551.57	-1783.82	  376.72
     48.4700	  561.00	  544.77	-1748.02	  376.72
     48.5700	  518.00	  542.62	-1788.87	  376.72
     48.6700	  541.00	  543.92	-1767.17	  376.72
     48.7700	  553.00	  547.65	-1758.90	  376.73
     48.8700	  555.00	  553.30	-1762.55	  376.73
     48.9700	  554.00	  560.93	-1771.18	  376.74
     49.0700	  589.00	  571.24	-1746.49	  376.75
     49.1700	  631.00	  585.92	-1719.17	  376.76
     49.2700	  658.00	  608.53	-1714.78	  376.77
     49.3700	  645.00	  645.86	-1765.11	  376.78
     49.4700	  693.00	  709.34	-1780.59	  376.80
     49.5700	  778.00	  815.34	-1801.59	  376.81
     49.6700	  910.00	  982.80	-1837.05	  376.83
     49.7700	 1128.00	 1224.95	-1861.20	  376.85
     49.8700	 1468.00	 1540.18	-1836.43	  376.87
     49.9700	 1861.00	 1898.69	-1801.94	  376.89
     50.0700	 2303.00	 2233.67	-1694.92	  376.92
     50.1700	 2503.00	 2446.21	-1707.46	  376.94
     50.2700	 2576.00	 2448.65	-1636.90	  376.97
     50.3700	 2332.00	 2237.58	-1669.83	  377.00
     50.4700	 1850.00	 1901.19	-1815.44	  377.03
     50.5700	 1364.00	 1543.06	-1943.31	  377.06
     50.6700	 1056.00	 1231.51	-1939.76	  377.09
     50.7700	  834.00	  996.24	-1926.49	  377.12
     50.8700	  748.00	  838.49	-1854.74	  377.16
     50.9700	  585.00	  742.80	-1922.05	  377.19
     51.0700	  575.00	  687.89	-1877.14	  377.23
     51.1700	  626.00	  654.54	-1792.79	  377.27
     51.2700	  607.00	  630.00	-1787.25	  377.31
     51.3700	  570.00	  608.86	-1803.11	  377.35
     51.4700	  594.00	  590.37	-1760.62	  377.40
     51.5700	  545.00	  575.15	-1794.40	  377.44
     51.6700	  597.00	  563.55	-1730.80	  377.49
     51.7700	  563.00	  555.33	-1756.58	  377.53
     51.8700	  542.00	  549.79	-1772.04	  377.58
     51.9700	  573.00	  546.12	-1737.37	  377.63
     52.0700	  553.00	  543.72	-1754.97	  377.68
     52.1700	  570.00	  542.26	-1736.51	  377.74
     52.2700	  552.00	  541.64	-1753.89	  377.79
     52.3700	  580.00	  541.97	-1726.22	  377.85
     52.4700	  607.00	  543.81	-1701.06	  377.90
     52.5700	  592.00	  547.67	-1719.92	  377.96
     52.6700	  597.00	  555.77	-1723.02	  378.02
     52.7700	  591.00	  571.99	-1745.24	  378.08
     52.8700	  642.00	  602.54	-1724.79	  378.14
     52.9700	  689.00	  655.46	-1730.71	  378.20
     53.0700	  821.00	  738.03	-1681.28	  378.27
     53.1700	  921.00	  851.92	-1695.17	  378.33
     53.2700	 1089.00	  987.87	-1663.12	  378.40
     53.3700	 1180.00	 1121.98	-1706.23	  378.47
     53.4700	 1197.00	 1217.74	-1784.99	  378.53
     53.5700	 1190.00	 1239.22	-1813.47	  378.60
     53.6700	 1079.00	 1176.43	-1861.68	  378.68
     53.7700	 1000.00	 1055.42	-1819.67	  378.75
     53.8700	  885.00	  916.02	-1795.27	  378.82
     53.9700	  780.00	  789.32	-1773.57	  378.90
     54.0700	  649.00	  691.45	-1806.70	  378.97
     54.1700	  601.00	  625.35	-1788.60	  379.05
     54.2700	  585.00	  585.58	-1764.83	  379.13
     54.3700	  554.00	  563.87	-1774.12	  379.21
     54.4700	  566.00	  552.90	-1751.15	  379.29
     54.5700	  565.00	  547.62	-1746.87	  379.37
     54.6700	  569.00	  545.25	-1740.50	  379.45
     54.7700	  546.00	  544.41	-1762.66	  379.53
     54.8700	  572.00	  544.54	-1736.79	  379.62
     54.9700	  576.00	  545.42	-1733.67	  379.71
     55.0700	  546.00	  546.97	-1765.22	  379.79
     55.1700	  545.00	  549.22	-1768.47	  379.88
     55.2700	  563.00	  552.22	-1753.47	  379.97
     55.3700	  533.00	  556.08	-1787.33	  380.06
     55.4700	  585.00	  561.03	-1740.28	  380.15
     55.5700	  546.00	  567.39	-1785.64	  380.24
     55.6700	  566.00	  575.91	-1774.16	  380.34
     55.7700	  578.00	  588.12	-1774.37	  380.43
     55.8700	  611.00	  607.18	-1760.43	  380.52
     55.9700	  634.00	  639.05	-1769.30	  380.62
     56.0700	  644.00	  693.94	-1814.19	  380.72
     56.1700	  696.00	  786.89	-1855.14	  380.82
     56.2700	  938.00	  936.25	-1762.50	  380.92
     56.3700	 1070.00	 1158.44	-1852.69	  381.02
     56.4700	 1352.00	 1459.09	-1871.34	  381.12
     56.5700	 1699.00	 1822.86	-1888.11	  381.22
     56.6700	 2094.00	 2205.06	-1875.31	  381.32
     56.7700	 2542.00	 2529.87	-1752.12	  381.42
     56.8700	 2608.00	 2703.94	-1860.19	  381.53
     56.9700	 2641.00	 2662.78	-1786.03	  381.63
     57.0700	 2387.00	 2422.30	-1799.55	  381.74
     57.1700	 2067.00	 2066.09	-1763.34	  381.85
     57.2700	 1586.00	 1685.44	-1863.69	  381.96
     57.3700	 1329.00	 1345.08	-1780.33	  382.07
     57.4700	 1076.00	 1077.72	-1765.97	  382.18
     57.5700	  831.00	  889.63	-1822.88	  382.29
     57.6700	  767.00	  770.21	-1767.46	  382.40
     57.7700	  687.00	  702.12	-1779.37	  382.51
     57.8700	  621.00	  669.21	-1812.46	  382.62
     57.9700	  649.00	  660.24	-1775.49	  382.74
     58.0700	  684.00	  669.36	-1749.61	  382.85
     58.1700	  724.00	  694.78	-1735.03	  382.97
     58.2700	  807.00	  736.66	-1693.91	  383.08
     58.3700	  845.00	  795.30	-1714.55	  383.20
     58.4700	 1000.00	  869.37	-1633.62	  383.32
     58.5700	 1091.00	  954.31	-1627.56	  383.44
     58.6700	 1228.00	 1041.83	-1578.08	  383.56
     58.7700	 1383.00	 1122.13	-1503.38	  383.68
     58.8700	 1547.00	 1188.46	-1405.71	  383.80
     58.9700	 1569.00	 1237.12	-1432.37	  383.92
     59.0700	 1543.00	 1263.20	-1484.45	  384.04
     59.1700	 1616.00	 1262.36	-1410.61	  384.17
     59.2700	 1497.00	 1238.48	-1505.73	  384.29
     59.3700	 1391.00	 1204.13	-1577.38	  384.41
     59.4700	 1238.00	 1172.13	-1698.38	  384.54
     59.5700	 1131.00	 1150.93	-1784.18	  384.66
     59.6700	 1135.00	 1147.31	-1776.56	  384.79
     59.7700	 1138.00	 1169.40	-1795.65	  384.92
     59.8700	 1293.00	 1222.86	-1694.11	  385.04
     59.9700	 1367.00	 1304.24	-1701.49	  385.17
     60.0700	 1447.00	 1397.66	-1714.91	  385.30
     60.1700	 1601.00	 1475.07	-1638.32	  385.43
     60.2700	 1588.00	 1503.42	-1679.67	  385.56
     60.3700	 1552.00	 1461.80	-1674.05	  385.69
     60.4700	 1438.00	 1356.52	-1682.77	  385.82
     60.5700	 1248.00	 1214.42	-1730.67	  385.95
     60.6700	 1100.00	 1064.72	-1728.97	  386.08
     60.7700	  873.00	  928.82	-1820.07	  386.22
     60.8700	  808.00	  818.76	-1775.01	  386.35
     60.9700	  701.00	  738.71	-1801.96	  386.48
     61.0700	  680.00	  687.42	-1771.67	  386.62
     61.1700	  628.00	  661.49	-1797.74	  386.75
     61.2700	  620.00	  658.15	-1802.40	  386.89
     61.3700	  612.00	  677.01	-1829.26	  387.02
     61.4700	  717.00	  720.25	-1767.50	  387.16
     61.5700	  701.00	  791.34	-1854.59	  387.30
     61.6700	  810.00	  892.53	-1846.78	  387.43
     61.7700	  877.00	 1021.67	-1908.92	  387.57
     61.8700	 1120.00	 1169.45	-1813.70	  387.71
     61.9700	 1250.00	 1317.57	-1831.82	  387.85
     62.0700	 1294.00	 1438.74	-1908.99	  387.98
     62.1700	 1387.00	 1501.93	-1879.18	  388.12
     62.2700	 1388.00	 1486.56	-1862.81	  388.26
     62.3700	 1317.00	 1397.25	-1844.50	  388.40
     62.4700	 1281.00	 1260.26	-1743.51	  388.54
     62.5700	 1026.00	 1106.57	-1844.82	  388.68
     62.6700	  861.00	  960.39	-1863.64	  388.82
     62.7700	  805.00	  836.54	-1795.79	  388.96
     62.8700	  644.00	  741.05	-1861.30	  389.10
     62.9700	  609.00	  673.26	-1828.51	  389.25
     63.0700	  595.00	  628.52	-1797.77	  389.39
     63.1700	  567.00	  600.79	-1798.04	  389.53
     63.2700	  574.00	  584.54	-1774.79	  389.67
     63.3700	  574.00	  575.70	-1765.95	  389.81
     63.4700	  588.00	  571.85	-1748.10	  389.96
     63.5700	  545.00	  572.10	-1791.35	  390.10
     63.6700	  591.00	  576.80	-1750.05	  390.24
     63.7700	  582.00	  587.38	-1769.63	  390.39
     63.8700	  646.00	  605.97	-1724.22	  390.53
     63.9700	  695.00	  634.87	-1704.12	  390.68
     64.0700	  685.00	  675.77	-1755.02	  390.82
     64.1700	  813.00	  728.68	-1679.93	  390.96
     64.2700	  843.00	  790.88	-1712.13	  391.11
     64.3700	  863.00	  856.32	-1757.57	  391.25
     64.4700	  968.00	  915.51	-1711.76	  391.40
     64.5700	  996.00	  956.64	-1724.89	  391.54
     64.6700	 1065.00	  971.62	-1670.87	  391.69
     64.7700	  989.00	  957.49	-1732.74	  391.83
     64.8700	  981.00	  919.21	-1702.46	  391.98
     64.9700	  957.00	  865.92	-1673.17	  392.12
     65.0700	  862.00	  807.69	-1709.94	  392.27
     65.1700	  823.00	  752.71	-1693.96	  392.41
     65.2700	  726.00	  705.64	-1743.89	  392.56
     65.3700	  690.00	  667.78	-1742.03	  392.71
     65.4700	  656.00	  638.24	-1746.49	  392.85
     65.5700	  605.00	  615.42	-1774.68	  393.00
     65.6700	  574.00	  597.96	-1788.21	  393.14
     65.7700	  575.00	  584.81	-1774.06	  393.29
     65.8700	  516.00	  575.21	-1823.46	  393.43
     65.9700	  546.00	  568.59	-1786.84	  393.58
     66.0700	  561.00	  564.47	-1767.72	  393.73
     66.1700	  526.00	  562.43	-1800.68	  393.87
     66.2700	  527.00	  562.09	-1799.34	  394.02
     66.3700	  559.00	  563.16	-1768.41	  394.16
     66.4700	  560.00	  565.47	-1769.72	  394.31
     66.5700	  528.00	  569.05	-1805.30	  394.45
     66.6700	  562.00	  574.25	-1776.50	  394.60
     66.7700	  545.00	  581.97	-1801.22	  394.74
     66.8700	  556.00	  593.65	-1801.90	  394.89
     66.9700	  566.00	  612.22	-1810.47	  395.03
     67.0700	  658.00	  642.28	-1748.53	  395.18
     67.1700	  707.00	  690.48	-1747.73	  395.32
     67.2700	  722.00	  765.42	-1807.67	  395.47
     67.3700	  883.00	  876.51	-1757.76	  395.61
     67.4700	 1071.00	 1031.64	-1724.89	  395.76
     67.5700	 1259.00	 1234.38	-1739.63	  395.90
     67.6700	 1475.00	 1479.34	-1768.59	  396.05
     67.7700	 1742.00	 1750.33	-1772.58	  396.19
     67.8700	 2047.00	 2018.26	-1735.51	  396.33
     67.9700	 2264.00	 2242.41	-1742.66	  396.48
     68.0700	 2442.00	 2376.92	-1699.17	  396.62
     68.1700	 2376.00	 2387.47	-1775.72	  396.76
     68.2700	 2213.00	 2271.07	-1822.32	  396.90
     68.3700	 2136.00	 2058.24	-1686.49	  397.05
     68.4700	 1760.00	 1794.51	-1798.76	  397.19
     68.5700	 1591.00	 1522.14	-1695.39	  397.33
     68.6700	 1263.00	 1272.11	-1773.36	  397.47
     68.7700	 1017.00	 1062.66	-1809.91	  397.61
     68.8700	  872.00	  900.62	-1792.87	  397.75
     68.9700	  782.00	  783.57	-1765.82	  397.89
     69.0700	  721.00	  704.17	-1747.42	  398.03
     69.1700	  641.00	  652.91	-1776.16	  398.17
     69.2700	  605.00	  621.03	-1780.28	  398.31
     69.3700	  670.00	  601.52	-1695.77	  398.45
     69.4700	  573.00	  589.50	-1780.75	  398.59
     69.5700	  593.00	  581.87	-1753.12	  398.73
     69.6700	  593.00	  576.80	-1748.05	  398.87
     69.7700	  543.00	  573.33	-1794.58	  399.01
     69.8700	  569.00	  570.94	-1766.19	  399.14
     69.9700	  569.00	  569.37	-1764.62	  399.28
     70.0700	  582.00	  568.50	-1750.75	  399.42
     70.1700	  564.00	  568.29	-1768.54	  399.55
     70.2700	  604.00	  568.74	-1728.99	  399.69
     70.3700	  638.00	  569.98	-1696.23	  399.82
     70.4700	  571.00	  572.18	-1765.43	  399.96
     70.5700	  528.00	  575.80	-1812.05	  400.09
     70.6700	  568.00	  581.67	-1777.92	  400.22
     70.7700	  562.00	  591.23	-1793.48	  400.36
     70.8700	  568.00	  606.84	-1803.09	  400.49
     70.9700	  604.00	  632.07	-1792.32	  400.62
     71.0700	  669.00	  671.73	-1766.98	  400.75
     71.1700	  715.00	  731.74	-1780.99	  400.88
     71.2700	  785.00	  818.16	-1797.41	  401.02
     71.3700	  998.00	  935.84	-1702.09	  401.15
     71.4700	 1035.00	 1086.22	-1815.47	  401.27
     71.5700	 1250.00	 1266.33	-1780.58	  401.40
     71.6700	 1425.00	 1463.63	-1802.88	  401.53
     71.7700	 1590.00	 1660.43	-1834.68	  401.66
     71.8700	 1740.00	 1831.27	-1855.52	  401.79
     71.9700	 1887.00	 1946.86	-1824.11	  401.91
     72.0700	 2037.00	 1982.50	-1709.75	  402.04
     72.1700	 1841.00	 1929.68	-1852.93	  402.16
     72.2700	 1802.00	 1800.94	-1763.19	  402.29
     72.3700	 1698.00	 1623.75	-1690.00	  402.41
     72.4700	 1544.00	 1426.65	-1646.90	  402.53
     72.5700	 1346.00	 1233.53	-1651.78	  402.66
     72.6700	 1172.00	 1061.06	-1653.31	  402.78
     72.7700	 1109.00	  918.17	-1573.42	  402.90
     72.8700	  933.00	  807.18	-1638.43	  403.02
     72.9700	  888.00	  725.71	-1601.96	  403.14
     73.0700	  808.00	  668.65	-1624.90	  403.26
     73.1700	  722.00	  630.14	-1672.39	  403.38
     73.2700	  719.00	  604.74	-1649.99	  403.49
     73.3700	  653.00	  588.11	-1699.35	  403.61
     73.4700	  646.00	  577.12	-1695.37	  403.73
     73.5700	  666.00	  569.74	-1667.99	  403.84
     73.6700	  612.00	  564.71	-1716.96	  403.96
     73.7700	  582.00	  561.29	-1743.54	  404.07
     73.8700	  604.00	  559.06	-1719.31	  404.18
     73.9700	  562.00	  557.77	-1760.02	  404.29
     74.0700	  630.00	  557.24	-1691.49	  404.41
     74.1700	  604.00	  557.30	-1717.55	  404.52
     74.2700	  596.00	  557.77	-1726.02	  404.63
     74.3700	  609.00	  558.41	-1713.66	  404.73
     74.4700	  678.00	  558.96	-1645.21	  404.84
     74.5700	  667.00	  559.14	-1656.39	  404.95
     74.6700	  605.00	  558.75	-1718.00	  405.05
     74.7700	  646.00	  557.72	-1675.97	  405.16
     74.8700	  635.00	  556.17	-1685.42	  405.26
     74.9700	  619.00	  554.37	-1699.62	  405.37
     75.0700	  617.00	  552.58	-1699.83	  405.47
     75.1700	  587.00	  551.20	-1728.45	  405.57
     75.2700	  545.00	  550.47	-1769.72	  405.67
     75.3700	  553.00	  550.88	-1762.13	  405.77
     75.4700	  560.00	  552.80	-1757.05	  405.87
     75.5700	  568.00	  556.60	-1752.85	  405.97
     75.6700	  533.00	  563.02	-1794.27	  406.07
     75.7700	  543.00	  572.44	-1793.69	  406.16
     75.8700	  558.00	  585.20	-1791.45	  406.26
     75.9700	  599.00	  601.32	-1766.57	  406.35
     76.0700	  639.00	  620.34	-1745.59	  406.45
     76.1700	  665.00	  641.20	-1740.45	  406.54
     76.2700	  679.00	  662.17	-1747.42	  406.63
     76.3700	  677.00	  680.97	-1768.22	  406.72
     76.4700	  688.00	  694.92	-1771.17	  406.81
     76.5700	  683.00	  701.56	-1782.81	  406.90
     76.6700	  706.00	  699.51	-1757.76	  406.99
     76.7700	  669.00	  689.19	-1784.44	  407.07
     76.8700	  666.00	  672.57	-1770.82	  407.16
     76.9700	  623.00	  652.12	-1793.37	  407.24
     77.0700	  616.00	  630.73	-1778.98	  407.32
     77.1700	  569.00	  610.28	-1805.53	  407.41
     77.2700	  578.00	  592.16	-1778.41	  407.49
     77.3700	  589.00	  577.13	-1752.38	  407.57
     77.4700	  534.00	  565.38	-1795.63	  407.65
     77.5700	  538.00	  556.68	-1782.93	  407.72
     77.6700	  499.00	  550.54	-1815.79	  407.80
     77.7700	  525.00	  546.40	-1785.65	  407.88
     77.8700	  515.00	  543.71	-1792.96	  407.95
     77.9700	  498.00	  542.00	-1808.25	  408.02
     78.0700	  533.00	  540.94	-1772.19	  408.09
     78.1700	  488.00	  540.29	-1816.54	  408.17
     78.2700	  515.00	  539.90	-1789.15	  408.24
     78.3700	  519.00	  539.67	-1784.92	  408.30
     78.4700	  553.00	  539.56	-1750.81	  408.37
     78.5700	  511.00	  539.55	-1792.80	  408.44
     78.6700	  549.00	  539.62	-1754.87	  408.50
     78.7700	  540.00	  539.80	-1764.05	  408.57
     78.8700	  482.00	  540.10	-1822.35	  408.63
     78.9700	  494.00	  540.55	-1810.80	  408.69
     79.0700	  532.00	  541.20	-1773.45	  408.75
     79.1700	  548.00	  542.11	-1758.36	  408.81
     79.2700	  543.00	  543.15	-1764.40	  408.87
     79.3700	  577.00	  544.75	-1732.00	  408.93
     79.4700	  541.00	  546.81	-1770.06	  408.98
     79.5700	  551.00	  549.40	-1762.65	  409.04
     79.6700	  520.00	  552.62	-1796.87	  409.09
     79.7700	  567.00	  556.57	-1753.82	  409.14
     79.8700	  545.00	  561.40	-1780.65	  409.19
     79.9700	  543.00	  567.29	-1788.54	  409.24
     80.0700	  531.00	  574.48	-1807.73	  409.29
     80.1700	  589.00	  583.25	-1758.50	  409.34
     80.2700	  521.00	  593.94	-1837.19	  409.38
     80.3700	  577.00	  606.81	-1794.06	  409.43
     80.4700	  576.00	  621.98	-1810.23	  409.47
     80.5700	  589.00	  639.28	-1814.53	  409.51
     80.6700	  667.00	  658.18	-1755.43	  409.55
     80.7700	  658.00	  677.74	-1783.99	  409.59
     80.8700	  676.00	  696.66	-1784.91	  409.63
     80.9700	  670.00	  713.45	-1807.70	  409.67
     81.0700	  728.00	  726.73	-1762.98	  409.70
     81.1700	  772.00	  735.44	-1727.69	  409.73
     81.2700	  727.00	  738.95	-1776.20	  409.77
     81.3700	  743.00	  737.04	-1758.29	  409.80
     81.4700	  787.00	  729.97	-1707.22	  409.83
     81.5700	  799.00	  718.47	-1683.72	  409.86
     81.6700	  734.00	  703.47	-1733.72	  409.88
     81.7700	  722.00	  685.99	-1728.24	  409.91
     81.8700	  735.00	  667.08	-1696.33	  409.94
     81.9700	  742.00	  647.96	-1670.21	  409.96
     82.0700	  674.00	  629.60	-1719.85	  409.98
     82.1700	  586.00	  612.80	-1791.05	  410.00
     82.2700	  687.00	  598.05	-1675.30	  410.02
     82.3700	  657.00	  585.58	-1692.83	  410.04
     82.4700	  661.00	  575.43	-1678.68	  410.05
     82.5700	  599.00	  567.55	-1732.80	  410.07
     82.6700	  578.00	  561.75	-1748.00	  410.08
     82.7700	  544.00	  557.85	-1778.10	  410.09
     82.8700	  580.00	  555.65	-1739.90	  410.10
     82.9700	  555.00	  555.00	-1764.25	  410.11
     83.0700	  535.00	  555.78	-1785.03	  410.12
     83.1700	  543.00	  557.86	-1779.11	  410.13
     83.2700	  552.00	  561.13	-1773.38	  410.13
     83.3700	  523.00	  565.41	-1806.66	  410.14
     83.4700	  492.00	  570.48	-1842.73	  410.14
     83.5700	  557.00	  576.00	-1783.25	  410.14
     83.6700	  500.00	  581.55	-1845.80	  410.14
     83.7700	  577.00	  586.60	-1773.85	  410.14
     83.8700	  513.00	  590.56	-1841.81	  410.13
     83.9700	  575.00	  592.88	-1782.13	  410.13
     84.0700	  589.00	  593.17	-1768.42	  410.12
     84.1700	  533.00	  591.35	-1822.60	  410.11
     84.2700	  625.00	  587.67	-1726.92	  410.11
     84.3700	  570.00	  582.65	-1776.90	  410.09
     84.4700	  555.00	  576.84	-1786.09	  410.08
     84.5700	  574.00	  570.78	-1761.03	  410.07
     84.6700	  532.00	  564.90	-1797.15	  410.05
     84.7700	  547.00	  559.54	-1776.79	  410.04
     84.8700	  552.00	  554.89	-1767.14	  410.02
     84.9700	  490.00	  551.05	-1825.30	  410.00
     85.0700	  550.00	  548.04	-1762.29	  409.98
     85.1700	  570.00	  545.81	-1740.06	  409.96
     85.2700	  533.00	  544.28	-1775.53	  409.93
     85.3700	  545.00	  543.33	-1762.58	  409.91
     85.4700	  477.00	  542.88	-1830.13	  409.88
     85.5700	  513.00	  542.85	-1794.10	  409.85
     85.6700	  539.00	  543.17	-1768.42	  409.82
     85.7700	  478.00	  543.82	-1830.07	  409.79
     85.8700	  486.00	  544.80	-1823.05	  409.76
     85.9700	  498.00	  546.13	-1812.38	  409.72
     86.0700	  559.00	  547.89	-1753.14	  409.69
     86.1700	  544.00	  550.16	-1770.41	  409.65
     86.2700	  559.00	  553.06	-1758.31	  409.61
     86.3700	  543.00	  556.72	-1777.97	  409.57
     86.4700	  566.00	  561.31	-1759.56	  409.53
     86.5700	  586.00	  566.93	-1745.18	  409.48
     86.6700	  563.00	  573.39	-1774.64	  409.44
     86.7700	  594.00	  581.21	-1751.46	  409.39
     86.8700	  587.00	  589.92	-1767.17	  409.34
     86.9700	  643.00	  599.15	-1720.40	  409.29
     87.0700	  598.00	  608.35	-1774.60	  409.24
     87.1700	  642.00	  616.83	-1739.08	  409.19
     87.2700	  686.00	  623.81	-1702.06	  409.14
     87.3700	  652.00	  628.48	-1740.73	  409.08
     87.4700	  603.00	  630.23	-1791.48	  409.02
     87.5700	  665.00	  628.79	-1728.04	  408.96
     87.6700	  632.00	  624.38	-1756.63	  408.90
     87.7700	  665.00	  617.63	-1716.88	  408.84
     87.8700	  643.00	  609.40	-1730.65	  408.78
     87.9700	  641.00	  600.58	-1723.83	  408.72
     88.0700	  647.00	  592.01	-1709.26	  408.65
     88.1700	  566.00	  584.39	-1782.64	  408.58
     88.2700	  615.00	  578.26	-1727.51	  408.51
     88.3700	  577.00	  573.99	-1761.24	  408.44
     88.4700	  552.00	  571.74	-1783.99	  408.37
     88.5700	  630.00	  571.52	-1705.77	  408.29
     88.6700	  623.00	  573.18	-1714.43	  408.22
     88.7700	  613.00	  576.43	-1727.68	  408.14
     88.8700	  561.00	  580.86	-1784.11	  408.06
     88.9700	  580.00	  585.99	-1770.24	  407.98
     89.0700	  622.00	  591.25	-1733.50	  407.90
     89.1700	  650.00	  596.06	-1710.31	  407.82
     89.2700	  623.00	  599.80	-1741.05	  407.74
     89.3700	  592.00	  601.94	-1774.19	  407.65
     89.4700	  573.00	  602.14	-1793.39	  407.56
     89.5700	  551.00	  600.32	-1813.57	  407.47
     89.6700	  588.00	  596.69	-1772.94	  407.38
     89.7700	  549.00	  591.67	-1806.92	  407.29
     89.8700	  559.00	  585.76	-1791.01	  407.20
     89.9700	  578.00	  579.44	-1765.69	  407.10
     90.0700	  543.00	  573.14	-1794.39	  407.00
     90.1700	  570.00	  567.19	-1761.44	  406.91
     90.2700	  543.00	  561.85	-1783.10	  406.81
     90.3700	  514.00	  557.26	-1807.51	  406.71
     90.4700	  543.00	  553.48	-1774.73	  406.60
     90.5700	  519.00	  550.50	-1795.75	  406.50
     90.6700	  528.00	  548.26	-1784.51	  406.39
     90.7700	  518.00	  546.68	-1792.93	  406.29
     90.8700	  552.00	  545.65	-1757.90	  406.18
     90.9700	  528.00	  545.11	-1781.36	  406.07
     91.0700	  488.00	  544.97	-1821.22	  405.96
     91.1700	  557.00	  545.22	-1752.47	  405.84
     91.2700	  531.00	  545.84	-1779.09	  405.73
     91.3700	  492.00	  546.88	-1819.13	  405.61
     91.4700	  519.00	  548.42	-1793.67	  405.50
     91.5700	  538.00	  550.59	-1776.84	  405.38
     91.6700	  557.00	  553.54	-1760.79	  405.26
     91.7700	  541.00	  557.48	-1780.73	  405.14
     91.8700	  548.00	  562.39	-1778.64	  405.01
     91.9700	  593.00	  568.92	-1740.17	  404.89
     92.0700	  559.00	  577.03	-1782.28	  404.76
     92.1700	  601.00	  586.84	-1750.09	  404.63
     92.2700	  557.00	  598.41	-1805.66	  404.50
     92.3700	  589.00	  611.68	-1786.93	  404.37
     92.4700	  605.00	  626.45	-1785.70	  404.24
     92.5700	  663.00	  642.39	-1743.64	  404.11
     92.6700	  679.00	  659.05	-1744.30	  403.97
     92.7700	  661.00	  675.82	-1779.07	  403.84
     92.8700	  725.00	  692.02	-1731.27	  403.70
     92.9700	  730.00	  706.94	-1741.19	  403.56
     93.0700	  793.00	  720.01	-1691.26	  403.42
     93.1700	  778.00	  730.94	-1717.19	  403.28
     93.2700	  785.00	  739.84	-1719.09	  403.14
     93.3700	  860.00	  747.18	-1651.43	  402.99
     93.4700	  789.00	  753.67	-1728.92	  402.84
     93.5700	  871.00	  760.07	-1653.32	  402.70
     93.6700	  861.00	  767.06	-1670.31	  402.55
     93.7700	  796.00	  775.23	-1743.48	  402.40
     93.8700	  827.00	  785.08	-1722.33	  402.25
     93.9700	  951.00	  797.02	-1610.27	  402.09
     94.0700	  880.00	  811.34	-1695.59	  401.94
     94.1700	  843.00	  828.04	-1749.29	  401.78
     94.2700	  932.00	  846.78	-1679.03	  401.63
     94.3700	  887.00	  866.79	-1744.04	  401.47
     94.4700	  876.00	  886.82	-1775.07	  401.31
     94.5700	  888.00	  905.23	-1781.48	  401.15
     94.6700	  891.00	  920.11	-1793.36	  400.99
     94.7700	  945.00	  929.48	-1748.73	  400.82
     94.8700	  914.00	  931.70	-1781.95	  400.66
     94.9700	  977.00	  925.86	-1713.11	  400.49
     95.0700	  915.00	  912.06	-1761.31	  400.32
     95.1700	  881.00	  891.40	-1774.65	  400.15
     95.2700	  835.00	  865.61	-1794.86	  399.98
     95.3700	  780.00	  836.78	-1821.03	  399.81
     95.4700	  828.00	  807.01	-1743.26	  399.64
     95.5700	  719.00	  778.30	-1823.55	  399.47
     95.6700	  721.00	  752.48	-1795.73	  399.29
     95.7700	  711.00	  731.21	-1784.46	  399.11
     95.8700	  703.00	  715.93	-1777.18	  398.94
     95.9700	  703.00	  707.91	-1769.16	  398.76
     96.0700	  664.00	  708.26	-1808.51	  398.58
     96.1700	  703.00	  717.91	-1779.16	  398.40
     96.2700	  737.00	  737.58	-1764.83	  398.21
     96.3700	  732.00	  767.75	-1800.00	  398.03
     96.4700	  797.00	  808.54	-1775.79	  397.85
     96.5700	  833.00	  859.66	-1790.91	  397.66
     96.6700	  865.00	  920.31	-1819.56	  397.47
     96.7700	  942.00	  988.99	-1811.24	  397.28
     96.8700	 1022.00	 1063.54	-1805.79	  397.10
     96.9700	 1069.00	 1141.04	-1836.29	  396.90
     97.0700	 1207.00	 1217.94	-1775.19	  396.71
     97.1700	 1228.00	 1290.06	-1826.31	  396.52
     97.2700	 1405.00	 1352.86	-1712.11	  396.33
     97.3700	 1421.00	 1401.77	-1745.02	  396.13
     97.4700	 1405.00	 1432.87	-1792.12	  395.93
     97.5700	 1438.00	 1443.55	-1769.80	  395.74
     97.6700	 1476.00	 1433.16	-1721.41	  395.54
     97.7700	 1475.00	 1403.11	-1692.36	  395.34
     97.8700	 1324.00	 1356.45	-1796.70	  395.14
     97.9700	 1265.00	 1297.31	-1796.56	  394.94
     98.0700	 1234.00	 1230.09	-1760.34	  394.74
     98.1700	 1127.00	 1159.12	-1796.37	  394.53
     98.2700	 1137.00	 1088.42	-1715.67	  394.33
     98.3700	 1022.00	 1021.46	-1763.71	  394.12
     98.4700	  898.00	  961.16	-1827.41	  393.92
     98.5700	  894.00	  909.81	-1780.06	  393.71
     98.6700	  895.00	  869.20	-1738.45	  393.50
     98.7700	  799.00	  840.63	-1805.88	  393.29
     98.8700	  832.00	  825.04	-1757.29	  393.08
     98.9700	  795.00	  823.05	-1792.30	  392.87
     99.0700	  780.00	  835.04	-1819.29	  392.66
     99.1700	  876.00	  861.20	-1749.45	  392.44
     99.2700	  838.00	  901.55	-1827.80	  392.23
     99.3700	  945.00	  955.87	-1775.12	  392.01
     99.4700	  965.00	 1023.66	-1822.91	  391.80
     99.5700	 1178.00	 1104.03	-1690.28	  391.58
     99.6700	 1139.00	 1195.62	-1820.88	  391.36
     99.7700	 1234.00	 1296.55	-1826.80	  391.15
     99.8700	 1392.00	 1404.23	-1776.48	  390.93
     99.9700	 1462.00	 1515.35	-1817.60	  390.71
    100.0700	 1697.00	 1625.96	-1693.21	  390.49
    100.1700	 1756.00	 1731.62	-1739.87	  390.26
    100.2700	 1829.00	 1827.85	-1763.10	  390.04
    100.3700	 1975.00	 1910.60	-1699.85	  389.82
    100.4700	 1978.00	 1976.60	-1762.85	  389.60
    100.5700	 2037.00	 2023.59	-1750.84	  389.37
    100.6700	 2067.00	 2050.11	-1747.36	  389.15
    100.7700	 2172.00	 2055.28	-1647.53	  388.92
    100.8700	 2086.00	 2038.85	-1717.10	  388.69
    100.9700	 2091.00	 2001.30	-1674.55	  388.47
    101.0700	 2024.00	 1944.32	-1684.57	  388.24
    101.1700	 1928.00	 1870.97	-1707.22	  388.01
    101.2700	 1780.00	 1785.51	-1769.76	  387.78
    101.3700	 1651.00	 1692.96	-1806.21	  387.55
    101.4700	 1592.00	 1598.39	-1770.64	  387.32
    101.5700	 1540.00	 1506.45	-1730.70	  387.09
    101.6700	 1439.00	 1420.95	-1746.20	  386.86
    101.7700	 1399.00	 1344.69	-1709.94	  386.63
    101.8700	 1260.00	 1279.39	-1783.64	  386.39
    101.9700	 1234.00	 1225.69	-1755.94	  386.16
    102.0700	 1196.00	 1183.21	-1751.46	  385.93
    102.1700	 1075.00	 1150.65	-1839.90	  385.69
    102.2700	 1125.00	 1125.94	-1765.19	  385.46
    102.3700	 1185.00	 1106.54	-1685.79	  385.22
    102.4700	 1089.00	 1089.65	-1764.90	  384.99
    102.5700	 1042.00	 1072.58	-1794.83	  384.75
    102.6700	 1061.00	 1053.09	-1756.34	  384.52
    102.7700	 1031.00	 1029.69	-1762.94	  384.28
    102.8700	  952.00	 1001.75	-1814.00	  384.04
    102.9700	  950.00	  969.45	-1783.70	  383.80
    103.0700	  902.00	  933.56	-1795.81	  383.57
    103.1700	  864.00	  895.20	-1795.45	  383.33
    103.2700	  777.00	  855.63	-1842.88	  383.09
    103.3700	  810.00	  816.10	-1770.35	  382.85
    103.4700	  779.00	  777.78	-1763.03	  382.61
    103.5700	  767.00	  741.62	-1738.87	  382.37
    103.6700	  709.00	  708.40	-1763.65	  382.13
    103.7700	  718.00	  678.66	-1724.91	  381.89
    103.8700	  673.00	  652.67	-1743.92	  381.65
    103.9700	  617.00	  630.54	-1777.79	  381.41
    104.0700	  601.00	  612.17	-1775.42	  381.17
    104.1700	  578.00	  597.31	-1783.56	  380.93
    104.2700	  564.00	  585.66	-1785.91	  380.69
    104.3700	  605.00	  576.82	-1736.07	  380.45
    104.4700	  549.00	  570.40	-1785.65	  380.21
    104.5700	  552.00	  566.01	-1778.26	  379.97
    104.6700	  513.00	  563.29	-1814.54	  379.73
    104.7700	  523.00	  561.91	-1803.16	  379.49
    104.8700	  591.00	  561.59	-1734.84	  379.25
    104.9700	  542.00	  562.10	-1784.35	  379.01
    105.0700	  534.00	  563.26	-1793.51	  378.77
    105.1700	  552.00	  564.91	-1777.16	  378.53
    105.2700	  575.00	  566.93	-1756.18	  378.29
    105.3700	  555.00	  569.29	-1778.54	  378.05
    105.4700	  552.00	  571.94	-1784.19	  377.81
    105.5700	  559.00	  574.92	-1780.17	  377.57
    105.6700	  563.00	  578.27	-1779.52	  377.33
    105.7700	  550.00	  582.11	-1796.36	  377.09
    105.8700	  556.00	  586.55	-1794.80	  376.85
    105.9700	  571.00	  591.72	-1784.97	  376.61
    106.0700	  533.00	  597.70	-1828.95	  376.37
    106.1700	  627.00	  604.56	-1741.81	  376.13
    106.2700	  578.00	  612.29	-1798.54	  375.89
    106.3700	  667.00	  620.83	-1718.08	  375.65
    106.4700	  659.00	  630.02	-1735.27	  375.42
    106.5700	  581.00	  639.65	-1822.90	  375.18
    106.6700	  626.00	  649.43	-1787.68	  374.94
    106.7700	  644.00	  659.01	-1779.26	  374.70
    106.8700	  645.00	  668.01	-1787.26	  374.47
    106.9700	  688.00	  676.02	-1752.27	  374.23
    107.0700	  633.00	  682.66	-1813.91	  374.00
    107.1700	  704.00	  687.62	-1747.87	  373.76
    107.2700	  670.00	  690.71	-1784.96	  373.53
    107.3700	  680.00	  691.93	-1776.18	  373.29
    107.4700	  654.00	  691.44	-1801.69	  373.06
    107.5700	  669.00	  689.56	-1784.81	  372.83
    107.6700	  686.00	  686.72	-1764.97	  372.60
    107.7700	  683.00	  683.36	-1764.61	  372.36
    107.8700	  611.00	  679.92	-1833.17	  372.13
    107.9700	  695.00	  676.78	-1746.03	  371.90
    108.0700	  618.00	  674.22	-1820.47	  371.67
    108.1700	  625.00	  672.41	-1811.66	  371.45
    108.2700	  691.00	  671.41	-1744.66	  371.22
    108.3700	  640.00	  671.16	-1795.41	  370.99
    108.4700	  642.00	  671.49	-1793.74	  370.77
    108.5700	  710.00	  672.14	-1726.39	  370.54
    108.6700	  688.00	  672.78	-1749.03	  370.32
    108.7700	  664.00	  673.02	-1773.27	  370.09
    108.8700	  679.00	  672.47	-1757.72	  369.87
    108.9700	  677.00	  670.83	-1758.08	  369.65
    109.0700	  696.00	  667.85	-1736.10	  369.43
    109.1700	  699.00	  663.42	-1728.67	  369.21
    109.2700	  658.00	  657.58	-1763.83	  368.99
    109.3700	  641.00	  650.47	-1773.72	  368.77
    109.4700	  654.00	  642.34	-1752.59	  368.55
    109.5700	  640.00	  633.46	-1757.71	  368.34
    109.6700	  631.00	  624.15	-1757.40	  368.13
    109.7700	  609.00	  614.71	-1769.96	  367.91
    109.8700	  613.00	  605.42	-1756.67	  367.70
    109.9700	  586.00	  596.52	-1774.77	  367.49
    110.0700	  590.00	  588.23	-1762.48	  367.28
    110.1700	  636.00	  580.70	-1708.95	  367.07
    110.2700	  555.00	  574.03	-1783.28	  366.87
    110.3700	  584.00	  568.29	-1748.54	  366.66
    110.4700	  565.00	  563.49	-1762.74	  366.46
    110.5700	  573.00	  559.62	-1750.87	  366.25
    110.6700	  566.00	  556.62	-1754.87	  366.05
    110.7700	  534.00	  554.44	-1784.69	  365.85
    110.8700	  521.00	  552.98	-1796.23	  365.65
    110.9700	  548.00	  552.17	-1768.42	  365.46
    111.0700	  572.00	  551.92	-1744.17	  365.26
    111.1700	  541.00	  552.16	-1775.41	  365.07
    111.2700	  527.00	  552.81	-1790.06	  364.88
    111.3700	  527.00	  553.82	-1791.07	  364.69
    111.4700	  536.00	  555.14	-1783.39	  364.50
    111.5700	  560.00	  556.73	-1760.98	  364.31
    111.6700	  579.00	  558.56	-1743.81	  364.12
    111.7700	  564.00	  560.61	-1760.86	  363.94
    111.8700	  551.00	  562.87	-1776.12	  363.76
    111.9700	  593.00	  565.35	-1736.60	  363.58
    112.0700	  590.00	  568.04	-1742.29	  363.40
    112.1700	  589.00	  570.96	-1746.21	  363.23
    112.2700	  593.00	  574.13	-1745.38	  363.05
    112.3700	  570.00	  577.57	-1771.82	  362.88
    112.4700	  562.00	  581.33	-1783.58	  362.71
    112.5700	  595.00	  585.46	-1754.71	  362.54
    112.6700	  608.00	  590.02	-1746.27	  362.37
    112.7700	  652.00	  595.10	-1707.35	  362.21
    112.8700	  657.00	  600.81	-1708.06	  362.05
    112.9700	  686.00	  607.29	-1685.54	  361.89
    113.0700	  662.00	  614.75	-1717.00	  361.73
    113.1700	  706.00	  623.44	-1681.69	  361.57
    113.2700	  749.00	  633.67	-1648.92	  361.42
    113.3700	  785.00	  645.86	-1625.10	  361.27
    113.4700	  816.00	  660.52	-1608.77	  361.12
    113.5700	  810.00	  678.32	-1632.57	  360.98
    113.6700	  893.00	  700.05	-1571.30	  360.83
    113.7700	  885.00	  726.69	-1605.94	  360.69
    113.8700	  950.00	  759.43	-1573.68	  360.55
    113.9700	 1006.00	  799.64	-1557.89	  360.42
    114.0700	 1039.00	  848.93	-1574.18	  360.28
    114.1700	 1110.00	  909.11	-1563.36	  360.15
    114.2700	 1240.00	  982.20	-1506.45	  360.02
    114.3700	 1200.00	 1070.39	-1634.64	  359.89
    114.4700	 1347.00	 1175.98	-1593.23	  359.77
    114.5700	 1503.00	 1301.33	-1562.58	  359.65
    114.6700	 1573.00	 1448.74	-1639.99	  359.53
    114.7700	 1729.00	 1620.30	-1655.55	  359.42
    114.8700	 1928.00	 1817.89	-1654.14	  359.31
    114.9700	 2188.00	 2042.81	-1619.06	  359.20
    115.0700	 2277.00	 2295.89	-1783.14	  359.09
    115.1700	 2637.00	 2577.09	-1704.34	  358.99
    115.2700	 2939.00	 2885.42	-1710.67	  358.88
    115.3700	 3250.00	 3219.00	-1733.25	  358.79
    115.4700	 3437.00	 3574.61	-1901.86	  358.69
    115.5700	 3783.00	 3948.04	-1929.29	  358.60
    115.6700	 4199.00	 4333.67	-1898.92	  358.51
    115.7700	 4437.00	 4724.67	-2051.92	  358.43
    115.8700	 4741.00	 5113.18	-2136.43	  358.34
    115.9700	 5231.00	 5490.04	-2023.29	  358.27
    116.0700	 5640.00	 5845.42	-1969.67	  358.19
    116.1700	 5902.00	 6168.64	-2030.89	  358.12
    116.2700	 6413.00	 6448.87	-1800.12	  358.05
    116.3700	 6612.00	 6675.72	-1827.97	  357.98
    116.4700	 6676.00	 6839.89	-1928.14	  357.92
    116.5700	 7025.00	 6934.25	-1673.50	  357.86
    116.6700	 7057.00	 6954.53	-1661.78	  357.81
    116.7700	 6895.00	 6899.98	-1769.23	  357.76
    116.8700	 6985.00	 6773.43	-1552.68	  357.71
    116.9700	 6810.00	 6580.94	-1535.19	  357.66
    117.0700	 6274.00	 6330.96	-1821.21	  357.62
    117.1700	 6126.00	 6033.51	-1671.76	  357.59
    117.2700	 5552.00	 5699.35	-1911.60	  357.55
    117.3700	 5438.00	 5339.06	-1665.31	  357.53
    117.4700	 4929.00	 4962.91	-1798.16	  357.50
    117.5700	 4665.00	 4580.12	-1679.37	  357.48
    117.6700	 4219.00	 4199.02	-1744.27	  357.46
    117.7700	 3950.00	 3826.81	-1641.06	  357.45
    117.8700	 3669.00	 3469.26	-1564.51	  357.44
    117.9700	 3304.00	 3131.14	-1591.39	  357.43
    118.0700	 2932.00	 2815.80	-1648.05	  357.43
    118.1700	 2624.00	 2525.61	-1665.86	  357.43
    118.2700	 2198.00	 2261.86	-1828.11	  357.44
    118.3700	 1968.00	 2024.85	-1821.10	  357.45
    118.4700	 1667.00	 1814.24	-1911.49	  357.47
    118.5700	 1524.00	 1628.95	-1869.20	  357.49
    118.6700	 1375.00	 1467.50	-1856.75	  357.51
    118.7700	 1312.00	 1328.09	-1780.34	  357.54
    118.8700	 1140.00	 1208.62	-1832.87	  357.57
    118.9700	  992.00	 1107.01	-1879.26	  357.61
    119.0700	  973.00	 1021.09	-1812.34	  357.65
    119.1700	  927.00	  948.81	-1786.06	  357.70
    119.2700	  778.00	  888.28	-1874.53	  357.75
    119.3700	  775.00	  837.71	-1826.96	  357.81
    119.4700	  744.00	  795.57	-1815.82	  357.87
    119.5700	  690.00	  760.48	-1834.73	  357.93
    119.6700	  691.00	  731.26	-1804.51	  358.00
    119.7700	  614.00	  706.92	-1857.17	  358.08
    119.8700	  633.00	  686.62	-1817.87	  358.16
    119.9700	  560.00	  669.67	-1873.92	  358.24
    120.0700	  599.00	  655.49	-1820.74	  358.34
    120.1700	  588.00	  643.63	-1819.88	  358.43
    120.2700	  566.00	  633.71	-1831.96	  358.53
    120.3700	  594.00	  625.42	-1795.67	  358.64
    120.4700	  635.00	  618.53	-1747.78	  358.75
    120.5700	  578.00	  612.85	-1799.10	  358.86
    120.6700	  568.00	  608.22	-1804.47	  358.98
    120.7700	  573.00	  604.53	-1795.78	  359.11
    120.8700	  560.00	  601.68	-1805.93	  359.24
    120.9700	  604.00	  599.60	-1759.85	  359.38
    121.0700	  565.00	  598.24	-1797.49	  359.52
    121.1700	  549.00	  597.54	-1812.79	  359.67
    121.2700	  576.00	  597.46	-1785.71	  359.83
    121.3700	  544.00	  597.95	-1818.20	  359.99
    121.4700	  533.00	  598.98	-1830.23	  360.15
    121.5700	  589.00	  600.49	-1775.74	  360.32
    121.6700	  579.00	  602.44	-1787.69	  360.50
    121.7700	  588.00	  604.74	-1780.99	  360.68
    121.8700	  628.00	  607.36	-1743.61	  360.87
    121.9700	  580.00	  610.20	-1794.45	  361.07
    122.0700	  609.00	  613.18	-1768.43	  361.27
    122.1700	  590.00	  616.21	-1790.46	  361.47
    122.2700	  626.00	  619.19	-1757.44	  361.69
    122.3700	  646.00	  622.01	-1740.26	  361.91
    122.4700	  621.00	  624.58	-1767.83	  362.13
    122.5700	  648.00	  626.79	-1743.04	  362.36
    122.6700	  605.00	  628.55	-1787.80	  362.60
    122.7700	  632.00	  629.80	-1762.05	  362.85
    122.8700	  692.00	  630.47	-1702.72	  363.10
    122.9700	  618.00	  630.54	-1776.79	  363.35
    123.0700	  695.00	  630.01	-1699.26	  363.62
    123.1700	  687.00	  628.89	-1706.14	  363.89
    123.2700	  691.00	  627.23	-1700.48	  364.17
    123.3700	  602.00	  625.07	-1787.32	  364.45
    123.4700	  672.00	  622.50	-1714.75	  364.74
    123.5700	  607.00	  619.57	-1776.82	  365.04
    123.6700	  666.00	  616.36	-1714.61	  365.34
    123.7700	  634.00	  612.95	-1743.20	  365.65
    123.8700	  603.00	  609.40	-1770.65	  365.97
    123.9700	  653.00	  605.78	-1717.03	  366.30
    124.0700	  592.00	  602.16	-1774.41	  366.63
    124.1700	  623.00	  598.58	-1739.83	  366.97
    124.2700	  636.00	  595.09	-1723.34	  367.31
    124.3700	  633.00	  591.73	-1722.98	  367.67
    124.4700	  583.00	  588.53	-1769.78	  368.03
    124.5700	  609.00	  585.51	-1740.76	  368.40
    124.6700	  633.00	  582.70	-1713.95	  368.77
    124.7700	  601.00	  580.11	-1743.36	  369.16
    124.8700	  541.00	  577.74	-1800.99	  369.55
    124.9700	  626.00	  489.09	-1627.34	  369.95
    125.0700	  545.00	  489.50	-1764.25	  370.35
    125.1700	  590.00	  489.91	-1764.25	  370.77
    125.2700	  553.00	  490.33	-1764.25	  371.19
    125.3700	  583.00	  490.76	-1764.25	  371.62
    125.4700	  608.00	  491.20	-1764.25	  372.05
    125.5700	  561.00	  491.64	-1764.25	  372.50
    125.6700	  521.00	  492.10	-1764.25	  372.95
    125.7700	  540.00	  492.56	-1764.25	  373.41
    125.8700	  547.00	  493.03	-1764.25	  373.88
    125.9700	  584.00	  493.51	-1764.25	  374.36
    126.0700	  593.00	  493.99	-1764.25	  374.85
    126.1700	  605.00	  494.49	-1764.25	  375.34
    126.2700	  599.00	  494.99	-1764.25	  375.85
    126.3700	  607.00	  495.50	-1764.25	  376.36
    126.4700	  613.00	  496.02	-1764.25	  376.88
    126.5700	  589.00	  496.55	-1764.25	  377.40
    126.6700	  606.00	  497.08	-1764.25	  377.94
    126.7700	  621.00	  497.63	-1764.25	  378.49
    126.8700	  634.00	  498.18	-1764.25	  379.04
    126.9700	  662.00	  498.75	-1764.25	  379.60
    127.0700	  672.00	  499.32	-1764.25	  380.18
    127.1700	  601.00	  499.90	-1764.25	  380.76
    127.2700	  696.00	  500.49	-1764.25	  381.35
    127.3700	  674.00	  501.09	-1764.25	  381.95
    127.4700	  654.00	  501.70	-1764.25	  382.55
    127.5700	  665.00	  502.31	-1764.25	  383.17
    127.6700	  678.00	  502.94	-1764.25	  383.80
    127.7700	  670.00	  503.58	-1764.25	  384.43
    127.8700	  672.00	  504.22	-1764.25	  385.08
    127.9700	  753.00	  504.88	-1764.25	  385.73
    128.0700	  729.00	  505.54	-1764.25	  386.40
    128.1700	  756.00	  506.21	-1764.25	  387.07
    128.2700	  814.00	  506.90	-1764.25	  387.75
    128.3700	  810.00	  507.59	-1764.25	  388.45
    128.4700	  811.00	  508.29	-1764.25	  389.15
    128.5700	    0.00	  509.01	-1764.25	  389.86
    128.6700	    0.00	  509.73	-1764.25	  390.59
     12.3099	        	        	        	        	       0	(  0  0  2)	  0  1
     24.8931	        	        	        	        	       0	(  0  0  4)	  0  1
     28.3327	        	        	        	        	       0	(  1  0  0)	  0  1
     29.0300	        	        	        	        	       0	(  1  0  1)	  0  1
     31.0363	        	        	        	        	       0	(  1  0  2)	  0  1
     34.1448	        	        	        	        	       0	(  1  0  3)	  0  1
     37.7923	        	        	        	        	       0	(  0  0  6)	  0  1
     38.1220	        	        	        	        	       0	(  1  0  4)	  0  1
     42.7722	        	        	        	        	       0	(  1  0  5)	  0  1
     47.9563	        	        	        	        	       0	(  1  0  6)	  0  1
     50.2678	        	        	        	        	       0	(  1  1  0)	  0  1
     51.2137	        	        	        	        	       0	(  0  0  8)	  0  1
     51.9909	        	        	        	        	       0	(  1  1  2)	  0  1
     53.5868	        	        	        	        	       0	(  1  0  7)	  0  1
     56.9390	        	        	        	        	       0	(  1  1  4)	  0  1
     58.7640	        	        	        	        	       0	(  2  0  0)	  0  1
     59.1556	        	        	        	        	       0	(  2  0  1)	  0  1
     59.6171	        	        	        	        	       0	(  1  0  8)	  0  1
     60.3210	        	        	        	        	       0	(  2  0  2)	  0  1
     62.2343	        	        	        	        	       0	(  2  0  3)	  0  1
     64.6338	        	        	        	        	       0	(  1  1  6)	  0  1
     64.8584	        	        	        	        	       0	(  2  0  4)	  0  1
     65.4422	        	        	        	        	       0	(  0  0 10)	  0  1
     66.0332	        	        	        	        	       0	(  1  0  9)	  0  1
     68.1527	        	        	        	        	       0	(  2  0  5)	  0  1
     72.0802	        	        	        	        	       0	(  2  0  6)	  0  1
     72.8491	        	        	        	        	       0	(  1  0 10)	  0  1
     74.6714	        	        	        	        	       0	(  1  1  8)	  0  1
     76.6143	        	        	        	        	       0	(  2  0  7)	  0  1
     80.1065	        	        	        	        	       0	(  1  0 11)	  0  1
     80.9218	        	        	        	        	       0	(  0  0 12)	  0  1
     81.0027	        	        	        	        	       0	(  2  1  0)	  0  1
     81.3426	        	        	        	        	       0	(  2  1  1)	  0  1
     81.7445	        	        	        	        	       0	(  2  0  8)	  0  1
     82.3604	        	        	        	        	       0	(  2  1  2)	  0  1
     84.0517	        	        	        	        	       0	(  2  1  3)	  0  1
     86.4113	        	        	        	        	       0	(  2  1  4)	  0  1
     86.9424	        	        	        	        	       0	(  1  1 10)	  0  1
     87.4824	        	        	        	        	       0	(  2  0  9)	  0  1
     87.8803	        	        	        	        	       0	(  1  0 12)	  0  1
     89.4371	        	        	        	        	       0	(  2  1  5)	  0  1
     93.1343	        	        	        	        	       0	(  2  1  6)	  0  1
     93.8695	        	        	        	        	       0	(  2  0 10)	  0  1
     94.8896	        	        	        	        	       0	(  3  0  0)	  0  1
     95.2269	        	        	        	        	       0	(  3  0  1)	  0  1
     96.2401	        	        	        	        	       0	(  3  0  2)	  0  1
     96.2930	        	        	        	        	       0	(  1  0 13)	  0  1
     97.5227	        	        	        	        	       0	(  2  1  7)	  0  1
     97.9333	        	        	        	        	       0	(  3  0  3)	  0  1
     98.4600	        	        	        	        	       0	(  0  0 14)	  0  1
    100.3162	        	        	        	        	       0	(  3  0  4)	  0  1
    100.9909	        	        	        	        	       0	(  2  0 11)	  0  1
    101.8119	        	        	        	        	       0	(  1  1 12)	  0  1
    102.6448	        	        	        	        	       0	(  2  1  8)	  0  1
    103.4076	        	        	        	        	       0	(  3  0  5)	  0  1
    105.5451	        	        	        	        	       0	(  1  0 14)	  0  1
    107.2423	        	        	        	        	       0	(  3  0  6)	  0  1
    108.5811	        	        	        	        	       0	(  2  1  9)	  0  1
    109.0015	        	        	        	        	       0	(  2  0 12)	  0  1
    111.8821	        	        	        	        	       0	(  3  0  7)	  0  1
    115.4772	        	        	        	        	       0	(  2  1 10)	  0  1
    115.9877	        	        	        	        	       0	(  1  0 15)	  0  1
    116.6103	        	        	        	        	       0	(  2  2  0)	  0  1
    117.4348	        	        	        	        	       0	(  3  0  8)	  0  1
    118.1253	        	        	        	        	       0	(  2  2  2)	  0  1
    118.1850	        	        	        	        	       0	(  2  0 13)	  0  1
    119.9470	        	        	        	        	       0	(  0  0 16)	  0  1
    120.6546	        	        	        	        	       0	(  1  1 14)	  0  1
    122.8099	        	        	        	        	       0	(  2  2  4)	  0  1
    123.6032	        	        	        	        	       0	(  2  1 11)	  0  1
    124.0937	        	        	        	        	       0	(  3  0  9)	  0  1
    124.6733	        	        	        	        	       0	(  3  1  0)	  0  1
    125.0835	        	        	        	        	       0	(  3  1  1)	  0  1
    126.3266	        	        	        	        	       0	(  3  1  2)	  0  1
    128.3305	        	        	        	        	       0	(  1  0 16)	  0  1
    128.4443	        	        	        	        	       0	(  3  1  3)	  0  1
    129.1139	        	        	        	        	       0	(  2  0 14)	  0  1
    131.2477	        	        	        	        	       0	(  2  2  6)	  0  1
    131.5193	        	        	        	        	       0	(  3  1  4)	  0  1
    132.2329	        	        	        	        	       0	(  3  0 10)	  0  1
    133.5140	        	        	        	        	       0	(  2  1 12)	  0  1
    135.7050	        	        	        	        	       0	(  3  1  5)	  0  1
    141.2982	        	        	        	        	       0	(  3  1  6)	  0  1
    142.7092	        	        	        	        	       0	(  3  0 11)	  0  1
    143.2536	        	        	        	        	       0	(  2  0 15)	  0  1
    144.5018	        	        	        	        	       0	(  1  0 17)	  0  1
    145.4767	        	        	        	        	       0	(  2  2  8)	  0  1
    146.6680	        	        	        	        	       0	(  2  1 13)	  0  1
    148.9674	        	        	        	        	       0	(  3  1  7)	  0  1
    149.5917	        	        	        	        	       0	(  1  1 16)	  0  1
    154.0067	        	        	        	        	       0	(  0  0 18)	  0  1
    158.5838	        	        	        	        	       0	(  3  0 12)	  0  1
    158.8050	        	        	        	        	       0	(  4  0  0)	  0  1
    159.7602	        	        	        	        	       0	(  4  0  1)	  0  1
    160.9503	        	        	        	        	       0	(  3  1  8)	  0  1
    162.9319	        	        	        	        	       0	(  4  0  2)	  0  1
    169.7270	        	        	        	        	       0	(  2  0 16)	  0  1
    170.2455	        	        	        	        	       0	(  4  0  3)	  0  1
    174.1453	        	        	        	        	       0	(  2  1 14)	  0  1
