MSG Master    CELL:    5.91890   5.91890  23.26914   90.0000   90.0000  120.0000   SPGR: P 63/m m c             TEMP:   1061.75
  1   1280     2.52000     0.00000    -0.12619     0.00000     0.00000    0
    99     0     2
       0.00000      10.00000
     125.00000     130.00000
 2Theta	Yobs	Ycal	Yobs-Ycal	Backg	Posr	(hkl)	K
      0.7700	    0.00	  544.79	-1774.25	  426.00
      0.8700	    0.00	  545.50	-1774.25	  426.71
      0.9700	   45.00	  546.19	-1774.25	  427.41
      1.0700	   38.00	  546.88	-1774.25	  428.10
      1.1700	   49.00	  547.56	-1774.25	  428.78
      1.2700	   44.00	  548.23	-1774.25	  429.44
      1.3700	   44.00	  548.89	-1774.25	  430.10
      1.4700	   99.00	  549.53	-1774.25	  430.75
      1.5700	  290.00	  550.17	-1774.25	  431.38
      1.6700	  445.00	  550.79	-1774.25	  432.01
      1.7700	  602.00	  551.41	-1774.25	  432.63
      1.8700	  619.00	  552.02	-1774.25	  433.23
      1.9700	  717.00	  552.61	-1774.25	  433.83
      2.0700	  743.00	  553.20	-1774.25	  434.41
      2.1700	  774.00	  553.78	-1774.25	  434.99
      2.2700	  721.00	  554.34	-1774.25	  435.56
      2.3700	  707.00	  554.90	-1774.25	  436.11
      2.4700	  718.00	  555.45	-1774.25	  436.66
      2.5700	  725.00	  555.98	-1774.25	  437.20
      2.6700	  632.00	  556.51	-1774.25	  437.73
      2.7700	  636.00	  557.03	-1774.25	  438.24
      2.8700	  619.00	  557.54	-1774.25	  438.75
      2.9700	  613.00	  558.04	-1774.25	  439.25
      3.0700	  584.00	  558.53	-1774.25	  439.74
      3.1700	  556.00	  559.01	-1774.25	  440.23
      3.2700	  634.00	  559.48	-1774.25	  440.70
      3.3700	  701.00	  559.95	-1774.25	  441.16
      3.4700	  748.00	  560.40	-1774.25	  441.62
      3.5700	  804.00	  560.85	-1774.25	  442.06
      3.6700	  850.00	  561.28	-1774.25	  442.50
      3.7700	  919.00	  561.71	-1774.25	  442.93
      3.8700	  925.00	  562.13	-1774.25	  443.35
      3.9700	  991.00	  562.54	-1774.25	  443.76
      4.0700	 1040.00	  562.94	-1774.25	  444.16
      4.1700	 1037.00	  563.34	-1774.25	  444.55
      4.2700	 1064.00	  563.72	-1774.25	  444.94
      4.3700	 1117.00	  564.10	-1774.25	  445.31
      4.4700	 1091.00	  564.47	-1774.25	  445.68
      4.5700	 1031.00	  564.83	-1774.25	  446.04
      4.6700	 1066.00	  565.18	-1774.25	  446.39
      4.7700	  957.00	  565.52	-1774.25	  446.74
      4.8700	 1003.00	  565.86	-1774.25	  447.07
      4.9700	  927.00	  566.19	-1774.25	  447.40
      5.0700	  941.00	  566.51	-1774.25	  447.72
      5.1700	  940.00	  566.82	-1774.25	  448.03
      5.2700	  900.00	  567.12	-1774.25	  448.33
      5.3700	  910.00	  567.42	-1774.25	  448.63
      5.4700	  876.00	  567.71	-1774.25	  448.92
      5.5700	  875.00	  567.99	-1774.25	  449.20
      5.6700	  836.00	  568.26	-1774.25	  449.47
      5.7700	  824.00	  568.52	-1774.25	  449.74
      5.8700	  844.00	  568.78	-1774.25	  450.00
      5.9700	  798.00	  569.03	-1774.25	  450.25
      6.0700	  796.00	  569.28	-1774.25	  450.49
      6.1700	  774.00	  569.51	-1774.25	  450.73
      6.2700	  800.00	  569.74	-1774.25	  450.96
      6.3700	  721.00	  569.96	-1774.25	  451.18
      6.4700	  779.00	  570.18	-1774.25	  451.39
      6.5700	  768.00	  570.39	-1774.25	  451.60
      6.6700	  756.00	  570.59	-1774.25	  451.80
      6.7700	  745.00	  570.78	-1774.25	  451.99
      6.8700	  736.00	  570.97	-1774.25	  452.18
      6.9700	  723.00	  571.15	-1774.25	  452.36
      7.0700	  706.00	  571.32	-1774.25	  452.53
      7.1700	  698.00	  571.49	-1774.25	  452.70
      7.2700	  711.00	  571.65	-1774.25	  452.86
      7.3700	  695.00	  571.80	-1774.25	  453.01
      7.4700	  685.00	  571.95	-1774.25	  453.16
      7.5700	  667.00	  572.09	-1774.25	  453.30
      7.6700	  658.00	  572.22	-1774.25	  453.43
      7.7700	  648.00	  572.35	-1774.25	  453.56
      7.8700	  684.00	  572.47	-1774.25	  453.68
      7.9700	  643.00	  572.58	-1774.25	  453.80
      8.0700	  622.00	  572.69	-1774.25	  453.91
      8.1700	  638.00	  572.79	-1774.25	  454.01
      8.2700	  689.00	  572.89	-1774.25	  454.11
      8.3700	  620.00	  572.98	-1774.25	  454.20
      8.4700	  596.00	  573.07	-1774.25	  454.28
      8.5700	  626.00	  573.14	-1774.25	  454.36
      8.6700	  618.00	  573.22	-1774.25	  454.43
      8.7700	  655.00	  573.28	-1774.25	  454.50
      8.8700	  672.00	  573.34	-1774.25	  454.56
      8.9700	  626.00	  573.40	-1774.25	  454.61
      9.0700	  619.00	  573.45	-1774.25	  454.66
      9.1700	  599.00	  573.49	-1774.25	  454.71
      9.2700	  618.00	  573.53	-1774.25	  454.75
      9.3700	  608.00	  573.56	-1774.25	  454.78
      9.4700	  634.00	  573.59	-1774.25	  454.81
      9.5700	  598.00	  573.61	-1774.25	  454.83
      9.6700	  604.00	  573.63	-1774.25	  454.84
      9.7700	  592.00	  573.64	-1774.25	  454.86
      9.8700	  598.00	  573.65	-1774.25	  454.86
      9.9700	  617.00	  573.65	-1774.25	  454.86
     10.0700	  579.00	  574.32	-1769.57	  454.86
     10.1700	  623.00	  574.38	-1725.63	  454.85
     10.2700	  593.00	  574.45	-1755.70	  454.83
     10.3700	  591.00	  574.54	-1757.79	  454.82
     10.4700	  576.00	  574.68	-1772.93	  454.79
     10.5700	  584.00	  574.91	-1765.16	  454.76
     10.6700	  584.00	  575.34	-1765.59	  454.73
     10.7700	  532.00	  576.07	-1818.32	  454.69
     10.8700	  586.00	  577.18	-1765.43	  454.64
     10.9700	  571.00	  578.66	-1781.91	  454.60
     11.0700	  620.00	  580.47	-1734.72	  454.54
     11.1700	  562.00	  582.59	-1794.84	  454.49
     11.2700	  597.00	  585.07	-1762.32	  454.42
     11.3700	  628.00	  587.97	-1734.22	  454.36
     11.4700	  597.00	  591.42	-1768.67	  454.29
     11.5700	  585.00	  595.61	-1784.86	  454.21
     11.6700	  632.00	  600.87	-1743.12	  454.13
     11.7700	  656.00	  607.79	-1726.04	  454.04
     11.8700	  659.00	  617.36	-1732.61	  453.96
     11.9700	  663.00	  630.49	-1741.74	  453.86
     12.0700	  646.00	  645.98	-1774.23	  453.77
     12.1700	  702.00	  657.55	-1729.80	  453.66
     12.2700	  660.00	  654.68	-1768.93	  453.56
     12.3700	  662.00	  633.86	-1746.11	  453.45
     12.4700	  583.00	  608.31	-1799.56	  453.34
     12.5700	  637.00	  590.10	-1727.35	  453.22
     12.6700	  570.00	  580.74	-1784.99	  453.10
     12.7700	  568.00	  576.78	-1783.03	  452.97
     12.8700	  599.00	  575.08	-1750.33	  452.84
     12.9700	  588.00	  574.15	-1760.40	  452.71
     13.0700	  537.00	  573.50	-1810.75	  452.57
     13.1700	  517.00	  572.99	-1830.24	  452.43
     13.2700	  570.00	  572.58	-1776.83	  452.29
     13.3700	  562.00	  572.22	-1784.47	  452.14
     13.4700	  548.00	  571.90	-1798.15	  451.99
     13.5700	  555.00	  571.62	-1790.87	  451.84
     13.6700	  554.00	  571.36	-1791.61	  451.68
     13.7700	  563.00	  571.11	-1782.36	  451.52
     13.8700	  607.00	  570.87	-1738.12	  451.35
     13.9700	  569.00	  570.64	-1775.89	  451.18
     14.0700	  552.00	  570.42	-1792.67	  451.01
     14.1700	  600.00	  570.20	-1744.45	  450.84
     14.2700	  583.00	  569.98	-1761.23	  450.66
     14.3700	  577.00	  569.77	-1767.02	  450.48
     14.4700	  532.00	  569.55	-1811.80	  450.29
     14.5700	  583.00	  569.34	-1760.59	  450.10
     14.6700	  535.00	  569.13	-1808.38	  449.91
     14.7700	  569.00	  568.91	-1774.16	  449.72
     14.8700	  553.00	  568.70	-1789.95	  449.52
     14.9700	  550.00	  568.48	-1792.73	  449.32
     15.0700	  558.00	  568.27	-1784.52	  449.12
     15.1700	  538.00	  568.05	-1804.30	  448.92
     15.2700	  578.00	  567.83	-1764.08	  448.71
     15.3700	  529.00	  567.61	-1812.86	  448.50
     15.4700	  536.00	  567.38	-1805.63	  448.28
     15.5700	  560.00	  567.16	-1781.41	  448.07
     15.6700	  544.00	  566.93	-1797.18	  447.85
     15.7700	  555.00	  566.70	-1785.95	  447.62
     15.8700	  607.00	  566.47	-1733.72	  447.40
     15.9700	  533.00	  566.23	-1807.48	  447.17
     16.0700	  539.00	  566.00	-1801.25	  446.94
     16.1700	  559.00	  565.76	-1781.01	  446.71
     16.2700	  580.00	  565.52	-1759.77	  446.48
     16.3700	  568.00	  565.28	-1771.53	  446.24
     16.4700	  570.00	  565.06	-1769.31	  446.00
     16.5700	  534.00	  564.82	-1805.07	  445.76
     16.6700	  604.00	  564.57	-1734.82	  445.51
     16.7700	  573.00	  564.32	-1765.57	  445.27
     16.8700	  538.00	  564.07	-1800.32	  445.02
     16.9700	  529.00	  563.82	-1809.07	  444.77
     17.0700	  547.00	  563.56	-1790.81	  444.52
     17.1700	  516.00	  563.30	-1821.55	  444.26
     17.2700	  563.00	  563.05	-1774.30	  444.00
     17.3700	  547.00	  562.78	-1790.03	  443.74
     17.4700	  548.00	  562.52	-1788.77	  443.48
     17.5700	  570.00	  562.26	-1766.51	  443.22
     17.6700	  555.00	  561.99	-1781.24	  442.96
     17.7700	  578.00	  561.72	-1757.97	  442.69
     17.8700	  553.00	  561.45	-1782.70	  442.42
     17.9700	  586.00	  561.28	-1749.53	  442.15
     18.0700	  539.00	  561.01	-1796.26	  441.88
     18.1700	  569.00	  560.74	-1765.99	  441.60
     18.2700	  560.00	  560.46	-1774.71	  441.33
     18.3700	  556.00	  560.19	-1778.44	  441.05
     18.4700	  542.00	  559.91	-1792.16	  440.77
     18.5700	  531.00	  559.63	-1802.88	  440.49
     18.6700	  552.00	  559.35	-1781.60	  440.20
     18.7700	  533.00	  559.07	-1800.32	  439.92
     18.8700	  528.00	  558.79	-1805.04	  439.63
     18.9700	  534.00	  558.59	-1798.84	  439.35
     19.0700	  555.00	  558.30	-1777.55	  439.06
     19.1700	  559.00	  558.02	-1773.27	  438.77
     19.2700	  538.00	  557.73	-1793.98	  438.48
     19.3700	  545.00	  557.45	-1786.70	  438.18
     19.4700	  551.00	  557.16	-1780.41	  437.89
     19.5700	  574.00	  556.87	-1757.12	  437.59
     19.6700	  554.00	  556.58	-1776.83	  437.30
     19.7700	  549.00	  556.29	-1781.54	  437.00
     19.8700	  579.00	  556.00	-1751.25	  436.70
     19.9700	  552.00	  555.70	-1777.95	  436.40
     20.0700	  587.00	  555.41	-1742.66	  436.10
     20.1700	  549.00	  555.12	-1780.37	  435.79
     20.2700	  546.00	  554.82	-1783.07	  435.49
     20.3700	  575.00	  554.50	-1753.75	  435.18
     20.4700	  555.00	  554.21	-1773.46	  434.88
     20.5700	  546.00	  553.91	-1782.16	  434.57
     20.6700	  493.00	  553.61	-1834.86	  434.26
     20.7700	  579.00	  553.32	-1748.57	  433.95
     20.8700	  545.00	  553.02	-1782.27	  433.64
     20.9700	  500.00	  552.76	-1827.01	  433.33
     21.0700	  531.00	  552.46	-1795.71	  433.02
     21.1700	  554.00	  552.17	-1772.42	  432.71
     21.2700	  570.00	  551.87	-1756.12	  432.39
     21.3700	  530.00	  551.58	-1795.83	  432.08
     21.4700	  540.00	  551.28	-1785.53	  431.76
     21.5700	  587.00	  550.99	-1738.24	  431.45
     21.6700	  531.00	  550.70	-1793.95	  431.13
     21.7700	  564.00	  550.40	-1760.65	  430.81
     21.8700	  605.00	  550.11	-1719.36	  430.49
     21.9700	  487.00	  549.82	-1837.07	  430.17
     22.0700	  551.00	  549.53	-1772.78	  429.86
     22.1700	  586.00	  549.25	-1737.50	  429.54
     22.2700	  522.00	  548.96	-1801.21	  429.21
     22.3700	  589.00	  548.68	-1733.93	  428.89
     22.4700	  523.00	  548.41	-1799.66	  428.57
     22.5700	  541.00	  548.13	-1781.38	  428.25
     22.6700	  552.00	  547.86	-1770.11	  427.93
     22.7700	  544.00	  547.60	-1777.85	  427.61
     22.8700	  565.00	  547.35	-1756.60	  427.28
     22.9700	  552.00	  547.10	-1769.35	  426.96
     23.0700	  543.00	  546.87	-1778.12	  426.63
     23.1700	  548.00	  546.64	-1772.89	  426.31
     23.2700	  537.00	  546.44	-1783.69	  425.99
     23.3700	  546.00	  546.26	-1774.51	  425.66
     23.4700	  569.00	  546.11	-1751.36	  425.34
     23.5700	  518.00	  545.99	-1802.24	  425.01
     23.6700	  563.00	  545.94	-1757.19	  424.68
     23.7700	  592.00	  545.98	-1728.23	  424.36
     23.8700	  539.00	  546.21	-1781.46	  424.03
     23.9700	  512.00	  546.97	-1809.22	  423.71
     24.0700	  539.00	  548.43	-1783.68	  423.38
     24.1700	  568.00	  551.40	-1757.65	  423.05
     24.2700	  586.00	  556.76	-1745.01	  422.73
     24.3700	  542.00	  565.51	-1797.76	  422.40
     24.4700	  568.00	  578.86	-1785.11	  422.07
     24.5700	  601.00	  597.47	-1770.72	  421.75
     24.6700	  591.00	  618.80	-1802.05	  421.42
     24.7700	  610.00	  634.34	-1798.59	  421.10
     24.8700	  583.00	  632.04	-1823.29	  420.77
     24.9700	  597.00	  609.64	-1786.89	  420.44
     25.0700	  641.00	  581.99	-1715.24	  420.12
     25.1700	  588.00	  561.63	-1747.88	  419.79
     25.2700	  553.00	  550.63	-1771.88	  419.47
     25.3700	  539.00	  545.77	-1781.02	  419.14
     25.4700	  550.00	  543.67	-1767.92	  418.81
     25.5700	  536.00	  542.58	-1780.83	  418.49
     25.6700	  555.00	  541.87	-1761.12	  418.16
     25.7700	  509.00	  541.34	-1806.59	  417.84
     25.8700	  603.00	  540.93	-1712.18	  417.51
     25.9700	  550.00	  540.62	-1764.87	  417.19
     26.0700	  613.00	  540.40	-1701.65	  416.87
     26.1700	  568.00	  540.24	-1746.49	  416.54
     26.2700	  559.00	  540.15	-1755.40	  416.22
     26.3700	  533.00	  540.14	-1781.39	  415.90
     26.4700	  520.00	  540.20	-1794.45	  415.58
     26.5700	  583.00	  540.36	-1731.61	  415.25
     26.6700	  535.00	  540.62	-1779.87	  414.93
     26.7700	  577.00	  541.01	-1738.26	  414.61
     26.8700	  571.00	  541.57	-1744.82	  414.29
     26.9700	  561.00	  542.34	-1755.59	  413.97
     27.0700	  570.00	  543.40	-1747.65	  413.65
     27.1700	  539.00	  544.87	-1780.12	  413.33
     27.2700	  573.00	  547.00	-1748.25	  413.01
     27.3700	  586.00	  550.25	-1738.50	  412.69
     27.4700	  577.00	  555.54	-1752.79	  412.38
     27.5700	  577.00	  564.54	-1761.79	  412.06
     27.6700	  590.00	  579.84	-1764.09	  411.74
     27.7700	  561.00	  604.80	-1818.05	  411.43
     27.8700	  588.00	  642.33	-1828.58	  411.11
     27.9700	  641.00	  692.57	-1825.82	  410.80
     28.0700	  736.00	  749.83	-1788.08	  410.49
     28.1700	  881.00	  799.98	-1693.23	  410.17
     28.2700	  948.00	  821.75	-1648.00	  409.86
     28.3700	  940.00	  802.51	-1636.76	  409.55
     28.4700	  793.00	  762.44	-1743.69	  409.24
     28.5700	  672.00	  735.23	-1837.48	  408.93
     28.6700	  715.00	  736.51	-1795.76	  408.62
     28.7700	  754.00	  761.74	-1781.99	  408.31
     28.8700	  806.00	  791.29	-1759.54	  408.00
     28.9700	  765.00	  797.10	-1806.35	  407.70
     29.0700	  784.00	  760.90	-1751.15	  407.39
     29.1700	  699.00	  698.16	-1773.41	  407.09
     29.2700	  640.00	  638.08	-1772.33	  406.78
     29.3700	  612.00	  594.75	-1757.00	  406.48
     29.4700	  587.00	  568.66	-1755.91	  406.18
     29.5700	  640.00	  554.65	-1688.90	  405.88
     29.6700	  606.00	  547.30	-1715.55	  405.58
     29.7700	  599.00	  543.15	-1718.40	  405.28
     29.8700	  571.00	  540.57	-1743.82	  404.98
     29.9700	  547.00	  538.92	-1766.17	  404.68
     30.0700	  549.00	  538.05	-1763.30	  404.38
     30.1700	  530.00	  538.13	-1782.38	  404.09
     30.2700	  536.00	  539.66	-1777.91	  403.79
     30.3700	  560.00	  543.72	-1757.97	  403.50
     30.4700	  569.00	  551.92	-1757.17	  403.21
     30.5700	  570.00	  566.05	-1770.30	  402.92
     30.6700	  597.00	  586.72	-1763.97	  402.63
     30.7700	  595.00	  611.50	-1790.75	  402.34
     30.8700	  591.00	  633.40	-1816.65	  402.05
     30.9700	  587.00	  641.55	-1828.80	  401.76
     31.0700	  617.00	  628.26	-1785.51	  401.48
     31.1700	  565.00	  600.48	-1809.73	  401.19
     31.2700	  572.00	  572.49	-1774.74	  400.91
     31.3700	  548.00	  551.88	-1778.13	  400.63
     31.4700	  535.00	  539.46	-1778.71	  400.34
     31.5700	  549.00	  532.91	-1758.16	  400.06
     31.6700	  532.00	  529.59	-1771.84	  399.79
     31.7700	  541.00	  527.75	-1761.00	  399.51
     31.8700	  508.00	  526.60	-1792.85	  399.23
     31.9700	  540.00	  525.79	-1760.04	  398.96
     32.0700	  559.00	  525.21	-1740.46	  398.68
     32.1700	  559.00	  524.80	-1740.05	  398.41
     32.2700	  545.00	  524.55	-1753.80	  398.14
     32.3700	  552.00	  524.44	-1746.69	  397.87
     32.4700	  533.00	  524.48	-1765.73	  397.60
     32.5700	  528.00	  524.68	-1770.93	  397.33
     32.6700	  520.00	  525.06	-1779.31	  397.07
     32.7700	  595.00	  525.68	-1704.93	  396.80
     32.8700	  540.00	  526.58	-1760.83	  396.54
     32.9700	  558.00	  527.89	-1744.14	  396.27
     33.0700	  551.00	  529.79	-1753.04	  396.01
     33.1700	  535.00	  532.70	-1771.95	  395.75
     33.2700	  580.00	  537.62	-1731.87	  395.50
     33.3700	  577.00	  546.71	-1743.96	  395.24
     33.4700	  536.00	  564.38	-1802.63	  394.98
     33.5700	  614.00	  597.73	-1757.98	  394.73
     33.6700	  635.00	  655.37	-1794.62	  394.48
     33.7700	  780.00	  741.85	-1736.10	  394.23
     33.8700	  842.00	  848.60	-1780.85	  393.98
     33.9700	 1061.00	  947.31	-1660.56	  393.73
     34.0700	 1085.00	  993.30	-1682.55	  393.48
     34.1700	  995.00	  952.19	-1731.44	  393.24
     34.2700	  844.00	  844.97	-1775.22	  392.99
     34.3700	  776.00	  728.40	-1726.65	  392.75
     34.4700	  659.00	  638.40	-1753.65	  392.51
     34.5700	  603.00	  582.47	-1753.72	  392.27
     34.6700	  620.00	  552.77	-1707.02	  392.03
     34.7700	  546.00	  538.19	-1766.44	  391.79
     34.8700	  553.00	  530.72	-1751.97	  391.56
     34.9700	  513.00	  526.30	-1787.55	  391.32
     35.0700	  563.00	  523.24	-1734.49	  391.09
     35.1700	  513.00	  520.93	-1782.18	  390.86
     35.2700	  512.00	  519.11	-1781.36	  390.63
     35.3700	  549.00	  517.62	-1742.87	  390.41
     35.4700	  520.00	  516.40	-1770.65	  390.18
     35.5700	  522.00	  515.36	-1767.61	  389.95
     35.6700	  560.00	  514.46	-1728.71	  389.73
     35.7700	  514.00	  513.68	-1773.93	  389.51
     35.8700	  521.00	  512.99	-1766.24	  389.29
     35.9700	  496.00	  512.87	-1791.12	  389.07
     36.0700	  511.00	  512.32	-1775.57	  388.86
     36.1700	  523.00	  511.83	-1763.08	  388.64
     36.2700	  506.00	  511.39	-1779.64	  388.43
     36.3700	  509.00	  510.98	-1776.23	  388.22
     36.4700	  483.00	  510.61	-1801.86	  388.01
     36.5700	  505.00	  510.28	-1779.53	  387.80
     36.6700	  536.00	  509.98	-1748.23	  387.59
     36.7700	  534.00	  509.73	-1749.98	  387.39
     36.8700	  544.00	  509.53	-1739.78	  387.18
     36.9700	  528.00	  509.43	-1755.68	  386.98
     37.0700	  514.00	  509.54	-1769.79	  386.78
     37.1700	  544.00	  510.08	-1740.33	  386.58
     37.2700	  539.00	  511.42	-1746.67	  386.38
     37.3700	  527.00	  513.94	-1761.19	  386.19
     37.4700	  516.00	  517.76	-1776.01	  386.00
     37.5700	  503.00	  522.32	-1793.57	  385.80
     37.6700	  564.00	  526.24	-1736.49	  385.61
     37.7700	  520.00	  527.85	-1782.10	  385.42
     37.8700	  556.00	  526.56	-1744.81	  385.24
     37.9700	  507.00	  523.53	-1790.78	  385.05
     38.0700	  500.00	  519.88	-1794.13	  384.87
     38.1700	  500.00	  516.08	-1790.33	  384.69
     38.2700	  507.00	  512.56	-1779.81	  384.51
     38.3700	  497.00	  509.75	-1787.00	  384.33
     38.4700	  481.00	  507.77	-1801.02	  384.15
     38.5700	  519.00	  506.51	-1761.76	  383.98
     38.6700	  497.00	  505.75	-1783.00	  383.80
     38.7700	  480.00	  505.17	-1799.42	  383.63
     38.8700	  525.00	  504.84	-1754.09	  383.46
     38.9700	  481.00	  504.57	-1797.82	  383.29
     39.0700	  509.00	  504.34	-1769.59	  383.13
     39.1700	  513.00	  504.05	-1765.30	  382.96
     39.2700	  478.00	  503.86	-1800.11	  382.80
     39.3700	  451.00	  503.68	-1826.93	  382.64
     39.4700	  497.00	  503.52	-1780.77	  382.48
     39.5700	  519.00	  503.36	-1758.61	  382.32
     39.6700	  524.00	  503.22	-1753.47	  382.16
     39.7700	  527.00	  503.08	-1750.33	  382.01
     39.8700	  515.00	  503.07	-1762.32	  381.86
     39.9700	  509.00	  502.96	-1768.21	  381.70
     40.0700	  508.00	  502.85	-1769.10	  381.56
     40.1700	  494.00	  502.76	-1783.01	  381.41
     40.2700	  538.00	  502.67	-1738.92	  381.26
     40.3700	  504.00	  502.60	-1772.85	  381.12
     40.4700	  454.00	  502.54	-1822.79	  380.98
     40.5700	  498.00	  502.49	-1778.74	  380.84
     40.6700	  492.00	  502.46	-1784.71	  380.70
     40.7700	  467.00	  502.45	-1809.70	  380.56
     40.8700	  518.00	  502.46	-1758.71	  380.42
     40.9700	  502.00	  502.50	-1774.75	  380.29
     41.0700	  477.00	  502.56	-1799.81	  380.16
     41.1700	  520.00	  502.64	-1756.89	  380.03
     41.2700	  528.00	  502.79	-1749.04	  379.90
     41.3700	  459.00	  503.01	-1818.26	  379.77
     41.4700	  465.00	  503.30	-1812.55	  379.65
     41.5700	  507.00	  503.71	-1770.96	  379.53
     41.6700	  473.00	  504.27	-1805.52	  379.41
     41.7700	  499.00	  505.54	-1780.79	  379.29
     41.8700	  458.00	  506.98	-1823.23	  379.17
     41.9700	  505.00	  509.68	-1778.93	  379.05
     42.0700	  526.00	  515.04	-1763.29	  378.94
     42.1700	  497.00	  525.42	-1802.67	  378.83
     42.2700	  560.00	  543.82	-1758.07	  378.72
     42.3700	  517.00	  572.08	-1829.33	  378.61
     42.4700	  582.00	  608.54	-1800.79	  378.50
     42.5700	  566.00	  645.46	-1853.71	  378.40
     42.6700	  636.00	  669.60	-1807.85	  378.29
     42.7700	  623.00	  668.49	-1819.74	  378.19
     42.8700	  584.00	  641.69	-1831.94	  378.09
     42.9700	  513.00	  602.96	-1864.21	  377.99
     43.0700	  535.00	  566.40	-1805.65	  377.90
     43.1700	  542.00	  539.16	-1771.41	  377.80
     43.2700	  541.00	  522.14	-1755.39	  377.71
     43.3700	  480.00	  512.89	-1807.14	  377.62
     43.4700	  497.00	  508.26	-1785.51	  377.53
     43.5700	  495.00	  505.93	-1785.18	  377.44
     43.6700	  516.00	  504.63	-1762.88	  377.35
     43.7700	  524.00	  503.97	-1754.22	  377.27
     43.8700	  526.00	  503.37	-1751.62	  377.19
     43.9700	  493.00	  502.92	-1784.17	  377.11
     44.0700	  496.00	  502.57	-1780.82	  377.03
     44.1700	  515.00	  502.30	-1761.55	  376.95
     44.2700	  521.00	  502.09	-1755.34	  376.87
     44.3700	  487.00	  501.96	-1789.21	  376.80
     44.4700	  480.00	  501.72	-1795.97	  376.73
     44.5700	  491.00	  501.64	-1784.89	  376.66
     44.6700	  500.00	  501.60	-1775.85	  376.59
     44.7700	  505.00	  501.58	-1770.83	  376.52
     44.8700	  514.00	  501.58	-1761.83	  376.46
     44.9700	  462.00	  501.61	-1813.86	  376.39
     45.0700	  502.00	  501.66	-1773.91	  376.33
     45.1700	  518.00	  501.73	-1757.98	  376.27
     45.2700	  495.00	  502.00	-1781.25	  376.21
     45.3700	  555.00	  502.11	-1721.36	  376.16
     45.4700	  523.00	  502.25	-1753.50	  376.10
     45.5700	  482.00	  502.41	-1794.66	  376.05
     45.6700	  498.00	  502.59	-1778.84	  376.00
     45.7700	  468.00	  502.80	-1809.05	  375.95
     45.8700	  500.00	  503.03	-1777.28	  375.90
     45.9700	  472.00	  503.30	-1805.55	  375.85
     46.0700	  519.00	  503.59	-1758.84	  375.81
     46.1700	  492.00	  503.92	-1786.17	  375.77
     46.2700	  494.00	  504.30	-1784.55	  375.73
     46.3700	  472.00	  504.71	-1806.96	  375.69
     46.4700	  514.00	  505.18	-1765.43	  375.65
     46.5700	  486.00	  505.71	-1793.96	  375.61
     46.6700	  490.00	  506.32	-1790.57	  375.58
     46.7700	  524.00	  507.02	-1757.27	  375.54
     46.8700	  481.00	  507.86	-1801.11	  375.51
     46.9700	  522.00	  508.94	-1761.19	  375.48
     47.0700	  497.00	  510.45	-1787.70	  375.46
     47.1700	  527.00	  512.85	-1760.10	  375.43
     47.2700	  527.00	  516.94	-1764.19	  375.40
     47.3700	  498.00	  523.81	-1800.06	  375.38
     47.4700	  561.00	  534.64	-1747.89	  375.36
     47.5700	  575.00	  549.71	-1748.96	  375.34
     47.6700	  584.00	  567.68	-1757.93	  375.32
     47.7700	  567.00	  584.87	-1792.12	  375.31
     47.8700	  580.00	  595.80	-1790.05	  375.29
     47.9700	  583.00	  595.97	-1787.22	  375.28
     48.0700	  626.00	  585.98	-1734.23	  375.27
     48.1700	  530.00	  571.18	-1815.43	  375.26
     48.2700	  574.00	  557.04	-1757.29	  375.25
     48.3700	  498.00	  546.78	-1823.03	  375.24
     48.4700	  546.00	  541.31	-1769.56	  375.23
     48.5700	  552.00	  539.98	-1762.23	  375.23
     48.6700	  518.00	  541.77	-1798.02	  375.23
     48.7700	  515.00	  545.78	-1805.03	  375.23
     48.8700	  545.00	  551.62	-1780.87	  375.23
     48.9700	  542.00	  559.40	-1791.65	  375.23
     49.0700	  579.00	  569.85	-1765.10	  375.24
     49.1700	  549.00	  584.66	-1809.91	  375.24
     49.2700	  649.00	  607.38	-1732.63	  375.25
     49.3700	  653.00	  644.72	-1765.97	  375.26
     49.4700	  707.00	  707.98	-1775.23	  375.27
     49.5700	  765.00	  813.35	-1822.60	  375.28
     49.6700	  950.00	  979.54	-1803.79	  375.29
     49.7700	 1103.00	 1219.83	-1891.08	  375.31
     49.8700	 1432.00	 1532.97	-1875.22	  375.32
     49.9700	 1900.00	 1890.17	-1764.42	  375.34
     50.0700	 2245.00	 2226.08	-1755.33	  375.36
     50.1700	 2463.00	 2442.79	-1754.04	  375.38
     50.2700	 2526.00	 2451.85	-1700.10	  375.40
     50.3700	 2313.00	 2246.78	-1708.03	  375.43
     50.4700	 1905.00	 1913.51	-1782.76	  375.45
     50.5700	 1447.00	 1555.66	-1882.91	  375.48
     50.6700	 1050.00	 1242.50	-1966.75	  375.51
     50.7700	  865.00	 1004.61	-1913.86	  375.53
     50.8700	  700.00	  844.15	-1918.40	  375.57
     50.9700	  614.00	  746.19	-1906.44	  375.60
     51.0700	  655.00	  689.65	-1808.90	  375.63
     51.1700	  622.00	  655.24	-1807.49	  375.67
     51.2700	  631.00	  629.98	-1773.23	  375.70
     51.3700	  608.00	  608.31	-1774.56	  375.74
     51.4700	  581.00	  589.41	-1782.66	  375.78
     51.5700	  577.00	  573.86	-1771.11	  375.82
     51.6700	  572.00	  562.02	-1764.27	  375.86
     51.7700	  578.00	  553.62	-1749.87	  375.91
     51.8700	  576.00	  547.95	-1746.20	  375.95
     51.9700	  542.00	  544.18	-1776.43	  376.00
     52.0700	  599.00	  541.71	-1716.96	  376.05
     52.1700	  544.00	  540.18	-1770.43	  376.09
     52.2700	  554.00	  539.49	-1759.74	  376.15
     52.3700	  521.00	  539.72	-1792.97	  376.20
     52.4700	  560.00	  541.42	-1755.67	  376.25
     52.5700	  581.00	  545.05	-1738.30	  376.30
     52.6700	  593.00	  552.79	-1734.04	  376.36
     52.7700	  592.00	  568.44	-1750.69	  376.42
     52.8700	  659.00	  598.19	-1713.44	  376.47
     52.9700	  697.00	  650.16	-1727.41	  376.53
     53.0700	  794.00	  731.79	-1712.04	  376.59
     53.1700	  979.00	  845.11	-1640.36	  376.66
     53.2700	 1087.00	  981.03	-1668.28	  376.72
     53.3700	 1121.00	 1115.80	-1769.05	  376.78
     53.4700	 1205.00	 1212.80	-1782.05	  376.85
     53.5700	 1131.00	 1235.71	-1878.96	  376.92
     53.6700	 1162.00	 1173.93	-1786.18	  376.99
     53.7700	  986.00	 1053.16	-1841.41	  377.05
     53.8700	  869.00	  913.44	-1818.69	  377.13
     53.9700	  709.00	  786.30	-1851.55	  377.20
     54.0700	  666.00	  688.20	-1796.45	  377.27
     54.1700	  586.00	  622.09	-1810.34	  377.34
     54.2700	  511.00	  582.49	-1845.74	  377.42
     54.3700	  584.00	  561.00	-1751.25	  377.50
     54.4700	  569.00	  550.22	-1755.47	  377.57
     54.5700	  577.00	  545.10	-1742.35	  377.65
     54.6700	  546.00	  542.82	-1771.07	  377.73
     54.7700	  569.00	  542.07	-1747.32	  377.81
     54.8700	  543.00	  542.25	-1773.50	  377.90
     54.9700	  563.00	  543.18	-1754.43	  377.98
     55.0700	  512.00	  544.77	-1807.02	  378.07
     55.1700	  514.00	  547.05	-1807.30	  378.15
     55.2700	  521.00	  550.07	-1803.32	  378.24
     55.3700	  586.00	  553.96	-1742.21	  378.33
     55.4700	  525.00	  558.92	-1808.17	  378.41
     55.5700	  549.00	  565.28	-1790.53	  378.50
     55.6700	  586.00	  573.77	-1762.02	  378.60
     55.7700	  547.00	  585.92	-1813.17	  378.69
     55.8700	  561.00	  604.81	-1818.06	  378.78
     55.9700	  574.00	  636.36	-1836.61	  378.87
     56.0700	  664.00	  690.73	-1800.98	  378.97
     56.1700	  712.00	  783.02	-1845.27	  379.07
     56.2700	  876.00	  931.77	-1830.02	  379.16
     56.3700	 1057.00	 1153.84	-1871.09	  379.26
     56.4700	 1361.00	 1455.59	-1868.84	  379.36
     56.5700	 1739.00	 1822.24	-1857.49	  379.46
     56.6700	 2204.00	 2209.67	-1779.92	  379.56
     56.7700	 2487.00	 2541.89	-1829.14	  379.66
     56.8700	 2596.00	 2724.40	-1902.65	  379.77
     56.9700	 2623.00	 2689.96	-1841.21	  379.87
     57.0700	 2443.00	 2451.85	-1783.10	  379.98
     57.1700	 2047.00	 2093.35	-1820.60	  380.08
     57.2700	 1719.00	 1707.58	-1762.83	  380.19
     57.3700	 1299.00	 1361.17	-1836.42	  380.30
     57.4700	 1030.00	 1088.14	-1832.39	  380.40
     57.5700	  904.00	  895.59	-1765.84	  380.51
     57.6700	  760.00	  773.04	-1787.29	  380.62
     57.7700	  702.00	  702.99	-1775.24	  380.74
     57.8700	  700.00	  668.91	-1743.16	  380.85
     57.9700	  662.00	  659.20	-1771.45	  380.96
     58.0700	  672.00	  667.79	-1770.04	  381.07
     58.1700	  712.00	  692.72	-1754.97	  381.19
     58.2700	  825.00	  734.15	-1683.40	  381.30
     58.3700	  823.00	  792.49	-1743.74	  381.42
     58.4700	  977.00	  866.57	-1663.82	  381.54
     58.5700	 1115.00	  952.10	-1611.35	  381.65
     58.6700	 1292.00	 1040.94	-1523.19	  381.77
     58.7700	 1407.00	 1123.25	-1490.50	  381.89
     58.8700	 1545.00	 1191.85	-1421.10	  382.01
     58.9700	 1579.00	 1242.55	-1437.80	  382.13
     59.0700	 1603.00	 1269.96	-1441.21	  382.25
     59.1700	 1584.00	 1269.15	-1459.40	  382.38
     59.2700	 1475.00	 1243.56	-1542.81	  382.50
     59.3700	 1373.00	 1206.00	-1607.25	  382.62
     59.4700	 1214.00	 1170.11	-1730.36	  382.75
     59.5700	 1134.00	 1145.20	-1785.45	  382.87
     59.6700	 1170.00	 1138.58	-1742.83	  383.00
     59.7700	 1142.00	 1158.42	-1790.67	  383.12
     59.8700	 1181.00	 1210.32	-1803.57	  383.25
     59.9700	 1303.00	 1290.98	-1762.23	  383.38
     60.0700	 1464.00	 1384.72	-1694.97	  383.51
     60.1700	 1512.00	 1463.88	-1726.13	  383.64
     60.2700	 1672.00	 1495.37	-1597.62	  383.77
     60.3700	 1559.00	 1457.49	-1672.74	  383.90
     60.4700	 1383.00	 1355.37	-1746.62	  384.03
     60.5700	 1253.00	 1215.28	-1736.53	  384.16
     60.6700	 1115.00	 1066.44	-1725.69	  384.29
     60.7700	  950.00	  930.51	-1754.76	  384.42
     60.8700	  779.00	  819.90	-1815.15	  384.55
     60.9700	  706.00	  738.99	-1807.24	  384.69
     61.0700	  677.00	  686.78	-1784.03	  384.82
     61.1700	  662.00	  659.94	-1772.19	  384.96
     61.2700	  636.00	  655.68	-1793.93	  385.09
     61.3700	  612.00	  673.51	-1835.76	  385.23
     61.4700	  636.00	  715.51	-1853.76	  385.36
     61.5700	  657.00	  785.13	-1902.38	  385.50
     61.6700	  803.00	  884.68	-1855.93	  385.64
     61.7700	  927.00	 1012.29	-1859.54	  385.77
     61.8700	 1118.00	 1159.01	-1815.26	  385.91
     61.9700	 1192.00	 1306.99	-1889.24	  386.05
     62.0700	 1315.00	 1429.39	-1888.64	  386.19
     62.1700	 1458.00	 1495.25	-1811.50	  386.33
     62.2700	 1407.00	 1483.28	-1850.53	  386.47
     62.3700	 1318.00	 1396.95	-1853.20	  386.61
     62.4700	 1155.00	 1261.86	-1881.11	  386.75
     62.5700	 1070.00	 1108.91	-1813.16	  386.89
     62.6700	  912.00	  962.65	-1824.90	  387.03
     62.7700	  761.00	  838.16	-1851.41	  387.17
     62.8700	  698.00	  741.82	-1818.07	  387.31
     62.9700	  619.00	  673.18	-1828.43	  387.45
     63.0700	  543.00	  627.74	-1858.99	  387.60
     63.1700	  604.00	  599.50	-1769.75	  387.74
     63.2700	  571.00	  582.91	-1786.16	  387.88
     63.3700	  549.00	  573.85	-1799.10	  388.02
     63.4700	  541.00	  569.84	-1803.09	  388.17
     63.5700	  548.00	  569.95	-1796.20	  388.31
     63.6700	  617.00	  574.51	-1731.76	  388.46
     63.7700	  578.00	  584.93	-1781.18	  388.60
     63.8700	  610.00	  603.35	-1767.60	  388.74
     63.9700	  650.00	  632.15	-1756.40	  388.89
     64.0700	  711.00	  673.09	-1736.34	  389.03
     64.1700	  826.00	  726.26	-1674.51	  389.18
     64.2700	  841.00	  789.06	-1722.31	  389.32
     64.3700	  901.00	  855.44	-1728.69	  389.47
     64.4700	  989.00	  915.90	-1701.15	  389.62
     64.5700	 1038.00	  959.03	-1695.28	  389.76
     64.6700	 1084.00	  974.87	-1665.12	  389.91
     64.7700	 1023.00	  961.75	-1713.00	  390.05
     64.8700	 1015.00	  923.95	-1683.20	  390.20
     64.9700	  879.00	  870.65	-1765.90	  390.35
     65.0700	  840.00	  812.05	-1746.30	  390.49
     65.1700	  796.00	  756.51	-1734.76	  390.64
     65.2700	  746.00	  708.82	-1737.07	  390.79
     65.3700	  680.00	  670.33	-1764.58	  390.93
     65.4700	  641.00	  640.14	-1773.39	  391.08
     65.5700	  620.00	  616.66	-1770.91	  391.23
     65.6700	  624.00	  598.53	-1748.78	  391.37
     65.7700	  584.00	  584.75	-1775.00	  391.52
     65.8700	  566.00	  574.61	-1782.86	  391.67
     65.9700	  530.00	  567.55	-1811.80	  391.81
     66.0700	  553.00	  563.10	-1784.35	  391.96
     66.1700	  533.00	  560.84	-1802.09	  392.11
     66.2700	  576.00	  560.35	-1758.60	  392.25
     66.3700	  553.00	  561.32	-1782.57	  392.40
     66.4700	  551.00	  563.57	-1786.82	  392.55
     66.5700	  609.00	  567.09	-1732.34	  392.69
     66.6700	  529.00	  572.22	-1817.47	  392.84
     66.7700	  561.00	  579.75	-1793.00	  392.99
     66.8700	  597.00	  591.37	-1768.62	  393.13
     66.9700	  575.00	  609.70	-1808.95	  393.28
     67.0700	  595.00	  639.38	-1818.63	  393.43
     67.1700	  687.00	  687.07	-1774.32	  393.57
     67.2700	  746.00	  761.42	-1789.67	  393.72
     67.3700	  778.00	  872.03	-1868.28	  393.86
     67.4700	 1071.00	 1027.06	-1730.31	  394.01
     67.5700	 1259.00	 1230.49	-1745.74	  394.15
     67.6700	 1523.00	 1477.30	-1728.55	  394.30
     67.7700	 1789.00	 1751.57	-1736.82	  394.45
     67.8700	 1987.00	 2024.43	-1811.68	  394.59
     67.9700	 2313.00	 2254.95	-1716.20	  394.73
     68.0700	 2345.00	 2396.50	-1825.75	  394.88
     68.1700	 2396.00	 2413.22	-1791.47	  395.02
     68.2700	 2405.00	 2300.44	-1669.69	  395.17
     68.3700	 2128.00	 2087.89	-1734.14	  395.31
     68.4700	 1822.00	 1821.57	-1773.82	  395.45
     68.5700	 1566.00	 1544.77	-1753.02	  395.60
     68.6700	 1307.00	 1289.61	-1756.86	  395.74
     68.7700	 1002.00	 1075.19	-1847.44	  395.88
     68.8700	  823.00	  908.81	-1860.06	  396.03
     68.9700	  756.00	  788.37	-1806.62	  396.17
     69.0700	  678.00	  706.53	-1802.78	  396.31
     69.1700	  670.00	  653.65	-1757.90	  396.45
     69.2700	  681.00	  620.76	-1714.01	  396.59
     69.3700	  619.00	  600.65	-1755.90	  396.73
     69.4700	  628.00	  588.28	-1734.53	  396.87
     69.5700	  615.00	  580.44	-1739.69	  397.01
     69.6700	  587.00	  575.25	-1762.50	  397.15
     69.7700	  587.00	  571.69	-1758.94	  397.29
     69.8700	  557.00	  569.24	-1786.49	  397.43
     69.9700	  601.00	  567.62	-1740.87	  397.57
     70.0700	  580.00	  566.71	-1760.96	  397.71
     70.1700	  533.00	  566.45	-1807.70	  397.84
     70.2700	  559.00	  566.87	-1782.12	  397.98
     70.3700	  567.00	  568.07	-1775.32	  398.12
     70.4700	  620.00	  570.21	-1724.46	  398.25
     70.5700	  580.00	  573.76	-1768.01	  398.39
     70.6700	  586.00	  579.50	-1767.75	  398.52
     70.7700	  634.00	  588.88	-1729.13	  398.66
     70.8700	  564.00	  604.21	-1814.46	  398.79
     70.9700	  608.00	  629.05	-1795.30	  398.93
     71.0700	  616.00	  668.24	-1826.49	  399.06
     71.1700	  671.00	  727.73	-1830.98	  399.19
     71.2700	  765.00	  813.75	-1823.00	  399.32
     71.3700	  900.00	  931.32	-1805.57	  399.46
     71.4700	 1050.00	 1083.03	-1807.28	  399.59
     71.5700	 1259.00	 1263.66	-1778.91	  399.72
     71.6700	 1393.00	 1463.36	-1844.61	  399.85
     71.7700	 1581.00	 1663.67	-1856.92	  399.98
     71.8700	 1826.00	 1839.05	-1787.30	  400.10
     71.9700	 1975.00	 1959.76	-1759.01	  400.23
     72.0700	 1983.00	 2000.25	-1791.50	  400.36
     72.1700	 1923.00	 1950.91	-1802.16	  400.49
     72.2700	 1775.00	 1823.48	-1822.73	  400.61
     72.3700	 1736.00	 1645.49	-1683.74	  400.74
     72.4700	 1530.00	 1445.99	-1690.24	  400.86
     72.5700	 1344.00	 1249.60	-1679.85	  400.99
     72.6700	 1214.00	 1073.56	-1633.81	  401.11
     72.7700	 1095.00	  927.34	-1606.59	  401.23
     72.8700	 1052.00	  813.47	-1535.72	  401.35
     72.9700	  908.00	  729.69	-1595.94	  401.47
     73.0700	  823.00	  670.89	-1622.14	  401.59
     73.1700	  753.00	  631.12	-1652.37	  401.71
     73.2700	  705.00	  604.86	-1674.11	  401.83
     73.3700	  669.00	  587.66	-1692.91	  401.95
     73.4700	  649.00	  576.32	-1701.57	  402.07
     73.5700	  600.00	  568.76	-1743.01	  402.19
     73.6700	  565.00	  563.71	-1772.96	  402.30
     73.7700	  602.00	  560.39	-1732.64	  402.42
     73.8700	  603.00	  558.41	-1729.66	  402.53
     73.9700	  616.00	  557.51	-1715.76	  402.64
     74.0700	  599.00	  557.51	-1732.76	  402.76
     74.1700	  618.00	  558.20	-1714.45	  402.87
     74.2700	  602.00	  559.36	-1731.61	  402.98
     74.3700	  628.00	  560.70	-1706.95	  403.09
     74.4700	  610.00	  561.86	-1726.11	  403.20
     74.5700	  586.00	  562.46	-1750.71	  403.31
     74.6700	  633.00	  562.20	-1703.45	  403.42
     74.7700	  645.00	  561.01	-1690.26	  403.52
     74.8700	  635.00	  559.02	-1698.27	  403.63
     74.9700	  624.00	  556.55	-1706.80	  403.73
     75.0700	  564.00	  554.06	-1764.31	  403.84
     75.1700	  620.00	  551.95	-1706.20	  403.94
     75.2700	  558.00	  550.60	-1766.85	  404.04
     75.3700	  561.00	  550.37	-1763.62	  404.14
     75.4700	  537.00	  551.81	-1789.06	  404.24
     75.5700	  565.00	  555.35	-1764.60	  404.34
     75.6700	  608.00	  561.40	-1727.65	  404.44
     75.7700	  567.00	  570.67	-1777.92	  404.54
     75.8700	  571.00	  583.38	-1786.63	  404.64
     75.9700	  622.00	  599.57	-1751.82	  404.73
     76.0700	  591.00	  618.77	-1802.02	  404.82
     76.1700	  662.00	  639.94	-1752.19	  404.92
     76.2700	  679.00	  661.36	-1756.61	  405.01
     76.3700	  661.00	  680.69	-1793.94	  405.10
     76.4700	  679.00	  695.23	-1790.48	  405.19
     76.5700	  661.00	  702.42	-1815.67	  405.28
     76.6700	  702.00	  700.79	-1773.04	  405.37
     76.7700	  664.00	  690.66	-1800.91	  405.46
     76.8700	  708.00	  673.98	-1740.23	  405.54
     76.9700	  617.00	  653.26	-1810.51	  405.63
     77.0700	  610.00	  631.46	-1795.71	  405.71
     77.1700	  587.00	  610.53	-1797.78	  405.80
     77.2700	  527.00	  591.94	-1839.19	  405.88
     77.3700	  549.00	  576.47	-1801.72	  405.96
     77.4700	  567.00	  564.36	-1771.61	  406.04
     77.5700	  544.00	  555.38	-1785.63	  406.12
     77.6700	  531.00	  549.05	-1792.30	  406.19
     77.7700	  547.00	  544.77	-1772.02	  406.27
     77.8700	  531.00	  541.98	-1785.23	  406.35
     77.9700	  515.00	  540.22	-1799.47	  406.42
     78.0700	  542.00	  539.13	-1771.38	  406.49
     78.1700	  526.00	  538.46	-1786.71	  406.57
     78.2700	  490.00	  538.05	-1822.30	  406.64
     78.3700	  501.00	  537.82	-1811.07	  406.71
     78.4700	  522.00	  537.70	-1789.95	  406.77
     78.5700	  558.00	  537.68	-1753.93	  406.84
     78.6700	  546.00	  537.75	-1766.00	  406.91
     78.7700	  545.00	  537.92	-1767.17	  406.97
     78.8700	  483.00	  538.21	-1829.46	  407.04
     78.9700	  522.00	  538.64	-1790.89	  407.10
     79.0700	  477.00	  539.25	-1836.50	  407.16
     79.1700	  532.00	  540.11	-1782.36	  407.22
     79.2700	  514.00	  541.10	-1801.35	  407.28
     79.3700	  528.00	  542.64	-1788.89	  407.33
     79.4700	  565.00	  544.62	-1753.87	  407.39
     79.5700	  538.00	  547.14	-1783.39	  407.45
     79.6700	  534.00	  550.29	-1790.54	  407.50
     79.7700	  516.00	  554.20	-1812.45	  407.55
     79.8700	  587.00	  559.03	-1746.28	  407.60
     79.9700	  530.00	  564.99	-1809.24	  407.65
     80.0700	  592.00	  572.32	-1754.57	  407.70
     80.1700	  568.00	  581.33	-1787.58	  407.75
     80.2700	  544.00	  592.33	-1822.58	  407.79
     80.3700	  517.00	  605.60	-1862.85	  407.84
     80.4700	  602.00	  621.22	-1793.47	  407.88
     80.5700	  546.00	  638.99	-1867.24	  407.92
     80.6700	  635.00	  658.34	-1797.59	  407.96
     80.7700	  606.00	  678.30	-1846.55	  408.00
     80.8700	  654.00	  697.51	-1817.76	  408.04
     80.9700	  736.00	  714.43	-1752.68	  408.08
     81.0700	  744.00	  727.64	-1757.89	  408.11
     81.1700	  756.00	  736.08	-1754.33	  408.15
     81.2700	  783.00	  739.14	-1730.39	  408.18
     81.3700	  748.00	  736.66	-1762.91	  408.21
     81.4700	  774.00	  728.98	-1729.23	  408.24
     81.5700	  789.00	  716.88	-1702.13	  408.27
     81.6700	  711.00	  701.40	-1764.65	  408.30
     81.7700	  723.00	  683.65	-1734.90	  408.32
     81.8700	  717.00	  664.67	-1721.92	  408.35
     81.9700	  680.00	  645.67	-1739.92	  408.37
     82.0700	  684.00	  627.56	-1717.81	  408.39
     82.1700	  681.00	  611.07	-1704.32	  408.41
     82.2700	  668.00	  596.62	-1702.87	  408.43
     82.3700	  630.00	  584.40	-1728.65	  408.45
     82.4700	  620.00	  574.39	-1728.64	  408.47
     82.5700	  602.00	  566.54	-1738.79	  408.48
     82.6700	  563.00	  560.65	-1771.90	  408.49
     82.7700	  598.00	  556.54	-1732.79	  408.51
     82.8700	  526.00	  554.04	-1802.29	  408.52
     82.9700	  523.00	  553.00	-1804.25	  408.52
     83.0700	  541.00	  553.31	-1786.56	  408.53
     83.1700	  599.00	  554.85	-1730.10	  408.54
     83.2700	  558.00	  557.52	-1773.77	  408.54
     83.3700	  548.00	  561.17	-1787.42	  408.55
     83.4700	  564.00	  565.57	-1775.82	  408.55
     83.5700	  527.00	  570.44	-1817.69	  408.55
     83.6700	  575.00	  575.39	-1774.64	  408.55
     83.7700	  562.00	  579.95	-1792.20	  408.54
     83.8700	  552.00	  583.58	-1805.83	  408.54
     83.9700	  562.00	  585.77	-1798.02	  408.53
     84.0700	  583.00	  586.15	-1777.40	  408.53
     84.1700	  559.00	  584.61	-1799.86	  408.52
     84.2700	  556.00	  581.39	-1799.64	  408.51
     84.3700	  585.00	  576.90	-1766.15	  408.50
     84.4700	  518.00	  571.68	-1827.93	  408.48
     84.5700	  525.00	  566.19	-1815.44	  408.47
     84.6700	  510.00	  560.85	-1825.10	  408.45
     84.7700	  587.00	  555.95	-1743.20	  408.43
     84.8700	  526.00	  551.69	-1799.94	  408.42
     84.9700	  541.00	  548.17	-1781.42	  408.39
     85.0700	  515.00	  545.40	-1804.65	  408.37
     85.1700	  515.00	  543.35	-1802.60	  408.35
     85.2700	  530.00	  541.93	-1786.18	  408.32
     85.3700	  513.00	  541.08	-1802.33	  408.30
     85.4700	  560.00	  540.68	-1754.93	  408.27
     85.5700	  528.00	  540.68	-1786.93	  408.24
     85.6700	  550.00	  541.03	-1765.28	  408.21
     85.7700	  545.00	  541.68	-1770.93	  408.18
     85.8700	  495.00	  542.65	-1821.90	  408.14
     85.9700	  534.00	  543.96	-1784.21	  408.10
     86.0700	  518.00	  545.66	-1801.91	  408.07
     86.1700	  556.00	  547.84	-1766.09	  408.03
     86.2700	  502.00	  550.60	-1822.85	  407.99
     86.3700	  555.00	  554.06	-1773.31	  407.95
     86.4700	  583.00	  558.38	-1749.63	  407.90
     86.5700	  562.00	  563.67	-1775.92	  407.86
     86.6700	  567.00	  569.72	-1776.97	  407.81
     86.7700	  603.00	  577.09	-1748.34	  407.76
     86.8700	  593.00	  585.31	-1766.56	  407.71
     86.9700	  613.00	  594.05	-1755.30	  407.66
     87.0700	  591.00	  602.80	-1786.05	  407.61
     87.1700	  652.00	  610.91	-1733.16	  407.56
     87.2700	  669.00	  617.63	-1722.88	  407.50
     87.3700	  641.00	  622.21	-1755.46	  407.44
     87.4700	  656.00	  624.03	-1742.28	  407.38
     87.5700	  611.00	  622.83	-1786.08	  407.32
     87.6700	  626.00	  618.78	-1767.03	  407.26
     87.7700	  592.00	  612.49	-1794.74	  407.20
     87.8700	  642.00	  604.74	-1736.99	  407.13
     87.9700	  605.00	  596.42	-1765.67	  407.07
     88.0700	  663.00	  588.33	-1699.58	  407.00
     88.1700	  591.00	  581.16	-1764.41	  406.93
     88.2700	  588.00	  575.46	-1761.71	  406.86
     88.3700	  614.00	  571.58	-1731.83	  406.78
     88.4700	  532.00	  569.73	-1811.98	  406.71
     88.5700	  627.00	  569.90	-1717.15	  406.63
     88.6700	  612.00	  571.96	-1734.21	  406.55
     88.7700	  564.00	  575.63	-1785.88	  406.48
     88.8700	  568.00	  580.51	-1786.76	  406.40
     88.9700	  616.00	  586.11	-1744.36	  406.31
     89.0700	  551.00	  591.86	-1815.11	  406.23
     89.1700	  622.00	  597.12	-1749.37	  406.14
     89.2700	  595.00	  601.27	-1780.52	  406.06
     89.3700	  638.00	  603.73	-1739.98	  405.97
     89.4700	  605.00	  604.14	-1773.39	  405.88
     89.5700	  549.00	  602.38	-1827.63	  405.79
     89.6700	  589.00	  598.66	-1783.91	  405.69
     89.7700	  596.00	  593.42	-1771.67	  405.60
     89.8700	  559.00	  587.17	-1802.42	  405.50
     89.9700	  525.00	  580.44	-1829.69	  405.41
     90.0700	  553.00	  573.70	-1794.95	  405.31
     90.1700	  518.00	  567.31	-1823.56	  405.21
     90.2700	  529.00	  561.54	-1806.79	  405.10
     90.3700	  523.00	  556.56	-1807.81	  405.00
     90.4700	  540.00	  552.43	-1786.68	  404.90
     90.5700	  519.00	  549.16	-1804.41	  404.79
     90.6700	  555.00	  546.68	-1765.93	  404.68
     90.7700	  543.00	  544.90	-1776.15	  404.57
     90.8700	  525.00	  543.72	-1792.97	  404.46
     90.9700	  513.00	  543.05	-1804.30	  404.35
     91.0700	  504.00	  542.80	-1813.05	  404.23
     91.1700	  504.00	  542.93	-1813.18	  404.12
     91.2700	  539.00	  543.43	-1778.68	  404.00
     91.3700	  530.00	  544.34	-1788.59	  403.88
     91.4700	  490.00	  545.71	-1829.96	  403.76
     91.5700	  521.00	  547.65	-1800.90	  403.64
     91.6700	  498.00	  550.31	-1826.56	  403.51
     91.7700	  522.00	  553.66	-1805.91	  403.39
     91.8700	  514.00	  558.31	-1818.56	  403.26
     91.9700	  577.00	  564.25	-1761.50	  403.14
     92.0700	  585.00	  571.63	-1760.88	  403.01
     92.1700	  566.00	  580.60	-1788.85	  402.88
     92.2700	  602.00	  591.20	-1763.45	  402.74
     92.3700	  576.00	  603.40	-1801.65	  402.61
     92.4700	  572.00	  617.02	-1819.27	  402.47
     92.5700	  644.00	  631.78	-1762.03	  402.34
     92.6700	  670.00	  647.27	-1751.52	  402.20
     92.7700	  692.00	  662.97	-1745.22	  402.06
     92.8700	  746.00	  678.24	-1706.49	  401.92
     92.9700	  681.00	  692.46	-1785.71	  401.78
     93.0700	  726.00	  705.08	-1753.33	  401.63
     93.1700	  786.00	  715.82	-1704.07	  401.49
     93.2700	  793.00	  724.78	-1706.03	  401.34
     93.3700	  822.00	  732.37	-1684.62	  401.19
     93.4700	  811.00	  739.27	-1702.52	  401.04
     93.5700	  781.00	  746.17	-1739.42	  400.89
     93.6700	  764.00	  753.74	-1763.99	  400.74
     93.7700	  862.00	  762.54	-1674.79	  400.59
     93.8700	  866.00	  773.05	-1681.30	  400.43
     93.9700	  867.00	  785.67	-1692.92	  400.28
     94.0700	  887.00	  800.65	-1687.90	  400.12
     94.1700	  877.00	  818.01	-1715.26	  399.96
     94.2700	  897.00	  837.43	-1714.68	  399.80
     94.3700	  843.00	  858.14	-1789.39	  399.64
     94.4700	  863.00	  878.96	-1790.21	  399.47
     94.5700	  899.00	  898.26	-1773.51	  399.31
     94.6700	  892.00	  914.15	-1796.40	  399.14
     94.7700	  907.00	  924.65	-1791.90	  398.98
     94.8700	  929.00	  928.08	-1773.33	  398.81
     94.9700	  877.00	  923.45	-1820.70	  398.64
     95.0700	  960.00	  910.77	-1725.02	  398.47
     95.1700	  833.00	  891.02	-1832.27	  398.30
     95.2700	  882.00	  865.92	-1758.17	  398.12
     95.3700	  858.00	  837.50	-1753.75	  397.95
     95.4700	  802.00	  807.91	-1780.16	  397.77
     95.5700	  705.00	  779.15	-1848.40	  397.59
     95.6700	  807.00	  753.08	-1720.33	  397.41
     95.7700	  752.00	  731.37	-1753.62	  397.23
     95.8700	  674.00	  715.50	-1815.75	  397.05
     95.9700	  655.00	  706.77	-1826.02	  396.87
     96.0700	  647.00	  706.32	-1833.57	  396.69
     96.1700	  702.00	  715.12	-1787.37	  396.50
     96.2700	  701.00	  733.92	-1807.17	  396.32
     96.3700	  724.00	  763.25	-1813.50	  396.13
     96.4700	  754.00	  803.28	-1823.53	  395.94
     96.5700	  832.00	  853.79	-1796.04	  395.75
     96.6700	  936.00	  914.00	-1752.25	  395.56
     96.7700	  942.00	  982.51	-1814.76	  395.37
     96.8700	 1062.00	 1057.18	-1769.43	  395.18
     96.9700	 1101.00	 1135.18	-1808.43	  394.98
     97.0700	 1164.00	 1212.96	-1823.21	  394.79
     97.1700	 1262.00	 1286.38	-1798.63	  394.59
     97.2700	 1381.00	 1350.87	-1744.12	  394.39
     97.3700	 1374.00	 1401.83	-1802.08	  394.19
     97.4700	 1406.00	 1435.18	-1803.43	  393.99
     97.5700	 1462.00	 1448.16	-1760.41	  393.79
     97.6700	 1489.00	 1439.89	-1725.14	  393.59
     97.7700	 1436.00	 1411.58	-1749.83	  393.39
     97.8700	 1373.00	 1366.16	-1767.41	  393.18
     97.9700	 1271.00	 1307.69	-1810.94	  392.98
     98.0700	 1165.00	 1240.59	-1849.84	  392.77
     98.1700	 1147.00	 1169.23	-1796.48	  392.57
     98.2700	 1118.00	 1097.70	-1753.95	  392.36
     98.3700	 1024.00	 1029.59	-1779.84	  392.15
     98.4700	  980.00	  967.90	-1762.15	  391.94
     98.5700	  905.00	  915.03	-1784.28	  391.73
     98.6700	  878.00	  872.81	-1769.06	  391.52
     98.7700	  817.00	  842.64	-1799.89	  391.30
     98.8700	  808.00	  825.48	-1791.73	  391.09
     98.9700	  759.00	  821.98	-1837.23	  390.87
     99.0700	  788.00	  832.57	-1818.82	  390.66
     99.1700	  856.00	  857.45	-1775.70	  390.44
     99.2700	  837.00	  896.66	-1833.91	  390.22
     99.3700	  923.00	  950.00	-1801.25	  390.01
     99.4700	 1017.00	 1017.00	-1774.25	  389.79
     99.5700	 1068.00	 1096.82	-1803.07	  389.57
     99.6700	 1196.00	 1188.19	-1766.44	  389.35
     99.7700	 1189.00	 1289.21	-1874.46	  389.12
     99.8700	 1403.00	 1397.38	-1768.63	  388.90
     99.9700	 1583.00	 1509.42	-1700.67	  388.68
    100.0700	 1679.00	 1621.42	-1716.67	  388.45
    100.1700	 1705.00	 1728.92	-1798.17	  388.23
    100.2700	 1857.00	 1827.36	-1744.61	  388.00
    100.3700	 1815.00	 1912.54	-1871.79	  387.78
    100.4700	 2033.00	 1981.06	-1722.31	  387.55
    100.5700	 2019.00	 2030.48	-1785.73	  387.32
    100.6700	 2137.00	 2059.23	-1696.48	  387.09
    100.7700	 2042.00	 2066.40	-1798.65	  386.87
    100.8700	 2065.00	 2051.63	-1760.88	  386.64
    100.9700	 2089.00	 2015.37	-1700.62	  386.41
    101.0700	 1942.00	 1959.18	-1791.43	  386.18
    101.1700	 1989.00	 1886.05	-1671.30	  385.94
    101.2700	 1834.00	 1800.24	-1740.49	  385.71
    101.3700	 1699.00	 1706.76	-1782.01	  385.48
    101.4700	 1617.00	 1610.77	-1768.02	  385.25
    101.5700	 1551.00	 1517.00	-1740.25	  385.01
    101.6700	 1488.00	 1429.41	-1715.66	  384.78
    101.7700	 1308.00	 1350.96	-1817.21	  384.54
    101.8700	 1330.00	 1283.49	-1727.74	  384.31
    101.9700	 1328.00	 1227.75	-1674.00	  384.07
    102.0700	 1200.00	 1183.45	-1757.70	  383.84
    102.1700	 1169.00	 1149.37	-1754.62	  383.60
    102.2700	 1149.00	 1123.53	-1748.78	  383.36
    102.3700	 1150.00	 1103.38	-1727.63	  383.12
    102.4700	 1073.00	 1086.12	-1787.37	  382.89
    102.5700	 1072.00	 1069.03	-1771.28	  382.65
    102.6700	 1053.00	 1049.80	-1771.05	  382.41
    102.7700	 1048.00	 1026.84	-1753.09	  382.17
    102.8700	  948.00	  999.43	-1825.68	  381.93
    102.9700	  946.00	  967.65	-1795.90	  381.69
    103.0700	  885.00	  932.23	-1821.48	  381.45
    103.1700	  878.00	  894.25	-1790.50	  381.21
    103.2700	  828.00	  854.94	-1801.19	  380.97
    103.3700	  806.00	  815.56	-1783.81	  380.73
    103.4700	  767.00	  777.29	-1784.54	  380.49
    103.5700	  764.00	  741.11	-1751.36	  380.25
    103.6700	  644.00	  707.80	-1838.05	  380.01
    103.7700	  708.00	  677.92	-1744.17	  379.77
    103.8700	  684.00	  651.79	-1742.04	  379.52
    103.9700	  606.00	  629.51	-1797.76	  379.28
    104.0700	  583.00	  611.01	-1802.26	  379.04
    104.1700	  580.00	  596.07	-1790.32	  378.80
    104.2700	  583.00	  584.36	-1775.61	  378.56
    104.3700	  541.00	  575.52	-1808.77	  378.32
    104.4700	  569.00	  569.15	-1774.40	  378.07
    104.5700	  521.00	  564.85	-1818.10	  377.83
    104.6700	  559.00	  562.26	-1777.51	  377.59
    104.7700	  560.00	  561.06	-1775.31	  377.35
    104.8700	  585.00	  560.93	-1750.18	  377.11
    104.9700	  541.00	  561.64	-1794.89	  376.86
    105.0700	  601.00	  563.01	-1736.26	  376.62
    105.1700	  547.00	  564.85	-1792.10	  376.38
    105.2700	  549.00	  567.06	-1792.31	  376.14
    105.3700	  547.00	  569.54	-1796.79	  375.90
    105.4700	  542.00	  572.28	-1804.53	  375.66
    105.5700	  562.00	  575.28	-1787.53	  375.42
    105.6700	  592.00	  578.62	-1760.87	  375.18
    105.7700	  532.00	  582.38	-1824.63	  374.94
    105.8700	  548.00	  586.70	-1812.95	  374.70
    105.9700	  531.00	  591.70	-1834.95	  374.46
    106.0700	  567.00	  597.51	-1804.76	  374.22
    106.1700	  588.00	  604.20	-1790.45	  373.98
    106.2700	  592.00	  611.77	-1794.02	  373.74
    106.3700	  589.00	  620.18	-1805.43	  373.50
    106.4700	  615.00	  629.28	-1788.53	  373.27
    106.5700	  572.00	  638.89	-1841.14	  373.03
    106.6700	  659.00	  648.70	-1763.95	  372.79
    106.7700	  615.00	  658.40	-1817.65	  372.56
    106.8700	  632.00	  667.58	-1809.83	  372.32
    106.9700	  632.00	  675.83	-1818.08	  372.09
    107.0700	  660.00	  682.78	-1797.03	  371.85
    107.1700	  666.00	  688.08	-1796.33	  371.62
    107.2700	  663.00	  691.55	-1802.80	  371.39
    107.3700	  655.00	  693.15	-1812.40	  371.15
    107.4700	  676.00	  693.04	-1791.29	  370.92
    107.5700	  697.00	  691.52	-1768.77	  370.69
    107.6700	  695.00	  689.00	-1768.25	  370.46
    107.7700	  661.00	  685.96	-1799.21	  370.23
    107.8700	  724.00	  682.84	-1733.09	  370.00
    107.9700	  639.00	  680.01	-1815.26	  369.77
    108.0700	  704.00	  677.77	-1748.02	  369.55
    108.1700	  691.00	  676.30	-1759.55	  369.32
    108.2700	  727.00	  675.66	-1722.91	  369.09
    108.3700	  632.00	  675.79	-1818.04	  368.87
    108.4700	  645.00	  676.51	-1805.76	  368.65
    108.5700	  669.00	  677.54	-1782.79	  368.42
    108.6700	  693.00	  678.54	-1759.79	  368.20
    108.7700	  676.00	  679.10	-1777.35	  367.98
    108.8700	  686.00	  678.81	-1767.06	  367.76
    108.9700	  734.00	  677.34	-1717.59	  367.54
    109.0700	  694.00	  674.43	-1754.68	  367.33
    109.1700	  705.00	  669.96	-1739.21	  367.11
    109.2700	  677.00	  663.94	-1761.19	  366.90
    109.3700	  653.00	  656.54	-1777.79	  366.68
    109.4700	  662.00	  648.00	-1760.25	  366.47
    109.5700	  656.00	  638.63	-1756.88	  366.26
    109.6700	  624.00	  628.75	-1779.00	  366.05
    109.7700	  597.00	  618.70	-1795.95	  365.84
    109.8700	  615.00	  608.78	-1768.03	  365.63
    109.9700	  596.00	  599.26	-1777.51	  365.43
    110.0700	  545.00	  590.36	-1819.61	  365.22
    110.1700	  604.00	  582.26	-1752.51	  365.02
    110.2700	  540.00	  575.06	-1809.31	  364.82
    110.3700	  583.00	  568.85	-1760.10	  364.62
    110.4700	  592.00	  563.64	-1745.89	  364.42
    110.5700	  567.00	  559.42	-1766.67	  364.22
    110.6700	  547.00	  556.13	-1783.38	  364.03
    110.7700	  559.00	  553.71	-1768.96	  363.83
    110.8700	  569.00	  552.07	-1757.32	  363.64
    110.9700	  566.00	  551.12	-1759.37	  363.45
    111.0700	  496.00	  550.77	-1829.02	  363.26
    111.1700	  549.00	  550.93	-1776.18	  363.07
    111.2700	  553.00	  551.54	-1772.79	  362.89
    111.3700	  532.00	  552.52	-1794.77	  362.70
    111.4700	  572.00	  553.83	-1756.08	  362.52
    111.5700	  554.00	  555.41	-1775.66	  362.34
    111.6700	  552.00	  557.25	-1779.50	  362.17
    111.7700	  580.00	  559.32	-1753.57	  361.99
    111.8700	  569.00	  561.60	-1766.85	  361.82
    111.9700	  586.00	  564.09	-1752.34	  361.64
    112.0700	  526.00	  566.80	-1815.05	  361.47
    112.1700	  551.00	  569.74	-1792.99	  361.31
    112.2700	  568.00	  572.93	-1779.18	  361.14
    112.3700	  555.00	  576.40	-1795.65	  360.98
    112.4700	  594.00	  580.18	-1760.43	  360.82
    112.5700	  624.00	  584.32	-1734.57	  360.66
    112.6700	  638.00	  588.90	-1725.15	  360.50
    112.7700	  638.00	  593.98	-1730.23	  360.35
    112.8700	  675.00	  599.70	-1698.95	  360.19
    112.9700	  671.00	  606.17	-1709.42	  360.04
    113.0700	  686.00	  613.61	-1701.86	  359.90
    113.1700	  720.00	  622.25	-1676.50	  359.75
    113.2700	  742.00	  632.40	-1664.65	  359.61
    113.3700	  777.00	  644.48	-1641.73	  359.47
    113.4700	  773.00	  658.98	-1660.23	  359.33
    113.5700	  890.00	  676.55	-1560.80	  359.20
    113.6700	  880.00	  697.96	-1592.21	  359.06
    113.7700	  950.00	  724.18	-1548.43	  358.93
    113.8700	  975.00	  756.36	-1555.61	  358.81
    113.9700	  989.00	  795.85	-1581.10	  358.68
    114.0700	 1034.00	  844.21	-1584.46	  358.56
    114.1700	 1139.00	  903.24	-1538.49	  358.44
    114.2700	 1131.00	  974.94	-1618.19	  358.33
    114.3700	 1209.00	 1061.45	-1626.70	  358.21
    114.4700	 1424.00	 1165.07	-1515.32	  358.10
    114.5700	 1447.00	 1288.11	-1615.36	  358.00
    114.6700	 1612.00	 1432.88	-1595.13	  357.89
    114.7700	 1752.00	 1601.56	-1623.81	  357.79
    114.8700	 2014.00	 1795.99	-1556.24	  357.69
    114.9700	 2082.00	 2017.59	-1709.84	  357.60
    115.0700	 2416.00	 2267.18	-1625.43	  357.51
    115.1700	 2484.00	 2544.86	-1835.11	  357.42
    115.2700	 2810.00	 2849.91	-1814.16	  357.33
    115.3700	 3129.00	 3180.45	-1825.70	  357.25
    115.4700	 3439.00	 3533.56	-1868.81	  357.17
    115.5700	 3708.00	 3905.03	-1971.28	  357.10
    115.6700	 4112.00	 4289.56	-1951.81	  357.03
    115.7700	 4406.00	 4680.64	-2048.89	  356.96
    115.8700	 4734.00	 5070.42	-2110.67	  356.89
    115.9700	 5138.00	 5450.03	-2086.28	  356.83
    116.0700	 5497.00	 5809.62	-2086.87	  356.77
    116.1700	 5954.00	 6138.71	-1958.96	  356.72
    116.2700	 6237.00	 6426.55	-1963.80	  356.67
    116.3700	 6608.00	 6662.52	-1828.77	  356.62
    116.4700	 6721.00	 6837.12	-1890.37	  356.58
    116.5700	 7030.00	 6942.75	-1687.00	  356.54
    116.6700	 7097.00	 6974.69	-1651.94	  356.50
    116.7700	 7011.00	 6931.58	-1694.83	  356.47
    116.8700	 7091.00	 6815.70	-1498.95	  356.44
    116.9700	 6706.00	 6632.62	-1700.87	  356.42
    117.0700	 6507.00	 6390.54	-1657.79	  356.40
    117.1700	 6146.00	 6099.28	-1727.53	  356.38
    117.2700	 5810.00	 5769.41	-1733.66	  356.37
    117.3700	 5428.00	 5411.71	-1757.96	  356.36
    117.4700	 4995.00	 5036.44	-1815.69	  356.36
    117.5700	 4711.00	 4653.17	-1716.42	  356.36
    117.6700	 4475.00	 4270.27	-1569.52	  356.36
    117.7700	 4114.00	 3895.04	-1555.29	  356.37
    117.8700	 3673.00	 3533.63	-1634.88	  356.39
    117.9700	 3355.00	 3190.92	-1610.17	  356.40
    118.0700	 2995.00	 2870.62	-1649.87	  356.43
    118.1700	 2570.00	 2575.19	-1779.44	  356.45
    118.2700	 2209.00	 2306.04	-1871.29	  356.48
    118.3700	 1997.00	 2063.75	-1841.00	  356.52
    118.4700	 1778.00	 1848.04	-1844.29	  356.56
    118.5700	 1515.00	 1658.01	-1917.26	  356.61
    118.6700	 1420.00	 1492.21	-1846.46	  356.66
    118.7700	 1216.00	 1348.84	-1907.09	  356.71
    118.8700	 1085.00	 1225.90	-1915.15	  356.77
    118.9700	 1002.00	 1121.25	-1893.50	  356.83
    119.0700	  941.00	 1032.77	-1866.02	  356.90
    119.1700	  911.00	  958.36	-1821.61	  356.98
    119.2700	  885.00	  896.04	-1785.29	  357.06
    119.3700	  777.00	  844.05	-1841.30	  357.14
    119.4700	  729.00	  800.76	-1846.01	  357.23
    119.5700	  693.00	  764.78	-1846.03	  357.33
    119.6700	  679.00	  734.88	-1830.13	  357.43
    119.7700	  639.00	  710.02	-1845.27	  357.53
    119.8700	  665.00	  689.32	-1798.57	  357.64
    119.9700	  630.00	  672.08	-1816.33	  357.76
    120.0700	  613.00	  657.69	-1818.94	  357.88
    120.1700	  607.00	  645.68	-1812.93	  358.00
    120.2700	  562.00	  635.64	-1847.89	  358.14
    120.3700	  570.00	  627.27	-1831.52	  358.27
    120.4700	  560.00	  620.32	-1834.57	  358.42
    120.5700	  590.00	  614.60	-1798.85	  358.57
    120.6700	  557.00	  609.94	-1827.19	  358.72
    120.7700	  575.00	  606.22	-1805.47	  358.88
    120.8700	  571.00	  603.36	-1806.61	  359.05
    120.9700	  586.00	  601.28	-1789.53	  359.22
    121.0700	  586.00	  599.92	-1788.17	  359.40
    121.1700	  558.00	  599.24	-1815.49	  359.58
    121.2700	  549.00	  599.18	-1824.43	  359.77
    121.3700	  539.00	  599.72	-1834.97	  359.97
    121.4700	  581.00	  600.79	-1794.04	  360.17
    121.5700	  588.00	  602.37	-1788.62	  360.38
    121.6700	  589.00	  604.39	-1789.64	  360.59
    121.7700	  593.00	  606.78	-1788.03	  360.81
    121.8700	  542.00	  609.51	-1841.76	  361.04
    121.9700	  582.00	  612.46	-1804.71	  361.27
    122.0700	  598.00	  615.58	-1791.83	  361.51
    122.1700	  567.00	  618.74	-1825.99	  361.76
    122.2700	  663.00	  621.86	-1733.11	  362.01
    122.3700	  648.00	  624.83	-1751.08	  362.27
    122.4700	  696.00	  627.55	-1705.80	  362.54
    122.5700	  660.00	  629.90	-1744.15	  362.81
    122.6700	  675.00	  631.80	-1731.05	  363.09
    122.7700	  654.00	  633.17	-1753.42	  363.38
    122.8700	  603.00	  633.95	-1805.20	  363.67
    122.9700	  662.00	  634.10	-1746.34	  363.97
    123.0700	  689.00	  633.61	-1718.86	  364.28
    123.1700	  652.00	  632.52	-1754.77	  364.59
    123.2700	  691.00	  630.85	-1714.10	  364.92
    123.3700	  666.00	  628.66	-1736.91	  365.24
    123.4700	  665.00	  626.02	-1735.27	  365.58
    123.5700	  640.00	  623.01	-1757.26	  365.92
    123.6700	  625.00	  619.70	-1768.95	  366.28
    123.7700	  628.00	  616.17	-1762.42	  366.63
    123.8700	  656.00	  612.50	-1730.75	  367.00
    123.9700	  637.00	  608.75	-1746.00	  367.37
    124.0700	  641.00	  604.98	-1738.23	  367.75
    124.1700	  634.00	  601.27	-1741.52	  368.14
    124.2700	  615.00	  597.65	-1756.90	  368.54
    124.3700	  602.00	  594.16	-1766.41	  368.94
    124.4700	  588.00	  590.85	-1777.10	  369.36
    124.5700	  509.00	  587.73	-1852.98	  369.77
    124.6700	  572.00	  584.83	-1787.08	  370.20
    124.7700	  677.00	  582.16	-1679.41	  370.64
    124.8700	  605.00	  579.73	-1748.98	  371.08
    124.9700	  570.00	  490.32	-1694.57	  371.53
    125.0700	  607.00	  490.78	-1774.25	  371.99
    125.1700	  614.00	  491.25	-1774.25	  372.46
    125.2700	  551.00	  491.73	-1774.25	  372.94
    125.3700	  568.00	  492.21	-1774.25	  373.43
    125.4700	  603.00	  492.71	-1774.25	  373.92
    125.5700	  560.00	  493.21	-1774.25	  374.42
    125.6700	  568.00	  493.72	-1774.25	  374.93
    125.7700	  574.00	  494.24	-1774.25	  375.45
    125.8700	  569.00	  494.77	-1774.25	  375.98
    125.9700	  636.00	  495.30	-1774.25	  376.52
    126.0700	  553.00	  495.85	-1774.25	  377.06
    126.1700	  596.00	  496.40	-1774.25	  377.62
    126.2700	  540.00	  496.97	-1774.25	  378.18
    126.3700	  648.00	  497.54	-1774.25	  378.75
    126.4700	  599.00	  498.12	-1774.25	  379.34
    126.5700	  572.00	  498.71	-1774.25	  379.93
    126.6700	  612.00	  499.31	-1774.25	  380.53
    126.7700	  565.00	  499.92	-1774.25	  381.14
    126.8700	  642.00	  500.54	-1774.25	  381.76
    126.9700	  611.00	  501.17	-1774.25	  382.38
    127.0700	  609.00	  501.81	-1774.25	  383.02
    127.1700	  635.00	  502.46	-1774.25	  383.67
    127.2700	  612.00	  503.11	-1774.25	  384.33
    127.3700	  625.00	  503.78	-1774.25	  384.99
    127.4700	  628.00	  504.46	-1774.25	  385.67
    127.5700	  655.00	  505.14	-1774.25	  386.36
    127.6700	  696.00	  505.84	-1774.25	  387.05
    127.7700	  695.00	  506.54	-1774.25	  387.76
    127.8700	  734.00	  507.26	-1774.25	  388.47
    127.9700	  733.00	  507.99	-1774.25	  389.20
    128.0700	  749.00	  508.72	-1774.25	  389.94
    128.1700	  718.00	  509.47	-1774.25	  390.68
    128.2700	  775.00	  510.23	-1774.25	  391.44
    128.3700	  804.00	  510.99	-1774.25	  392.21
    128.4700	  775.00	  511.77	-1774.25	  392.99
    128.5700	    0.00	  512.56	-1774.25	  393.78
    128.6700	    0.00	  513.36	-1774.25	  394.57
     12.3082	        	        	        	        	       0	(  0  0  2)	  0  1
     24.8921	        	        	        	        	       0	(  0  0  4)	  0  1
     28.3332	        	        	        	        	       0	(  1  0  0)	  0  1
     29.0304	        	        	        	        	       0	(  1  0  1)	  0  1
     31.0368	        	        	        	        	       0	(  1  0  2)	  0  1
     34.1454	        	        	        	        	       0	(  1  0  3)	  0  1
     37.7921	        	        	        	        	       0	(  0  0  6)	  0  1
     38.1228	        	        	        	        	       0	(  1  0  4)	  0  1
     42.7732	        	        	        	        	       0	(  1  0  5)	  0  1
     47.9576	        	        	        	        	       0	(  1  0  6)	  0  1
     50.2707	        	        	        	        	       0	(  1  1  0)	  0  1
     51.2143	        	        	        	        	       0	(  0  0  8)	  0  1
     51.9939	        	        	        	        	       0	(  1  1  2)	  0  1
     53.5883	        	        	        	        	       0	(  1  0  7)	  0  1
     56.9421	        	        	        	        	       0	(  1  1  4)	  0  1
     58.7679	        	        	        	        	       0	(  2  0  0)	  0  1
     59.1595	        	        	        	        	       0	(  2  0  1)	  0  1
     59.6190	        	        	        	        	       0	(  1  0  8)	  0  1
     60.3250	        	        	        	        	       0	(  2  0  2)	  0  1
     62.2384	        	        	        	        	       0	(  2  0  3)	  0  1
     64.6374	        	        	        	        	       0	(  1  1  6)	  0  1
     64.8627	        	        	        	        	       0	(  2  0  4)	  0  1
     65.4440	        	        	        	        	       0	(  0  0 10)	  0  1
     66.0357	        	        	        	        	       0	(  1  0  9)	  0  1
     68.1572	        	        	        	        	       0	(  2  0  5)	  0  1
     72.0850	        	        	        	        	       0	(  2  0  6)	  0  1
     72.8521	        	        	        	        	       0	(  1  0 10)	  0  1
     74.6758	        	        	        	        	       0	(  1  1  8)	  0  1
     76.6194	        	        	        	        	       0	(  2  0  7)	  0  1
     80.1101	        	        	        	        	       0	(  1  0 11)	  0  1
     80.9249	        	        	        	        	       0	(  0  0 12)	  0  1
     81.0099	        	        	        	        	       0	(  2  1  0)	  0  1
     81.3498	        	        	        	        	       0	(  2  1  1)	  0  1
     81.7500	        	        	        	        	       0	(  2  0  8)	  0  1
     82.3678	        	        	        	        	       0	(  2  1  2)	  0  1
     84.0592	        	        	        	        	       0	(  2  1  3)	  0  1
     86.4191	        	        	        	        	       0	(  2  1  4)	  0  1
     86.9479	        	        	        	        	       0	(  1  1 10)	  0  1
     87.4885	        	        	        	        	       0	(  2  0  9)	  0  1
     87.8847	        	        	        	        	       0	(  1  0 12)	  0  1
     89.4451	        	        	        	        	       0	(  2  1  5)	  0  1
     93.1428	        	        	        	        	       0	(  2  1  6)	  0  1
     93.8763	        	        	        	        	       0	(  2  0 10)	  0  1
     94.8995	        	        	        	        	       0	(  3  0  0)	  0  1
     95.2369	        	        	        	        	       0	(  3  0  1)	  0  1
     96.2502	        	        	        	        	       0	(  3  0  2)	  0  1
     96.2984	        	        	        	        	       0	(  1  0 13)	  0  1
     97.5318	        	        	        	        	       0	(  2  1  7)	  0  1
     97.9436	        	        	        	        	       0	(  3  0  3)	  0  1
     98.4651	        	        	        	        	       0	(  0  0 14)	  0  1
    100.3268	        	        	        	        	       0	(  3  0  4)	  0  1
    100.9987	        	        	        	        	       0	(  2  0 11)	  0  1
    101.8193	        	        	        	        	       0	(  1  1 12)	  0  1
    102.6546	        	        	        	        	       0	(  2  1  8)	  0  1
    103.4187	        	        	        	        	       0	(  3  0  5)	  0  1
    105.5518	        	        	        	        	       0	(  1  0 14)	  0  1
    107.2542	        	        	        	        	       0	(  3  0  6)	  0  1
    108.5920	        	        	        	        	       0	(  2  1  9)	  0  1
    109.0106	        	        	        	        	       0	(  2  0 12)	  0  1
    111.8949	        	        	        	        	       0	(  3  0  7)	  0  1
    115.4896	        	        	        	        	       0	(  2  1 10)	  0  1
    115.9963	        	        	        	        	       0	(  1  0 15)	  0  1
    116.6262	        	        	        	        	       0	(  2  2  0)	  0  1
    117.4490	        	        	        	        	       0	(  3  0  8)	  0  1
    118.1416	        	        	        	        	       0	(  2  2  2)	  0  1
    118.1961	        	        	        	        	       0	(  2  0 13)	  0  1
    119.9558	        	        	        	        	       0	(  0  0 16)	  0  1
    120.6656	        	        	        	        	       0	(  1  1 14)	  0  1
    122.8277	        	        	        	        	       0	(  2  2  4)	  0  1
    123.6177	        	        	        	        	       0	(  2  1 11)	  0  1
    124.1098	        	        	        	        	       0	(  3  0  9)	  0  1
    124.6925	        	        	        	        	       0	(  3  1  0)	  0  1
    125.1028	        	        	        	        	       0	(  3  1  1)	  0  1
    126.3464	        	        	        	        	       0	(  3  1  2)	  0  1
    128.3422	        	        	        	        	       0	(  1  0 16)	  0  1
    128.4649	        	        	        	        	       0	(  3  1  3)	  0  1
    129.1282	        	        	        	        	       0	(  2  0 14)	  0  1
    131.2689	        	        	        	        	       0	(  2  2  6)	  0  1
    131.5414	        	        	        	        	       0	(  3  1  4)	  0  1
    132.2522	        	        	        	        	       0	(  3  0 10)	  0  1
    133.5323	        	        	        	        	       0	(  2  1 12)	  0  1
    135.7294	        	        	        	        	       0	(  3  1  5)	  0  1
    141.3264	        	        	        	        	       0	(  3  1  6)	  0  1
    142.7347	        	        	        	        	       0	(  3  0 11)	  0  1
    143.2747	        	        	        	        	       0	(  2  0 15)	  0  1
    144.5207	        	        	        	        	       0	(  1  0 17)	  0  1
    145.5075	        	        	        	        	       0	(  2  2  8)	  0  1
    146.6948	        	        	        	        	       0	(  2  1 13)	  0  1
    149.0031	        	        	        	        	       0	(  3  1  7)	  0  1
    149.6166	        	        	        	        	       0	(  1  1 16)	  0  1
    154.0325	        	        	        	        	       0	(  0  0 18)	  0  1
    158.6302	        	        	        	        	       0	(  3  0 12)	  0  1
    158.8633	        	        	        	        	       0	(  4  0  0)	  0  1
    159.8213	        	        	        	        	       0	(  4  0  1)	  0  1
    161.0101	        	        	        	        	       0	(  3  1  8)	  0  1
    163.0050	        	        	        	        	       0	(  4  0  2)	  0  1
    169.8111	        	        	        	        	       0	(  2  0 16)	  0  1
    170.3763	        	        	        	        	       0	(  4  0  3)	  0  1
    174.3156	        	        	        	        	       0	(  2  1 14)	  0  1
