MSG Master    CELL:    5.91930   5.91930  23.27661   90.0000   90.0000  120.0000   SPGR: P 63/m m c             TEMP:   1061.95
  1   1280     2.52000     0.00000    -0.12254     0.00000     0.00000    0
    99     0     2
       0.00000      10.00000
     125.00000     130.00000
 2Theta	Yobs	Ycal	Yobs-Ycal	Backg	Posr	(hkl)	K
      0.7700	    0.00	  522.23	-1717.75	  404.44
      0.8700	    0.00	  523.19	-1717.75	  405.41
      0.9700	   41.00	  524.15	-1717.75	  406.37
      1.0700	   46.00	  525.09	-1717.75	  407.31
      1.1700	   48.00	  526.03	-1717.75	  408.24
      1.2700	   38.00	  526.94	-1717.75	  409.16
      1.3700	   41.00	  527.85	-1717.75	  410.07
      1.4700	   90.00	  528.74	-1717.75	  410.96
      1.5700	  303.00	  529.63	-1717.75	  411.84
      1.6700	  450.00	  530.50	-1717.75	  412.71
      1.7700	  574.00	  531.35	-1717.75	  413.57
      1.8700	  620.00	  532.20	-1717.75	  414.41
      1.9700	  720.00	  533.03	-1717.75	  415.24
      2.0700	  759.00	  533.85	-1717.75	  416.07
      2.1700	  797.00	  534.66	-1717.75	  416.87
      2.2700	  718.00	  535.46	-1717.75	  417.67
      2.3700	  786.00	  536.24	-1717.75	  418.46
      2.4700	  778.00	  537.02	-1717.75	  419.23
      2.5700	  688.00	  537.78	-1717.75	  420.00
      2.6700	  665.00	  538.53	-1717.75	  420.75
      2.7700	  613.00	  539.27	-1717.75	  421.49
      2.8700	  624.00	  540.00	-1717.75	  422.22
      2.9700	  598.00	  540.72	-1717.75	  422.93
      3.0700	  601.00	  541.43	-1717.75	  423.64
      3.1700	  592.00	  542.12	-1717.75	  424.33
      3.2700	  632.00	  542.81	-1717.75	  425.02
      3.3700	  710.00	  543.48	-1717.75	  425.69
      3.4700	  797.00	  544.14	-1717.75	  426.36
      3.5700	  889.00	  544.79	-1717.75	  427.01
      3.6700	  927.00	  545.43	-1717.75	  427.65
      3.7700	  984.00	  546.07	-1717.75	  428.28
      3.8700	 1011.00	  546.69	-1717.75	  428.90
      3.9700	 1049.00	  547.30	-1717.75	  429.51
      4.0700	  979.00	  547.90	-1717.75	  430.11
      4.1700	 1153.00	  548.49	-1717.75	  430.70
      4.2700	 1146.00	  549.06	-1717.75	  431.28
      4.3700	 1105.00	  549.63	-1717.75	  431.85
      4.4700	 1097.00	  550.19	-1717.75	  432.41
      4.5700	 1043.00	  550.74	-1717.75	  432.96
      4.6700	 1002.00	  551.28	-1717.75	  433.49
      4.7700	 1024.00	  551.81	-1717.75	  434.02
      4.8700	  999.00	  552.33	-1717.75	  434.54
      4.9700	  986.00	  552.84	-1717.75	  435.05
      5.0700	 1019.00	  553.34	-1717.75	  435.55
      5.1700	  925.00	  553.83	-1717.75	  436.04
      5.2700	  906.00	  554.31	-1717.75	  436.53
      5.3700	  813.00	  554.78	-1717.75	  437.00
      5.4700	  950.00	  555.25	-1717.75	  437.46
      5.5700	  849.00	  555.70	-1717.75	  437.91
      5.6700	  833.00	  556.14	-1717.75	  438.36
      5.7700	  830.00	  556.58	-1717.75	  438.79
      5.8700	  826.00	  557.00	-1717.75	  439.22
      5.9700	  836.00	  557.42	-1717.75	  439.64
      6.0700	  836.00	  557.83	-1717.75	  440.04
      6.1700	  758.00	  558.23	-1717.75	  440.44
      6.2700	  779.00	  558.62	-1717.75	  440.83
      6.3700	  741.00	  559.00	-1717.75	  441.22
      6.4700	  777.00	  559.37	-1717.75	  441.59
      6.5700	  759.00	  559.74	-1717.75	  441.95
      6.6700	  741.00	  560.09	-1717.75	  442.31
      6.7700	  735.00	  560.44	-1717.75	  442.66
      6.8700	  742.00	  560.78	-1717.75	  443.00
      6.9700	  689.00	  561.11	-1717.75	  443.33
      7.0700	  664.00	  561.44	-1717.75	  443.65
      7.1700	  634.00	  561.75	-1717.75	  443.96
      7.2700	  686.00	  562.06	-1717.75	  444.27
      7.3700	  676.00	  562.36	-1717.75	  444.57
      7.4700	  623.00	  562.65	-1717.75	  444.86
      7.5700	  692.00	  562.93	-1717.75	  445.14
      7.6700	  673.00	  563.20	-1717.75	  445.42
      7.7700	  653.00	  563.47	-1717.75	  445.69
      7.8700	  629.00	  563.73	-1717.75	  445.94
      7.9700	  633.00	  563.98	-1717.75	  446.20
      8.0700	  593.00	  564.23	-1717.75	  446.44
      8.1700	  648.00	  564.46	-1717.75	  446.68
      8.2700	  604.00	  564.69	-1717.75	  446.91
      8.3700	  633.00	  564.91	-1717.75	  447.13
      8.4700	  638.00	  565.13	-1717.75	  447.34
      8.5700	  625.00	  565.34	-1717.75	  447.55
      8.6700	  668.00	  565.54	-1717.75	  447.75
      8.7700	  585.00	  565.73	-1717.75	  447.94
      8.8700	  633.00	  565.92	-1717.75	  448.13
      8.9700	  587.00	  566.10	-1717.75	  448.31
      9.0700	  591.00	  566.27	-1717.75	  448.48
      9.1700	  613.00	  566.43	-1717.75	  448.65
      9.2700	  585.00	  566.59	-1717.75	  448.80
      9.3700	  615.00	  566.74	-1717.75	  448.96
      9.4700	  630.00	  566.89	-1717.75	  449.10
      9.5700	  575.00	  567.03	-1717.75	  449.24
      9.6700	  610.00	  567.16	-1717.75	  449.37
      9.7700	  620.00	  567.28	-1717.75	  449.50
      9.8700	  614.00	  567.40	-1717.75	  449.62
      9.9700	  605.00	  567.51	-1717.75	  449.73
     10.0700	  582.00	  568.69	-1704.44	  449.83
     10.1700	  602.00	  568.90	-1684.65	  449.93
     10.2700	  560.00	  569.15	-1726.90	  450.03
     10.3700	  584.00	  569.43	-1703.18	  450.11
     10.4700	  579.00	  569.78	-1708.53	  450.20
     10.5700	  588.00	  570.26	-1700.01	  450.27
     10.6700	  622.00	  570.98	-1666.73	  450.34
     10.7700	  590.00	  572.05	-1699.80	  450.40
     10.8700	  583.00	  573.55	-1708.30	  450.46
     10.9700	  615.00	  575.46	-1678.21	  450.51
     11.0700	  545.00	  577.78	-1750.53	  450.56
     11.1700	  587.00	  580.49	-1711.24	  450.60
     11.2700	  561.00	  583.64	-1740.39	  450.63
     11.3700	  592.00	  587.31	-1713.06	  450.66
     11.4700	  574.00	  591.65	-1735.40	  450.68
     11.5700	  564.00	  596.90	-1750.65	  450.70
     11.6700	  609.00	  603.44	-1712.19	  450.71
     11.7700	  618.00	  611.92	-1711.67	  450.72
     11.8700	  624.00	  623.14	-1716.89	  450.72
     11.9700	  639.00	  637.40	-1716.15	  450.72
     12.0700	  697.00	  652.70	-1673.45	  450.71
     12.1700	  642.00	  663.03	-1738.78	  450.70
     12.2700	  689.00	  659.35	-1688.10	  450.68
     12.3700	  660.00	  638.95	-1696.70	  450.65
     12.4700	  669.00	  613.56	-1662.31	  450.62
     12.5700	  596.00	  594.07	-1715.82	  450.59
     12.6700	  588.00	  582.60	-1712.35	  450.55
     12.7700	  591.00	  576.88	-1703.63	  450.51
     12.8700	  589.00	  574.14	-1702.89	  450.46
     12.9700	  547.00	  572.66	-1743.41	  450.40
     13.0700	  532.00	  571.71	-1757.46	  450.34
     13.1700	  535.00	  571.02	-1753.77	  450.28
     13.2700	  570.00	  570.48	-1718.23	  450.21
     13.3700	  615.00	  570.05	-1672.80	  450.14
     13.4700	  521.00	  569.69	-1766.44	  450.07
     13.5700	  577.00	  569.39	-1710.14	  449.98
     13.6700	  564.00	  569.12	-1722.87	  449.90
     13.7700	  575.00	  568.88	-1711.63	  449.81
     13.8700	  570.00	  568.66	-1716.41	  449.72
     13.9700	  577.00	  568.45	-1709.20	  449.62
     14.0700	  515.00	  568.26	-1771.01	  449.52
     14.1700	  563.00	  568.08	-1722.83	  449.41
     14.2700	  557.00	  567.90	-1728.65	  449.30
     14.3700	  549.00	  567.73	-1736.48	  449.18
     14.4700	  557.00	  567.56	-1728.31	  449.06
     14.5700	  530.00	  567.39	-1755.14	  448.94
     14.6700	  570.00	  567.22	-1714.97	  448.82
     14.7700	  546.00	  567.06	-1738.81	  448.68
     14.8700	  557.00	  566.89	-1727.64	  448.55
     14.9700	  579.00	  566.73	-1705.48	  448.41
     15.0700	  601.00	  566.56	-1683.31	  448.27
     15.1700	  549.00	  566.39	-1735.14	  448.13
     15.2700	  535.00	  566.22	-1748.97	  447.98
     15.3700	  592.00	  566.05	-1691.80	  447.82
     15.4700	  552.00	  565.88	-1731.63	  447.67
     15.5700	  589.00	  565.73	-1694.48	  447.51
     15.6700	  565.00	  565.55	-1718.30	  447.34
     15.7700	  552.00	  565.37	-1731.12	  447.18
     15.8700	  548.00	  565.19	-1734.94	  447.01
     15.9700	  583.00	  565.01	-1699.76	  446.83
     16.0700	  555.00	  564.82	-1727.57	  446.66
     16.1700	  559.00	  564.63	-1723.38	  446.48
     16.2700	  534.00	  564.44	-1748.19	  446.30
     16.3700	  538.00	  564.25	-1744.00	  446.11
     16.4700	  581.00	  564.05	-1700.80	  445.92
     16.5700	  556.00	  563.86	-1725.61	  445.73
     16.6700	  593.00	  563.65	-1688.40	  445.53
     16.7700	  545.00	  563.45	-1736.20	  445.33
     16.8700	  586.00	  563.25	-1695.00	  445.13
     16.9700	  534.00	  563.04	-1746.79	  444.93
     17.0700	  576.00	  562.83	-1704.58	  444.72
     17.1700	  588.00	  562.61	-1692.36	  444.51
     17.2700	  547.00	  562.40	-1733.15	  444.30
     17.3700	  548.00	  562.18	-1731.93	  444.09
     17.4700	  583.00	  561.96	-1696.71	  443.87
     17.5700	  523.00	  561.74	-1756.49	  443.65
     17.6700	  557.00	  561.51	-1722.26	  443.42
     17.7700	  610.00	  561.28	-1669.03	  443.20
     17.8700	  563.00	  561.05	-1715.80	  442.97
     17.9700	  551.00	  560.82	-1727.57	  442.74
     18.0700	  597.00	  560.69	-1681.44	  442.51
     18.1700	  593.00	  560.46	-1685.21	  442.27
     18.2700	  602.00	  560.22	-1675.97	  442.03
     18.3700	  559.00	  559.98	-1718.73	  441.79
     18.4700	  565.00	  559.74	-1712.49	  441.55
     18.5700	  563.00	  559.50	-1714.25	  441.31
     18.6700	  533.00	  559.26	-1744.01	  441.06
     18.7700	  558.00	  559.10	-1718.85	  440.81
     18.8700	  549.00	  558.85	-1727.60	  440.56
     18.9700	  541.00	  558.60	-1735.35	  440.31
     19.0700	  575.00	  558.35	-1701.10	  440.05
     19.1700	  568.00	  558.10	-1707.85	  439.80
     19.2700	  540.00	  557.85	-1735.60	  439.54
     19.3700	  559.00	  557.59	-1716.34	  439.27
     19.4700	  537.00	  557.34	-1738.09	  439.01
     19.5700	  556.00	  557.08	-1718.83	  438.75
     19.6700	  519.00	  556.82	-1755.57	  438.48
     19.7700	  546.00	  556.56	-1728.31	  438.21
     19.8700	  539.00	  556.30	-1735.05	  437.94
     19.9700	  486.00	  556.04	-1787.79	  437.67
     20.0700	  547.00	  555.77	-1726.52	  437.40
     20.1700	  564.00	  555.51	-1709.26	  437.12
     20.2700	  501.00	  555.24	-1771.99	  436.84
     20.3700	  554.00	  554.98	-1718.73	  436.56
     20.4700	  538.00	  554.71	-1734.46	  436.28
     20.5700	  569.00	  554.44	-1703.19	  436.00
     20.6700	  552.00	  554.20	-1719.95	  435.72
     20.7700	  550.00	  553.93	-1721.68	  435.44
     20.8700	  551.00	  553.66	-1720.41	  435.15
     20.9700	  515.00	  553.40	-1756.15	  434.86
     21.0700	  580.00	  553.13	-1690.88	  434.57
     21.1700	  544.00	  552.86	-1726.61	  434.28
     21.2700	  517.00	  552.55	-1753.30	  433.99
     21.3700	  573.00	  552.28	-1697.03	  433.70
     21.4700	  541.00	  552.01	-1728.76	  433.41
     21.5700	  528.00	  551.74	-1741.49	  433.11
     21.6700	  565.00	  551.47	-1704.22	  432.81
     21.7700	  574.00	  551.21	-1694.96	  432.52
     21.8700	  561.00	  550.94	-1707.69	  432.22
     21.9700	  518.00	  550.68	-1750.43	  431.92
     22.0700	  555.00	  550.42	-1713.17	  431.62
     22.1700	  566.00	  550.16	-1701.91	  431.32
     22.2700	  525.00	  549.91	-1742.66	  431.02
     22.3700	  571.00	  549.66	-1696.41	  430.71
     22.4700	  571.00	  549.41	-1696.16	  430.41
     22.5700	  558.00	  549.17	-1708.92	  430.10
     22.6700	  536.00	  548.93	-1730.68	  429.80
     22.7700	  577.00	  548.71	-1689.46	  429.49
     22.8700	  555.00	  548.49	-1711.24	  429.18
     22.9700	  501.00	  548.28	-1765.03	  428.87
     23.0700	  491.00	  548.09	-1774.84	  428.57
     23.1700	  544.00	  547.92	-1721.67	  428.26
     23.2700	  550.00	  547.78	-1715.53	  427.95
     23.3700	  582.00	  547.66	-1683.41	  427.63
     23.4700	  557.00	  547.73	-1708.48	  427.32
     23.5700	  581.00	  547.72	-1684.47	  427.01
     23.6700	  526.00	  547.80	-1739.55	  426.70
     23.7700	  593.00	  548.01	-1672.76	  426.38
     23.8700	  545.00	  548.48	-1721.23	  426.07
     23.9700	  552.00	  549.43	-1715.18	  425.76
     24.0700	  545.00	  551.29	-1724.04	  425.44
     24.1700	  534.00	  554.68	-1738.43	  425.13
     24.2700	  592.00	  560.40	-1686.15	  424.81
     24.3700	  585.00	  569.33	-1702.08	  424.49
     24.4700	  587.00	  582.19	-1712.94	  424.18
     24.5700	  571.00	  598.76	-1745.51	  423.86
     24.6700	  601.00	  616.19	-1732.94	  423.55
     24.7700	  626.00	  627.72	-1719.47	  423.23
     24.8700	  623.00	  624.65	-1719.40	  422.91
     24.9700	  595.00	  606.12	-1728.87	  422.59
     25.0700	  618.00	  583.40	-1683.15	  422.28
     25.1700	  578.00	  565.66	-1705.41	  421.96
     25.2700	  577.00	  554.88	-1695.63	  421.64
     25.3700	  546.00	  549.30	-1721.05	  421.32
     25.4700	  545.00	  546.55	-1719.30	  421.00
     25.5700	  524.00	  545.07	-1738.82	  420.69
     25.6700	  543.00	  544.13	-1718.88	  420.37
     25.7700	  575.00	  543.46	-1686.21	  420.05
     25.8700	  563.00	  542.95	-1697.70	  419.73
     25.9700	  540.00	  542.57	-1720.32	  419.41
     26.0700	  561.00	  542.29	-1699.04	  419.09
     26.1700	  573.00	  542.10	-1686.85	  418.78
     26.2700	  528.00	  541.99	-1731.74	  418.46
     26.3700	  542.00	  541.97	-1717.72	  418.14
     26.4700	  534.00	  542.04	-1725.79	  417.82
     26.5700	  584.00	  542.20	-1675.95	  417.51
     26.6700	  553.00	  542.49	-1707.24	  417.19
     26.7700	  539.00	  542.92	-1721.67	  416.87
     26.8700	  572.00	  543.52	-1689.27	  416.55
     26.9700	  538.00	  544.35	-1724.10	  416.24
     27.0700	  527.00	  545.49	-1736.24	  415.92
     27.1700	  595.00	  547.07	-1669.82	  415.60
     27.2700	  569.00	  549.33	-1698.08	  415.29
     27.3700	  513.00	  552.80	-1757.55	  414.97
     27.4700	  578.00	  558.43	-1698.18	  414.66
     27.5700	  553.00	  568.02	-1732.77	  414.34
     27.6700	  527.00	  584.38	-1775.13	  414.03
     27.7700	  616.00	  611.17	-1712.92	  413.72
     27.8700	  611.00	  651.64	-1758.39	  413.40
     27.9700	  702.00	  706.09	-1721.84	  413.09
     28.0700	  803.00	  768.50	-1683.25	  412.78
     28.1700	  868.00	  823.51	-1673.26	  412.47
     28.2700	  971.00	  847.72	-1594.47	  412.15
     28.3700	  858.00	  826.53	-1686.28	  411.84
     28.4700	  826.00	  781.03	-1672.78	  411.53
     28.5700	  757.00	  747.81	-1708.56	  411.22
     28.6700	  655.00	  744.06	-1806.81	  410.92
     28.7700	  775.00	  765.51	-1708.26	  410.61
     28.8700	  800.00	  792.64	-1710.39	  410.30
     28.9700	  781.00	  797.75	-1734.50	  409.99
     29.0700	  782.00	  762.67	-1698.42	  409.69
     29.1700	  689.00	  701.53	-1730.28	  409.38
     29.2700	  643.00	  642.35	-1717.10	  409.08
     29.3700	  637.00	  599.03	-1679.78	  408.77
     29.4700	  555.00	  572.41	-1735.16	  408.47
     29.5700	  604.00	  557.78	-1671.53	  408.16
     29.6700	  584.00	  549.97	-1683.72	  407.86
     29.7700	  581.00	  545.53	-1682.28	  407.56
     29.8700	  637.00	  542.76	-1623.51	  407.26
     29.9700	  569.00	  540.98	-1689.73	  406.96
     30.0700	  546.00	  540.00	-1711.75	  406.66
     30.1700	  582.00	  539.95	-1675.70	  406.37
     30.2700	  547.00	  541.28	-1712.03	  406.07
     30.3700	  555.00	  544.88	-1707.63	  405.77
     30.4700	  532.00	  552.06	-1737.81	  405.48
     30.5700	  629.00	  564.18	-1652.93	  405.18
     30.6700	  569.00	  581.57	-1730.32	  404.89
     30.7700	  571.00	  601.97	-1748.72	  404.60
     30.8700	  608.00	  619.74	-1729.49	  404.31
     30.9700	  559.00	  626.21	-1784.96	  404.02
     31.0700	  600.00	  615.31	-1733.06	  403.73
     31.1700	  578.00	  592.53	-1732.28	  403.44
     31.2700	  544.00	  569.22	-1742.97	  403.15
     31.3700	  559.00	  551.63	-1710.38	  402.87
     31.4700	  513.00	  540.62	-1745.37	  402.58
     31.5700	  529.00	  534.54	-1723.29	  402.30
     31.6700	  528.00	  531.33	-1721.08	  402.02
     31.7700	  499.00	  529.54	-1748.29	  401.73
     31.8700	  549.00	  528.43	-1697.18	  401.45
     31.9700	  551.00	  527.68	-1694.43	  401.17
     32.0700	  556.00	  527.16	-1688.91	  400.90
     32.1700	  576.00	  526.83	-1668.58	  400.62
     32.2700	  556.00	  526.66	-1688.41	  400.34
     32.3700	  562.00	  526.65	-1682.40	  400.07
     32.4700	  571.00	  526.80	-1673.55	  399.80
     32.5700	  518.00	  527.14	-1726.89	  399.52
     32.6700	  552.00	  527.69	-1693.44	  399.25
     32.7700	  525.00	  528.51	-1721.26	  398.98
     32.8700	  552.00	  529.68	-1695.43	  398.71
     32.9700	  557.00	  531.33	-1692.08	  398.45
     33.0700	  557.00	  533.70	-1694.45	  398.18
     33.1700	  575.00	  537.30	-1680.05	  397.92
     33.2700	  546.00	  543.28	-1715.03	  397.65
     33.3700	  526.00	  553.99	-1745.74	  397.39
     33.4700	  548.00	  573.79	-1743.54	  397.13
     33.5700	  604.00	  609.34	-1723.09	  396.87
     33.6700	  657.00	  667.87	-1728.62	  396.61
     33.7700	  774.00	  752.06	-1695.81	  396.35
     33.8700	  893.00	  852.55	-1677.30	  396.10
     33.9700	  970.00	  943.11	-1690.86	  395.85
     34.0700	 1030.00	  983.81	-1671.56	  395.59
     34.1700	 1015.00	  944.76	-1647.51	  395.34
     34.2700	  892.00	  845.38	-1671.13	  395.09
     34.3700	  795.00	  736.30	-1659.05	  394.84
     34.4700	  672.00	  649.69	-1695.44	  394.60
     34.5700	  614.00	  593.27	-1697.02	  394.35
     34.6700	  547.00	  561.37	-1732.12	  394.11
     34.7700	  518.00	  544.68	-1744.43	  393.86
     34.8700	  554.00	  535.77	-1699.52	  393.62
     34.9700	  521.00	  530.46	-1727.21	  393.38
     35.0700	  542.00	  526.83	-1702.58	  393.15
     35.1700	  499.00	  524.11	-1742.86	  392.91
     35.2700	  551.00	  521.98	-1688.73	  392.67
     35.3700	  516.00	  520.24	-1721.99	  392.44
     35.4700	  547.00	  518.81	-1689.56	  392.21
     35.5700	  513.00	  517.60	-1722.35	  391.98
     35.6700	  540.00	  516.57	-1694.32	  391.75
     35.7700	  502.00	  515.68	-1731.43	  391.52
     35.8700	  494.00	  514.90	-1738.65	  391.29
     35.9700	  555.00	  514.21	-1676.96	  391.07
     36.0700	  505.00	  514.04	-1726.79	  390.85
     36.1700	  505.00	  513.50	-1726.25	  390.63
     36.2700	  546.00	  513.01	-1684.76	  390.41
     36.3700	  490.00	  512.57	-1740.32	  390.19
     36.4700	  485.00	  512.18	-1744.93	  389.97
     36.5700	  519.00	  511.83	-1710.58	  389.76
     36.6700	  512.00	  511.54	-1717.29	  389.54
     36.7700	  515.00	  511.30	-1714.05	  389.33
     36.8700	  520.00	  511.16	-1708.91	  389.12
     36.9700	  487.00	  511.20	-1741.95	  388.91
     37.0700	  537.00	  511.56	-1692.31	  388.71
     37.1700	  525.00	  512.52	-1705.27	  388.50
     37.2700	  453.00	  514.45	-1779.20	  388.30
     37.3700	  512.00	  517.64	-1723.39	  388.10
     37.4700	  526.00	  521.93	-1713.68	  387.90
     37.5700	  511.00	  526.47	-1733.22	  387.70
     37.6700	  500.00	  529.63	-1747.38	  387.50
     37.7700	  505.00	  529.69	-1742.44	  387.31
     37.8700	  534.00	  526.40	-1710.15	  387.11
     37.9700	  542.00	  521.55	-1697.30	  386.92
     38.0700	  497.00	  516.89	-1737.64	  386.73
     38.1700	  495.00	  513.18	-1735.93	  386.54
     38.2700	  494.00	  510.56	-1734.31	  386.35
     38.3700	  487.00	  508.84	-1739.59	  386.17
     38.4700	  555.00	  507.75	-1670.50	  385.99
     38.5700	  552.00	  507.04	-1672.79	  385.80
     38.6700	  514.00	  506.45	-1710.20	  385.62
     38.7700	  514.00	  506.07	-1709.82	  385.45
     38.8700	  501.00	  505.77	-1722.52	  385.27
     38.9700	  485.00	  505.50	-1738.25	  385.10
     39.0700	  493.00	  505.41	-1730.16	  384.92
     39.1700	  524.00	  505.20	-1698.95	  384.75
     39.2700	  546.00	  505.00	-1676.75	  384.58
     39.3700	  503.00	  504.73	-1719.48	  384.41
     39.4700	  508.00	  504.56	-1714.31	  384.25
     39.5700	  508.00	  504.40	-1714.15	  384.08
     39.6700	  513.00	  504.25	-1709.00	  383.92
     39.7700	  527.00	  504.11	-1694.86	  383.76
     39.8700	  500.00	  503.98	-1721.73	  383.60
     39.9700	  524.00	  503.86	-1697.61	  383.44
     40.0700	  489.00	  503.75	-1732.50	  383.29
     40.1700	  491.00	  503.65	-1730.40	  383.14
     40.2700	  503.00	  503.56	-1718.31	  382.98
     40.3700	  486.00	  503.48	-1735.23	  382.83
     40.4700	  506.00	  503.42	-1715.17	  382.69
     40.5700	  518.00	  503.38	-1703.13	  382.54
     40.6700	  477.00	  503.35	-1744.10	  382.39
     40.7700	  479.00	  503.34	-1742.09	  382.25
     40.8700	  456.00	  503.36	-1765.11	  382.11
     40.9700	  499.00	  503.40	-1722.15	  381.97
     41.0700	  504.00	  503.48	-1717.23	  381.83
     41.1700	  497.00	  503.60	-1724.35	  381.70
     41.2700	  510.00	  503.78	-1711.53	  381.56
     41.3700	  529.00	  504.47	-1693.22	  381.43
     41.4700	  508.00	  504.78	-1714.53	  381.30
     41.5700	  463.00	  505.24	-1759.99	  381.17
     41.6700	  509.00	  505.90	-1714.65	  381.04
     41.7700	  459.00	  506.88	-1765.63	  380.92
     41.8700	  505.00	  508.52	-1721.27	  380.80
     41.9700	  492.00	  511.48	-1737.23	  380.67
     42.0700	  524.00	  516.97	-1710.72	  380.55
     42.1700	  490.00	  526.80	-1754.55	  380.44
     42.2700	  552.00	  542.90	-1708.65	  380.32
     42.3700	  575.00	  566.25	-1709.00	  380.21
     42.4700	  566.00	  594.85	-1746.60	  380.09
     42.5700	  633.00	  622.70	-1707.45	  379.98
     42.6700	  596.00	  640.09	-1761.84	  379.87
     42.7700	  592.00	  637.93	-1763.68	  379.77
     42.8700	  573.00	  616.82	-1761.57	  379.66
     42.9700	  550.00	  587.05	-1754.80	  379.56
     43.0700	  566.00	  558.72	-1710.47	  379.46
     43.1700	  505.00	  536.92	-1749.67	  379.36
     43.2700	  495.00	  522.54	-1745.29	  379.26
     43.3700	  493.00	  514.13	-1738.88	  379.16
     43.4700	  491.00	  509.57	-1736.32	  379.07
     43.5700	  502.00	  507.33	-1723.08	  378.97
     43.6700	  460.00	  505.91	-1763.66	  378.88
     43.7700	  542.00	  504.99	-1680.74	  378.79
     43.8700	  516.00	  504.33	-1706.08	  378.71
     43.9700	  523.00	  503.83	-1698.58	  378.62
     44.0700	  479.00	  503.45	-1742.20	  378.54
     44.1700	  504.00	  503.15	-1716.90	  378.45
     44.2700	  537.00	  502.91	-1683.66	  378.37
     44.3700	  495.00	  502.73	-1725.48	  378.29
     44.4700	  495.00	  502.60	-1725.35	  378.22
     44.5700	  500.00	  502.50	-1720.25	  378.14
     44.6700	  523.00	  502.44	-1697.19	  378.07
     44.7700	  511.00	  502.40	-1709.15	  378.00
     44.8700	  535.00	  502.40	-1685.15	  377.93
     44.9700	  526.00	  502.28	-1694.03	  377.86
     45.0700	  497.00	  502.51	-1723.26	  377.79
     45.1700	  544.00	  502.58	-1676.33	  377.73
     45.2700	  506.00	  502.67	-1714.42	  377.67
     45.3700	  556.00	  502.78	-1664.53	  377.61
     45.4700	  510.00	  502.92	-1710.67	  377.55
     45.5700	  531.00	  503.09	-1689.84	  377.49
     45.6700	  522.00	  503.27	-1699.02	  377.43
     45.7700	  534.00	  503.49	-1687.24	  377.38
     45.8700	  473.00	  503.74	-1748.49	  377.33
     45.9700	  501.00	  504.02	-1720.77	  377.28
     46.0700	  477.00	  504.34	-1745.09	  377.23
     46.1700	  487.00	  504.70	-1735.45	  377.18
     46.2700	  524.00	  505.11	-1698.86	  377.13
     46.3700	  499.00	  505.57	-1724.32	  377.09
     46.4700	  504.00	  506.10	-1719.85	  377.05
     46.5700	  500.00	  506.71	-1724.46	  377.01
     46.6700	  512.00	  507.42	-1713.17	  376.97
     46.7700	  528.00	  508.26	-1698.01	  376.93
     46.8700	  519.00	  509.32	-1708.07	  376.90
     46.9700	  542.00	  510.82	-1686.57	  376.86
     47.0700	  500.00	  512.91	-1730.66	  376.83
     47.1700	  504.00	  516.27	-1730.02	  376.80
     47.2700	  486.00	  521.82	-1753.57	  376.77
     47.3700	  561.00	  530.71	-1687.46	  376.75
     47.4700	  525.00	  543.93	-1736.68	  376.72
     47.5700	  543.00	  561.40	-1736.15	  376.70
     47.6700	  597.00	  581.38	-1702.13	  376.68
     47.7700	  596.00	  599.74	-1721.49	  376.66
     47.8700	  609.00	  610.61	-1719.36	  376.64
     47.9700	  586.00	  609.52	-1741.27	  376.62
     48.0700	  593.00	  597.59	-1722.34	  376.61
     48.1700	  587.00	  580.70	-1711.45	  376.59
     48.2700	  556.00	  564.49	-1726.24	  376.58
     48.3700	  577.00	  552.19	-1692.94	  376.57
     48.4700	  532.00	  544.77	-1730.52	  376.56
     48.5700	  529.00	  541.79	-1730.54	  376.55
     48.6700	  506.00	  542.23	-1753.98	  376.55
     48.7700	  564.00	  545.17	-1698.92	  376.55
     48.8700	  556.00	  550.09	-1711.84	  376.54
     48.9700	  544.00	  556.98	-1730.73	  376.54
     49.0700	  593.00	  566.40	-1691.15	  376.54
     49.1700	  568.00	  579.89	-1729.64	  376.55
     49.2700	  552.00	  601.02	-1766.77	  376.55
     49.3700	  585.00	  635.35	-1768.10	  376.55
     49.4700	  676.00	  693.75	-1735.50	  376.56
     49.5700	  774.00	  791.41	-1735.16	  376.57
     49.6700	  841.00	  945.77	-1822.52	  376.58
     49.7700	 1032.00	 1170.03	-1855.78	  376.59
     49.8700	 1508.00	 1463.05	-1672.80	  376.61
     49.9700	 1795.00	 1797.88	-1720.63	  376.62
     50.0700	 2231.00	 2113.15	-1599.90	  376.64
     50.1700	 2453.00	 2316.96	-1581.71	  376.66
     50.2700	 2402.00	 2326.08	-1641.83	  376.67
     50.3700	 2160.00	 2134.40	-1692.15	  376.70
     50.4700	 1790.00	 1822.80	-1750.55	  376.72
     50.5700	 1374.00	 1488.78	-1832.53	  376.74
     50.6700	 1052.00	 1197.32	-1863.07	  376.77
     50.7700	  859.00	  977.01	-1835.76	  376.79
     50.8700	  773.00	  829.32	-1774.07	  376.82
     50.9700	  679.00	  739.80	-1778.55	  376.85
     51.0700	  669.00	  688.20	-1736.95	  376.88
     51.1700	  649.00	  656.22	-1724.97	  376.92
     51.2700	  627.00	  631.95	-1722.70	  376.95
     51.3700	  593.00	  610.70	-1735.45	  376.98
     51.4700	  581.00	  592.03	-1728.78	  377.02
     51.5700	  549.00	  576.56	-1745.31	  377.06
     51.6700	  550.00	  564.65	-1732.40	  377.10
     51.7700	  547.00	  556.13	-1726.88	  377.14
     51.8700	  537.00	  550.43	-1731.18	  377.18
     51.9700	  547.00	  547.11	-1717.86	  377.23
     52.0700	  572.00	  545.12	-1690.87	  377.27
     52.1700	  604.00	  544.33	-1658.08	  377.32
     52.2700	  556.00	  544.61	-1706.36	  377.37
     52.3700	  566.00	  546.10	-1697.85	  377.42
     52.4700	  545.00	  549.33	-1722.08	  377.47
     52.5700	  540.00	  555.53	-1733.28	  377.52
     52.6700	  587.00	  567.11	-1697.86	  377.57
     52.7700	  627.00	  588.19	-1678.94	  377.63
     52.8700	  656.00	  624.71	-1686.46	  377.68
     52.9700	  705.00	  683.44	-1696.19	  377.74
     53.0700	  840.00	  769.43	-1647.18	  377.80
     53.1700	  903.00	  882.12	-1696.87	  377.86
     53.2700	 1011.00	 1011.31	-1718.06	  377.92
     53.3700	 1165.00	 1134.40	-1687.15	  377.98
     53.4700	 1179.00	 1218.01	-1756.76	  378.04
     53.5700	 1179.00	 1230.78	-1769.53	  378.11
     53.6700	 1106.00	 1166.66	-1778.41	  378.18
     53.7700	 1023.00	 1051.48	-1746.23	  378.24
     53.8700	  939.00	  920.96	-1699.71	  378.31
     53.9700	  812.00	  801.78	-1707.53	  378.38
     54.0700	  686.00	  707.68	-1739.43	  378.45
     54.1700	  655.00	  641.66	-1704.41	  378.52
     54.2700	  634.00	  599.82	-1683.57	  378.60
     54.3700	  565.00	  575.48	-1728.23	  378.67
     54.4700	  556.00	  562.22	-1723.97	  378.75
     54.5700	  540.00	  555.31	-1733.06	  378.82
     54.6700	  598.00	  551.88	-1671.63	  378.90
     54.7700	  557.00	  550.40	-1711.15	  378.98
     54.8700	  554.00	  550.19	-1713.94	  379.06
     54.9700	  560.00	  550.85	-1708.60	  379.14
     55.0700	  580.00	  552.38	-1690.13	  379.22
     55.1700	  549.00	  554.74	-1723.49	  379.31
     55.2700	  602.00	  557.98	-1673.73	  379.39
     55.3700	  566.00	  562.23	-1713.98	  379.48
     55.4700	  572.00	  567.73	-1713.48	  379.57
     55.5700	  583.00	  574.90	-1709.65	  379.65
     55.6700	  553.00	  584.62	-1749.37	  379.74
     55.7700	  588.00	  598.64	-1728.39	  379.83
     55.8700	  617.00	  620.40	-1721.15	  379.92
     55.9700	  626.00	  656.12	-1747.87	  380.02
     56.0700	  684.00	  715.97	-1749.72	  380.11
     56.1700	  753.00	  814.28	-1779.03	  380.20
     56.2700	  927.00	  967.67	-1758.42	  380.30
     56.3700	 1093.00	 1190.10	-1814.85	  380.39
     56.4700	 1462.00	 1485.07	-1740.82	  380.49
     56.5700	 1776.00	 1836.72	-1778.47	  380.59
     56.6700	 2144.00	 2202.86	-1776.61	  380.69
     56.7700	 2476.00	 2512.13	-1753.88	  380.79
     56.8700	 2582.00	 2676.87	-1812.62	  380.89
     56.9700	 2564.00	 2636.58	-1790.33	  380.99
     57.0700	 2448.00	 2406.72	-1676.47	  381.09
     57.1700	 2031.00	 2066.03	-1752.78	  381.19
     57.2700	 1651.00	 1700.36	-1767.11	  381.30
     57.3700	 1316.00	 1370.14	-1771.89	  381.40
     57.4700	 1039.00	 1106.49	-1785.24	  381.51
     57.5700	  901.00	  916.78	-1733.53	  381.62
     57.6700	  791.00	  792.61	-1719.36	  381.73
     57.7700	  740.00	  718.84	-1696.59	  381.83
     57.8700	  735.00	  680.49	-1663.24	  381.94
     57.9700	  655.00	  666.56	-1729.31	  382.05
     58.0700	  751.00	  670.89	-1637.64	  382.16
     58.1700	  699.00	  691.04	-1709.79	  382.28
     58.2700	  733.00	  726.71	-1711.46	  382.39
     58.3700	  810.00	  777.88	-1685.63	  382.50
     58.4700	  875.00	  843.27	-1686.02	  382.62
     58.5700	  984.00	  918.85	-1652.60	  382.73
     58.6700	 1067.00	  997.32	-1648.07	  382.85
     58.7700	 1159.00	 1070.10	-1628.85	  382.96
     58.8700	 1285.00	 1131.24	-1563.99	  383.08
     58.9700	 1368.00	 1177.66	-1527.41	  383.20
     59.0700	 1456.00	 1205.14	-1466.89	  383.32
     59.1700	 1402.00	 1209.62	-1525.37	  383.44
     59.2700	 1423.00	 1193.97	-1488.72	  383.56
     59.3700	 1292.00	 1168.80	-1594.55	  383.68
     59.4700	 1220.00	 1145.25	-1643.00	  383.80
     59.5700	 1201.00	 1130.96	-1647.71	  383.92
     59.6700	 1162.00	 1132.86	-1688.61	  384.04
     59.7700	 1127.00	 1159.23	-1749.98	  384.17
     59.8700	 1227.00	 1215.58	-1706.33	  384.29
     59.9700	 1379.00	 1298.33	-1637.08	  384.41
     60.0700	 1430.00	 1391.89	-1679.64	  384.54
     60.1700	 1552.00	 1469.29	-1635.04	  384.66
     60.2700	 1543.00	 1498.56	-1673.31	  384.79
     60.3700	 1570.00	 1459.30	-1607.05	  384.92
     60.4700	 1355.00	 1357.30	-1720.05	  385.04
     60.5700	 1216.00	 1218.60	-1720.35	  385.17
     60.6700	 1095.00	 1071.63	-1694.38	  385.30
     60.7700	  984.00	  937.42	-1671.17	  385.43
     60.8700	  844.00	  827.90	-1701.65	  385.56
     60.9700	  701.00	  747.46	-1764.21	  385.69
     61.0700	  673.00	  695.32	-1740.07	  385.82
     61.1700	  666.00	  668.40	-1720.15	  385.95
     61.2700	  652.00	  664.05	-1729.80	  386.08
     61.3700	  680.00	  681.67	-1719.42	  386.21
     61.4700	  650.00	  722.81	-1790.56	  386.34
     61.5700	  747.00	  790.19	-1760.94	  386.48
     61.6700	  872.00	  885.37	-1731.12	  386.61
     61.7700	 1035.00	 1006.07	-1688.82	  386.74
     61.8700	 1136.00	 1143.60	-1725.35	  386.88
     61.9700	 1222.00	 1281.24	-1776.99	  387.01
     62.0700	 1325.00	 1394.08	-1786.83	  387.14
     62.1700	 1362.00	 1453.49	-1809.24	  387.28
     62.2700	 1309.00	 1440.27	-1849.02	  387.41
     62.3700	 1290.00	 1358.27	-1786.02	  387.55
     62.4700	 1190.00	 1231.52	-1759.27	  387.68
     62.5700	 1039.00	 1088.49	-1767.24	  387.82
     62.6700	  877.00	  951.58	-1792.33	  387.96
     62.7700	  778.00	  834.51	-1774.26	  388.09
     62.8700	  701.00	  743.18	-1759.93	  388.23
     62.9700	  656.00	  677.42	-1739.17	  388.37
     63.0700	  649.00	  633.33	-1702.08	  388.50
     63.1700	  570.00	  605.61	-1753.36	  388.64
     63.2700	  569.00	  589.23	-1737.98	  388.78
     63.3700	  625.00	  580.43	-1673.18	  388.92
     63.4700	  550.00	  576.92	-1744.67	  389.06
     63.5700	  567.00	  577.87	-1728.62	  389.19
     63.6700	  587.00	  583.66	-1714.41	  389.33
     63.7700	  583.00	  595.62	-1730.37	  389.47
     63.8700	  626.00	  615.69	-1707.44	  389.61
     63.9700	  676.00	  645.92	-1687.67	  389.75
     64.0700	  697.00	  687.66	-1708.41	  389.89
     64.1700	  766.00	  740.74	-1692.49	  390.03
     64.2700	  827.00	  802.50	-1693.25	  390.17
     64.3700	  923.00	  867.24	-1661.99	  390.31
     64.4700	 1000.00	  926.03	-1643.78	  390.45
     64.5700	  937.00	  967.74	-1748.49	  390.59
     64.6700	 1031.00	  984.65	-1671.40	  390.73
     64.7700	 1098.00	  973.87	-1593.62	  390.87
     64.8700	  928.00	  939.63	-1729.38	  391.01
     64.9700	  899.00	  890.22	-1708.97	  391.15
     65.0700	  880.00	  834.98	-1672.73	  391.29
     65.1700	  774.00	  781.64	-1725.39	  391.42
     65.2700	  748.00	  734.66	-1704.41	  391.56
     65.3700	  697.00	  695.34	-1716.09	  391.70
     65.4700	  651.00	  663.12	-1729.87	  391.84
     65.5700	  618.00	  637.03	-1736.78	  391.98
     65.6700	  612.00	  616.26	-1722.01	  392.12
     65.7700	  593.00	  600.16	-1724.91	  392.26
     65.8700	  534.00	  588.13	-1771.88	  392.40
     65.9700	  574.00	  579.60	-1723.35	  392.54
     66.0700	  535.00	  574.06	-1756.81	  392.68
     66.1700	  546.00	  571.05	-1742.80	  392.82
     66.2700	  532.00	  570.27	-1756.02	  392.96
     66.3700	  572.00	  571.12	-1716.87	  393.10
     66.4700	  544.00	  573.56	-1747.31	  393.24
     66.5700	  574.00	  577.62	-1721.37	  393.38
     66.6700	  580.00	  583.69	-1721.44	  393.52
     66.7700	  569.00	  592.72	-1741.47	  393.65
     66.8700	  602.00	  606.50	-1722.25	  393.79
     66.9700	  628.00	  628.10	-1717.85	  393.93
     67.0700	  666.00	  662.29	-1714.04	  394.07
     67.1700	  641.00	  715.74	-1792.49	  394.20
     67.2700	  751.00	  796.80	-1763.55	  394.34
     67.3700	  944.00	  914.03	-1687.78	  394.48
     67.4700	 1053.00	 1074.44	-1739.19	  394.62
     67.5700	 1263.00	 1280.28	-1735.03	  394.75
     67.6700	 1546.00	 1525.77	-1697.52	  394.89
     67.7700	 1807.00	 1794.60	-1705.35	  395.02
     67.8700	 2119.00	 2058.61	-1657.36	  395.16
     67.9700	 2227.00	 2278.31	-1769.06	  395.30
     68.0700	 2411.00	 2408.90	-1715.65	  395.43
     68.1700	 2473.00	 2417.07	-1661.82	  395.57
     68.2700	 2336.00	 2300.80	-1682.55	  395.70
     68.3700	 2123.00	 2090.18	-1684.93	  395.83
     68.4700	 1869.00	 1829.73	-1678.48	  395.97
     68.5700	 1531.00	 1560.02	-1746.77	  396.10
     68.6700	 1319.00	 1310.88	-1709.62	  396.23
     68.7700	 1102.00	 1100.05	-1715.80	  396.36
     68.8700	  865.00	  934.40	-1787.15	  396.50
     68.9700	  825.00	  812.61	-1705.36	  396.63
     69.0700	  712.00	  728.07	-1733.82	  396.76
     69.1700	  636.00	  672.17	-1753.92	  396.89
     69.2700	  616.00	  636.49	-1738.24	  397.02
     69.3700	  611.00	  614.09	-1720.84	  397.15
     69.4700	  601.00	  599.99	-1716.74	  397.28
     69.5700	  607.00	  590.89	-1701.64	  397.41
     69.6700	  562.00	  584.80	-1740.55	  397.54
     69.7700	  599.00	  580.62	-1699.37	  397.66
     69.8700	  547.00	  577.74	-1748.49	  397.79
     69.9700	  574.00	  575.86	-1719.61	  397.92
     70.0700	  571.00	  574.80	-1721.55	  398.04
     70.1700	  572.00	  574.52	-1720.27	  398.17
     70.2700	  546.00	  575.04	-1746.79	  398.29
     70.3700	  533.00	  576.49	-1761.24	  398.42
     70.4700	  575.00	  579.12	-1721.87	  398.54
     70.5700	  575.00	  583.46	-1726.21	  398.67
     70.6700	  602.00	  590.44	-1706.19	  398.79
     70.7700	  648.00	  601.63	-1671.38	  398.91
     70.8700	  573.00	  619.47	-1764.22	  399.03
     70.9700	  636.00	  647.50	-1729.25	  399.15
     71.0700	  719.00	  690.37	-1689.12	  399.27
     71.1700	  736.00	  753.50	-1735.25	  399.39
     71.2700	  800.00	  842.22	-1759.97	  399.51
     71.3700	 1007.00	  960.42	-1671.17	  399.63
     71.4700	 1095.00	 1108.70	-1731.45	  399.74
     71.5700	 1207.00	 1283.59	-1794.34	  399.86
     71.6700	 1368.00	 1472.96	-1822.71	  399.98
     71.7700	 1689.00	 1660.18	-1688.93	  400.09
     71.8700	 1892.00	 1821.20	-1646.95	  400.21
     71.9700	 1815.00	 1928.45	-1831.20	  400.32
     72.0700	 1958.00	 1958.86	-1718.61	  400.43
     72.1700	 1904.00	 1905.09	-1718.84	  400.54
     72.2700	 1744.00	 1779.98	-1753.73	  400.66
     72.3700	 1667.00	 1609.04	-1659.79	  400.77
     72.4700	 1519.00	 1419.37	-1618.12	  400.88
     72.5700	 1312.00	 1233.20	-1638.95	  400.99
     72.6700	 1124.00	 1065.39	-1659.14	  401.09
     72.7700	 1002.00	  925.34	-1641.09	  401.20
     72.8700	  855.00	  815.23	-1677.98	  401.31
     72.9700	  821.00	  733.30	-1630.05	  401.41
     73.0700	  717.00	  675.18	-1675.93	  401.52
     73.1700	  719.00	  635.50	-1634.25	  401.62
     73.2700	  659.00	  609.11	-1667.86	  401.72
     73.3700	  626.00	  591.76	-1683.51	  401.83
     73.4700	  631.00	  580.29	-1667.04	  401.93
     73.5700	  619.00	  572.59	-1671.34	  402.03
     73.6700	  573.00	  567.30	-1712.05	  402.13
     73.7700	  630.00	  563.65	-1651.40	  402.22
     73.8700	  576.00	  561.18	-1702.93	  402.32
     73.9700	  561.00	  559.63	-1716.38	  402.42
     74.0700	  568.00	  558.81	-1708.56	  402.51
     74.1700	  561.00	  558.56	-1715.31	  402.61
     74.2700	  599.00	  558.70	-1677.45	  402.70
     74.3700	  610.00	  559.02	-1666.77	  402.80
     74.4700	  620.00	  559.27	-1657.02	  402.89
     74.5700	  636.00	  559.19	-1640.94	  402.98
     74.6700	  637.00	  558.60	-1639.35	  403.07
     74.7700	  611.00	  557.45	-1664.20	  403.16
     74.8700	  610.00	  555.88	-1663.63	  403.24
     74.9700	  661.00	  554.14	-1610.89	  403.33
     75.0700	  605.00	  552.53	-1665.28	  403.42
     75.1700	  587.00	  551.38	-1682.13	  403.50
     75.2700	  592.00	  550.98	-1676.73	  403.58
     75.3700	  575.00	  551.79	-1694.54	  403.67
     75.4700	  571.00	  554.22	-1700.97	  403.75
     75.5700	  590.00	  558.73	-1686.48	  403.83
     75.6700	  591.00	  565.74	-1692.49	  403.91
     75.7700	  572.00	  575.81	-1721.56	  403.98
     75.8700	  605.00	  589.22	-1701.97	  404.06
     75.9700	  662.00	  605.85	-1661.60	  404.14
     76.0700	  587.00	  625.18	-1755.93	  404.21
     76.1700	  672.00	  646.11	-1691.86	  404.28
     76.2700	  728.00	  666.95	-1656.70	  404.36
     76.3700	  674.00	  685.43	-1729.18	  404.43
     76.4700	  737.00	  698.91	-1679.66	  404.50
     76.5700	  719.00	  704.98	-1703.73	  404.57
     76.6700	  714.00	  702.37	-1706.12	  404.63
     76.7700	  698.00	  691.60	-1711.35	  404.70
     76.8700	  654.00	  674.68	-1738.43	  404.76
     76.9700	  676.00	  654.25	-1696.00	  404.83
     77.0700	  596.00	  632.76	-1754.51	  404.89
     77.1700	  599.00	  611.99	-1730.74	  404.95
     77.2700	  569.00	  593.64	-1742.39	  405.01
     77.3700	  592.00	  578.25	-1704.00	  405.07
     77.4700	  544.00	  566.04	-1739.79	  405.13
     77.5700	  557.00	  556.82	-1717.57	  405.19
     77.6700	  501.00	  550.17	-1766.92	  405.24
     77.7700	  553.00	  545.55	-1710.30	  405.30
     77.8700	  498.00	  542.44	-1762.19	  405.35
     77.9700	  529.00	  540.39	-1729.14	  405.40
     78.0700	  510.00	  539.06	-1746.81	  405.45
     78.1700	  525.00	  538.20	-1730.95	  405.50
     78.2700	  512.00	  537.63	-1743.38	  405.55
     78.3700	  497.00	  537.27	-1758.02	  405.59
     78.4700	  543.00	  537.05	-1711.80	  405.64
     78.5700	  493.00	  536.95	-1761.70	  405.68
     78.6700	  525.00	  536.95	-1729.70	  405.72
     78.7700	  546.00	  537.08	-1708.83	  405.76
     78.8700	  547.00	  537.34	-1708.09	  405.80
     78.9700	  530.00	  537.78	-1725.53	  405.84
     79.0700	  507.00	  538.42	-1749.17	  405.88
     79.1700	  502.00	  539.32	-1755.07	  405.91
     79.2700	  526.00	  540.52	-1732.27	  405.95
     79.3700	  525.00	  542.08	-1734.83	  405.98
     79.4700	  538.00	  544.02	-1723.77	  406.01
     79.5700	  545.00	  546.22	-1718.97	  406.04
     79.6700	  519.00	  549.08	-1747.83	  406.07
     79.7700	  551.00	  552.49	-1719.24	  406.10
     79.8700	  570.00	  556.52	-1704.27	  406.12
     79.9700	  515.00	  561.29	-1764.04	  406.15
     80.0700	  516.00	  566.98	-1768.73	  406.17
     80.1700	  555.00	  573.85	-1736.60	  406.19
     80.2700	  556.00	  582.21	-1743.96	  406.21
     80.3700	  550.00	  592.41	-1760.16	  406.23
     80.4700	  594.00	  604.66	-1728.41	  406.25
     80.5700	  607.00	  618.98	-1729.73	  406.26
     80.6700	  618.00	  635.09	-1734.84	  406.28
     80.7700	  635.00	  652.41	-1735.16	  406.29
     80.8700	  670.00	  670.03	-1717.78	  406.30
     80.9700	  668.00	  686.82	-1736.57	  406.31
     81.0700	  724.00	  701.65	-1695.40	  406.32
     81.1700	  699.00	  713.55	-1732.30	  406.33
     81.2700	  750.00	  721.75	-1689.50	  406.33
     81.3700	  735.00	  725.72	-1708.47	  406.34
     81.4700	  723.00	  725.22	-1719.97	  406.34
     81.5700	  729.00	  720.32	-1709.07	  406.34
     81.6700	  802.00	  711.31	-1627.06	  406.34
     81.7700	  786.00	  698.70	-1630.45	  406.34
     81.8700	  711.00	  683.33	-1690.08	  406.33
     81.9700	  673.00	  666.33	-1711.08	  406.33
     82.0700	  726.00	  648.87	-1640.62	  406.32
     82.1700	  699.00	  631.93	-1650.68	  406.32
     82.2700	  640.00	  616.20	-1693.95	  406.31
     82.3700	  622.00	  602.08	-1697.83	  406.29
     82.4700	  593.00	  589.76	-1714.51	  406.28
     82.5700	  615.00	  579.46	-1682.21	  406.27
     82.6700	  584.00	  571.17	-1704.92	  406.25
     82.7700	  570.00	  564.86	-1712.61	  406.23
     82.8700	  542.00	  560.42	-1736.17	  406.22
     82.9700	  611.00	  557.81	-1664.56	  406.20
     83.0700	  566.00	  556.89	-1708.64	  406.17
     83.1700	  596.00	  557.54	-1679.29	  406.15
     83.2700	  543.00	  559.61	-1734.36	  406.12
     83.3700	  546.00	  562.92	-1734.67	  406.10
     83.4700	  537.00	  567.17	-1747.92	  406.07
     83.5700	  556.00	  572.02	-1733.77	  406.04
     83.6700	  551.00	  577.03	-1743.78	  406.01
     83.7700	  549.00	  581.66	-1750.41	  405.98
     83.8700	  550.00	  585.33	-1753.08	  405.94
     83.9700	  570.00	  587.47	-1735.22	  405.90
     84.0700	  595.00	  587.69	-1710.44	  405.87
     84.1700	  562.00	  585.89	-1741.64	  405.83
     84.2700	  555.00	  582.32	-1745.07	  405.79
     84.3700	  561.00	  577.43	-1734.18	  405.74
     84.4700	  517.00	  571.78	-1772.53	  405.70
     84.5700	  551.00	  565.87	-1732.62	  405.65
     84.6700	  548.00	  560.12	-1729.87	  405.61
     84.7700	  523.00	  554.84	-1749.59	  405.56
     84.8700	  504.00	  550.21	-1763.96	  405.51
     84.9700	  509.00	  546.35	-1755.10	  405.46
     85.0700	  544.00	  543.25	-1717.00	  405.40
     85.1700	  555.00	  540.88	-1703.63	  405.35
     85.2700	  513.00	  539.14	-1743.89	  405.29
     85.3700	  504.00	  537.94	-1751.69	  405.23
     85.4700	  531.00	  537.17	-1723.92	  405.17
     85.5700	  548.00	  536.77	-1706.52	  405.11
     85.6700	  557.00	  536.69	-1697.44	  405.05
     85.7700	  535.00	  536.93	-1719.68	  404.98
     85.8700	  536.00	  537.52	-1719.27	  404.91
     85.9700	  550.00	  538.53	-1706.28	  404.85
     86.0700	  538.00	  540.09	-1719.84	  404.78
     86.1700	  514.00	  542.35	-1746.10	  404.70
     86.2700	  524.00	  545.50	-1739.25	  404.63
     86.3700	  507.00	  549.73	-1760.48	  404.56
     86.4700	  550.00	  555.21	-1722.96	  404.48
     86.5700	  486.00	  562.05	-1793.80	  404.40
     86.6700	  558.00	  570.28	-1730.03	  404.32
     86.7700	  589.00	  579.77	-1708.52	  404.24
     86.8700	  610.00	  590.27	-1698.02	  404.16
     86.9700	  627.00	  601.31	-1692.06	  404.07
     87.0700	  566.00	  612.27	-1764.02	  403.99
     87.1700	  633.00	  622.02	-1706.77	  403.90
     87.2700	  639.00	  630.31	-1709.06	  403.81
     87.3700	  630.00	  635.93	-1723.68	  403.72
     87.4700	  691.00	  638.18	-1664.93	  403.63
     87.5700	  634.00	  636.80	-1720.55	  403.53
     87.6700	  629.00	  632.07	-1720.82	  403.44
     87.7700	  595.00	  624.69	-1747.44	  403.34
     87.8700	  636.00	  615.60	-1697.35	  403.24
     87.9700	  649.00	  605.75	-1674.50	  403.14
     88.0700	  645.00	  596.02	-1668.77	  403.04
     88.1700	  630.00	  587.18	-1674.93	  402.94
     88.2700	  593.00	  579.78	-1704.53	  402.83
     88.3700	  558.00	  574.23	-1733.98	  402.72
     88.4700	  587.00	  570.71	-1701.46	  402.62
     88.5700	  602.00	  569.25	-1685.00	  402.51
     88.6700	  599.00	  569.71	-1688.46	  402.39
     88.7700	  581.00	  571.83	-1708.58	  402.28
     88.8700	  625.00	  575.20	-1667.95	  402.17
     88.9700	  607.00	  579.37	-1690.12	  402.05
     89.0700	  578.00	  583.79	-1723.54	  401.93
     89.1700	  630.00	  587.89	-1675.64	  401.81
     89.2700	  592.00	  591.10	-1716.85	  401.69
     89.3700	  595.00	  592.89	-1715.64	  401.57
     89.4700	  601.00	  592.93	-1709.68	  401.44
     89.5700	  613.00	  591.15	-1695.90	  401.32
     89.6700	  610.00	  587.73	-1695.48	  401.19
     89.7700	  546.00	  583.03	-1754.78	  401.06
     89.8700	  549.00	  577.53	-1746.28	  400.93
     89.9700	  598.00	  571.65	-1691.40	  400.80
     90.0700	  508.00	  565.78	-1775.53	  400.66
     90.1700	  548.00	  560.24	-1729.99	  400.53
     90.2700	  534.00	  555.25	-1739.00	  400.39
     90.3700	  566.00	  550.93	-1702.68	  400.25
     90.4700	  537.00	  547.36	-1728.11	  400.11
     90.5700	  517.00	  544.53	-1745.28	  399.97
     90.6700	  509.00	  542.40	-1751.15	  399.83
     90.7700	  545.00	  540.89	-1713.64	  399.69
     90.8700	  561.00	  539.93	-1696.68	  399.54
     90.9700	  531.00	  539.44	-1726.19	  399.39
     91.0700	  524.00	  539.37	-1733.12	  399.24
     91.1700	  530.00	  539.69	-1727.44	  399.09
     91.2700	  511.00	  540.42	-1747.17	  398.94
     91.3700	  538.00	  541.60	-1721.35	  398.79
     91.4700	  520.00	  543.32	-1741.07	  398.63
     91.5700	  512.00	  545.71	-1751.46	  398.48
     91.6700	  488.00	  548.94	-1778.69	  398.32
     91.7700	  579.00	  553.19	-1691.94	  398.16
     91.8700	  522.00	  558.70	-1754.45	  398.00
     91.9700	  562.00	  565.66	-1721.41	  397.84
     92.0700	  549.00	  574.28	-1743.03	  397.67
     92.1700	  578.00	  584.70	-1724.45	  397.51
     92.2700	  572.00	  596.98	-1742.73	  397.34
     92.3700	  639.00	  610.86	-1689.61	  397.17
     92.4700	  631.00	  626.67	-1713.42	  397.00
     92.5700	  675.00	  643.89	-1686.64	  396.83
     92.6700	  644.00	  662.08	-1735.83	  396.66
     92.7700	  741.00	  680.68	-1657.43	  396.49
     92.8700	  653.00	  699.00	-1763.75	  396.31
     92.9700	  732.00	  716.30	-1702.05	  396.14
     93.0700	  752.00	  731.94	-1697.69	  395.96
     93.1700	  801.00	  745.53	-1662.28	  395.78
     93.2700	  769.00	  757.04	-1705.79	  395.60
     93.3700	  832.00	  766.76	-1652.51	  395.42
     93.4700	  785.00	  775.19	-1707.94	  395.23
     93.5700	  833.00	  782.82	-1667.57	  395.05
     93.6700	  833.00	  790.10	-1674.85	  394.86
     93.7700	  810.00	  797.44	-1705.19	  394.68
     93.8700	  845.00	  805.25	-1678.00	  394.49
     93.9700	  835.00	  813.97	-1696.72	  394.30
     94.0700	  817.00	  824.07	-1724.82	  394.11
     94.1700	  867.00	  835.84	-1686.59	  393.92
     94.2700	  826.00	  849.25	-1741.00	  393.72
     94.3700	  840.00	  863.81	-1741.56	  393.53
     94.4700	  873.00	  878.61	-1723.36	  393.33
     94.5700	  948.00	  892.30	-1662.05	  393.13
     94.6700	  912.00	  903.22	-1708.97	  392.94
     94.7700	  900.00	  909.62	-1727.37	  392.74
     94.8700	  952.00	  909.97	-1675.72	  392.54
     94.9700	  870.00	  903.40	-1751.15	  392.33
     95.0700	  879.00	  889.92	-1728.67	  392.13
     95.1700	  835.00	  870.44	-1753.19	  391.93
     95.2700	  834.00	  846.52	-1730.27	  391.72
     95.3700	  794.00	  820.04	-1743.79	  391.51
     95.4700	  755.00	  792.94	-1755.69	  391.31
     95.5700	  805.00	  767.11	-1679.86	  391.10
     95.6700	  776.00	  744.28	-1686.03	  390.89
     95.7700	  754.00	  726.06	-1689.81	  390.68
     95.8700	  699.00	  713.85	-1732.60	  390.46
     95.9700	  703.00	  708.92	-1723.67	  390.25
     96.0700	  708.00	  712.35	-1722.10	  390.04
     96.1700	  706.00	  725.07	-1736.82	  389.82
     96.2700	  820.00	  747.76	-1645.51	  389.60
     96.3700	  781.00	  780.87	-1717.62	  389.39
     96.4700	  817.00	  824.46	-1725.21	  389.17
     96.5700	  931.00	  878.19	-1664.94	  388.95
     96.6700	  934.00	  941.17	-1724.92	  388.73
     96.7700	  980.00	 1011.89	-1749.64	  388.51
     96.8700	 1063.00	 1088.16	-1742.91	  388.28
     96.9700	 1144.00	 1167.08	-1740.83	  388.06
     97.0700	 1169.00	 1245.06	-1793.81	  387.84
     97.1700	 1305.00	 1317.93	-1730.68	  387.61
     97.2700	 1374.00	 1381.14	-1724.89	  387.38
     97.3700	 1420.00	 1430.10	-1727.85	  387.16
     97.4700	 1446.00	 1460.87	-1732.62	  386.93
     97.5700	 1507.00	 1470.88	-1681.63	  386.70
     97.6700	 1402.00	 1459.57	-1775.32	  386.47
     97.7700	 1440.00	 1428.47	-1706.22	  386.24
     97.8700	 1372.00	 1380.76	-1726.51	  386.01
     97.9700	 1296.00	 1320.59	-1742.34	  385.78
     98.0700	 1248.00	 1252.42	-1722.17	  385.54
     98.1700	 1180.00	 1180.54	-1718.29	  385.31
     98.2700	 1086.00	 1108.88	-1740.63	  385.07
     98.3700	  991.00	 1040.88	-1767.63	  384.84
     98.4700	  945.00	  979.39	-1752.14	  384.60
     98.5700	  871.00	  926.76	-1773.51	  384.37
     98.6700	  855.00	  884.78	-1747.53	  384.13
     98.7700	  837.00	  854.80	-1735.55	  383.89
     98.8700	  853.00	  837.79	-1702.54	  383.65
     98.9700	  878.00	  834.41	-1674.16	  383.41
     99.0700	  811.00	  845.09	-1751.84	  383.17
     99.1700	  851.00	  870.00	-1736.75	  382.93
     99.2700	  922.00	  909.17	-1704.92	  382.69
     99.3700	  969.00	  962.34	-1711.09	  382.45
     99.4700	  989.00	 1028.97	-1757.72	  382.20
     99.5700	 1133.00	 1108.16	-1692.91	  381.96
     99.6700	 1198.00	 1198.54	-1718.29	  381.72
     99.7700	 1293.00	 1298.17	-1722.92	  381.47
     99.8700	 1442.00	 1404.43	-1680.18	  381.23
     99.9700	 1490.00	 1514.04	-1741.79	  380.98
    100.0700	 1587.00	 1623.07	-1753.82	  380.74
    100.1700	 1753.00	 1727.15	-1691.90	  380.49
    100.2700	 1896.00	 1821.87	-1643.62	  380.25
    100.3700	 1841.00	 1903.20	-1779.95	  380.00
    100.4700	 1967.00	 1967.94	-1718.69	  379.75
    100.5700	 2120.00	 2013.83	-1611.58	  379.50
    100.6700	 2044.00	 2039.40	-1713.15	  379.26
    100.7700	 1984.00	 2043.77	-1777.52	  379.01
    100.8700	 2059.00	 2026.66	-1685.41	  378.76
    100.9700	 1995.00	 1988.67	-1711.42	  378.51
    101.0700	 1947.00	 1931.66	-1702.41	  378.26
    101.1700	 1916.00	 1858.86	-1660.61	  378.01
    101.2700	 1766.00	 1774.69	-1726.44	  377.76
    101.3700	 1653.00	 1684.17	-1748.92	  377.51
    101.4700	 1665.00	 1592.30	-1645.05	  377.26
    101.5700	 1507.00	 1503.50	-1714.25	  377.01
    101.6700	 1494.00	 1421.32	-1645.07	  376.76
    101.7700	 1393.00	 1348.32	-1673.07	  376.51
    101.8700	 1290.00	 1286.00	-1713.75	  376.26
    101.9700	 1224.00	 1234.84	-1728.59	  376.01
    102.0700	 1181.00	 1194.31	-1731.06	  375.76
    102.1700	 1171.00	 1163.07	-1709.82	  375.51
    102.2700	 1111.00	 1139.09	-1745.84	  375.26
    102.3700	 1080.00	 1119.87	-1757.62	  375.01
    102.4700	 1064.00	 1102.69	-1756.44	  374.76
    102.5700	 1072.00	 1084.95	-1730.70	  374.51
    102.6700	 1097.00	 1064.51	-1685.26	  374.26
    102.7700	 1055.00	 1040.02	-1702.77	  374.01
    102.8700	 1051.00	 1010.95	-1677.70	  373.76
    102.9700	  974.00	  977.57	-1721.32	  373.51
    103.0700	  920.00	  940.71	-1738.46	  373.26
    103.1700	  855.00	  901.49	-1764.24	  373.01
    103.2700	  808.00	  861.17	-1770.92	  372.76
    103.3700	  790.00	  820.95	-1748.70	  372.51
    103.4700	  746.00	  781.94	-1753.69	  372.26
    103.5700	  774.00	  745.08	-1688.83	  372.01
    103.6700	  745.00	  711.08	-1683.83	  371.76
    103.7700	  702.00	  680.46	-1696.21	  371.52
    103.8700	  656.00	  653.49	-1715.24	  371.27
    103.9700	  643.00	  630.27	-1705.02	  371.02
    104.0700	  641.00	  610.72	-1687.47	  370.77
    104.1700	  601.00	  594.61	-1711.36	  370.53
    104.2700	  540.00	  581.63	-1759.38	  370.28
    104.3700	  542.00	  571.43	-1747.18	  370.04
    104.4700	  545.00	  563.60	-1736.35	  369.79
    104.5700	  555.00	  557.79	-1720.54	  369.55
    104.6700	  558.00	  553.65	-1713.40	  369.30
    104.7700	  535.00	  550.86	-1733.61	  369.06
    104.8700	  553.00	  549.17	-1713.92	  368.82
    104.9700	  573.00	  548.36	-1693.11	  368.58
    105.0700	  594.00	  548.29	-1672.04	  368.34
    105.1700	  564.00	  548.84	-1702.59	  368.10
    105.2700	  533.00	  549.94	-1734.69	  367.86
    105.3700	  563.00	  551.53	-1706.28	  367.62
    105.4700	  508.00	  553.64	-1763.39	  367.38
    105.5700	  550.00	  556.32	-1724.07	  367.14
    105.6700	  562.00	  559.63	-1715.38	  366.91
    105.7700	  530.00	  563.64	-1751.39	  366.67
    105.8700	  569.00	  568.45	-1717.20	  366.44
    105.9700	  565.00	  574.15	-1726.90	  366.20
    106.0700	  553.00	  580.77	-1745.52	  365.97
    106.1700	  584.00	  588.33	-1722.08	  365.74
    106.2700	  599.00	  596.79	-1715.54	  365.51
    106.3700	  626.00	  606.05	-1697.80	  365.28
    106.4700	  621.00	  615.93	-1712.68	  365.05
    106.5700	  635.00	  626.22	-1708.97	  364.82
    106.6700	  620.00	  636.63	-1734.38	  364.60
    106.7700	  596.00	  646.83	-1768.58	  364.37
    106.8700	  655.00	  656.46	-1719.21	  364.15
    106.9700	  621.00	  665.15	-1761.90	  363.93
    107.0700	  680.00	  672.55	-1710.30	  363.71
    107.1700	  727.00	  678.37	-1669.12	  363.49
    107.2700	  685.00	  682.47	-1715.22	  363.27
    107.3700	  669.00	  684.85	-1733.60	  363.05
    107.4700	  651.00	  685.69	-1752.44	  362.84
    107.5700	  666.00	  685.30	-1737.05	  362.62
    107.6700	  699.00	  684.09	-1702.84	  362.41
    107.7700	  713.00	  682.48	-1687.23	  362.20
    107.8700	  677.00	  680.88	-1721.63	  361.99
    107.9700	  727.00	  679.61	-1670.36	  361.78
    108.0700	  678.00	  678.91	-1718.66	  361.57
    108.1700	  702.00	  678.90	-1694.65	  361.37
    108.2700	  699.00	  679.58	-1698.33	  361.17
    108.3700	  735.00	  680.86	-1663.61	  360.96
    108.4700	  734.00	  682.52	-1666.27	  360.77
    108.5700	  625.00	  684.24	-1776.99	  360.57
    108.6700	  667.00	  685.64	-1736.39	  360.37
    108.7700	  667.00	  686.32	-1737.07	  360.18
    108.8700	  666.00	  685.87	-1737.62	  359.98
    108.9700	  693.00	  683.95	-1708.70	  359.79
    109.0700	  674.00	  680.35	-1724.10	  359.61
    109.1700	  657.00	  675.04	-1735.79	  359.42
    109.2700	  628.00	  668.08	-1757.83	  359.24
    109.3700	  670.00	  659.69	-1707.44	  359.05
    109.4700	  675.00	  650.19	-1692.94	  358.87
    109.5700	  630.00	  639.91	-1727.66	  358.69
    109.6700	  635.00	  629.20	-1711.95	  358.52
    109.7700	  632.00	  618.39	-1704.14	  358.34
    109.8700	  612.00	  607.80	-1713.55	  358.17
    109.9700	  590.00	  597.69	-1725.44	  358.00
    110.0700	  580.00	  588.27	-1726.02	  357.84
    110.1700	  601.00	  579.71	-1696.46	  357.67
    110.2700	  594.00	  572.11	-1695.86	  357.51
    110.3700	  541.00	  565.56	-1742.31	  357.35
    110.4700	  576.00	  560.05	-1701.80	  357.19
    110.5700	  506.00	  555.58	-1767.33	  357.04
    110.6700	  570.00	  552.09	-1699.84	  356.89
    110.7700	  547.00	  549.50	-1720.25	  356.74
    110.8700	  551.00	  547.75	-1714.50	  356.59
    110.9700	  552.00	  546.72	-1712.47	  356.45
    111.0700	  593.00	  546.33	-1671.08	  356.31
    111.1700	  562.00	  546.48	-1702.23	  356.17
    111.2700	  518.00	  547.09	-1746.84	  356.03
    111.3700	  556.00	  548.10	-1709.85	  355.90
    111.4700	  579.00	  549.42	-1688.17	  355.77
    111.5700	  576.00	  551.02	-1692.77	  355.64
    111.6700	  509.00	  552.84	-1761.59	  355.52
    111.7700	  531.00	  554.86	-1741.61	  355.39
    111.8700	  523.00	  557.07	-1751.82	  355.28
    111.9700	  555.00	  559.43	-1722.18	  355.16
    112.0700	  594.00	  561.97	-1685.72	  355.05
    112.1700	  532.00	  564.70	-1750.45	  354.94
    112.2700	  578.00	  567.63	-1707.38	  354.83
    112.3700	  564.00	  570.80	-1724.55	  354.73
    112.4700	  657.00	  574.26	-1635.01	  354.63
    112.5700	  527.00	  578.05	-1768.80	  354.54
    112.6700	  622.00	  582.24	-1677.99	  354.44
    112.7700	  591.00	  586.93	-1713.68	  354.36
    112.8700	  582.00	  592.23	-1727.98	  354.27
    112.9700	  613.00	  598.28	-1703.03	  354.19
    113.0700	  638.00	  605.26	-1685.01	  354.11
    113.1700	  647.00	  613.41	-1684.16	  354.03
    113.2700	  631.00	  623.04	-1709.79	  353.96
    113.3700	  684.00	  634.55	-1668.30	  353.90
    113.4700	  696.00	  648.43	-1670.18	  353.83
    113.5700	  717.00	  665.29	-1666.04	  353.77
    113.6700	  802.00	  685.90	-1601.65	  353.72
    113.7700	  756.00	  711.23	-1672.98	  353.66
    113.8700	  777.00	  742.38	-1683.13	  353.62
    113.9700	  858.00	  780.69	-1640.44	  353.57
    114.0700	  869.00	  827.72	-1676.47	  353.53
    114.1700	  952.00	  885.24	-1650.99	  353.50
    114.2700	  980.00	  955.19	-1692.94	  353.46
    114.3700	 1119.00	 1039.74	-1638.49	  353.43
    114.4700	 1194.00	 1141.13	-1664.88	  353.41
    114.5700	 1309.00	 1261.70	-1670.45	  353.39
    114.6700	 1428.00	 1403.72	-1693.47	  353.38
    114.7700	 1678.00	 1569.29	-1609.04	  353.37
    114.8700	 1860.00	 1760.29	-1618.04	  353.36
    114.9700	 2137.00	 1978.09	-1558.84	  353.36
    115.0700	 2379.00	 2223.56	-1562.31	  353.36
    115.1700	 2538.00	 2496.76	-1676.51	  353.37
    115.2700	 2876.00	 2796.83	-1638.58	  353.38
    115.3700	 3114.00	 3122.03	-1725.78	  353.39
    115.4700	 3461.00	 3469.32	-1726.07	  353.42
    115.5700	 3776.00	 3834.68	-1776.43	  353.44
    115.6700	 4238.00	 4212.69	-1692.44	  353.47
    115.7700	 4432.00	 4596.74	-1882.49	  353.51
    115.8700	 4781.00	 4979.20	-1915.95	  353.55
    115.9700	 5172.00	 5351.14	-1896.89	  353.59
    116.0700	 5570.00	 5702.97	-1850.72	  353.64
    116.1700	 5939.00	 6024.24	-1802.99	  353.70
    116.2700	 6157.00	 6304.27	-1865.02	  353.76
    116.3700	 6473.00	 6532.83	-1777.58	  353.82
    116.4700	 6480.00	 6700.65	-1938.40	  353.90
    116.5700	 6820.00	 6800.52	-1698.27	  353.97
    116.6700	 6836.00	 6827.98	-1709.73	  354.05
    116.7700	 6871.00	 6782.02	-1628.77	  354.14
    116.8700	 6631.00	 6665.12	-1751.87	  354.23
    116.9700	 6553.00	 6483.02	-1647.77	  354.33
    117.0700	 6158.00	 6243.77	-1803.52	  354.43
    117.1700	 5949.00	 5957.14	-1725.89	  354.54
    117.2700	 5484.00	 5633.61	-1867.36	  354.66
    117.3700	 5264.00	 5283.54	-1737.29	  354.78
    117.4700	 4823.00	 4917.05	-1811.80	  354.90
    117.5700	 4603.00	 4543.21	-1657.96	  355.03
    117.6700	 4371.00	 4170.27	-1517.02	  355.17
    117.7700	 3932.00	 3805.35	-1591.10	  355.32
    117.8700	 3567.00	 3454.17	-1604.92	  355.46
    117.9700	 3225.00	 3121.51	-1614.26	  355.62
    118.0700	 2893.00	 2810.72	-1635.47	  355.78
    118.1700	 2616.00	 2524.20	-1625.95	  355.95
    118.2700	 2332.00	 2263.34	-1649.09	  356.12
    118.3700	 1968.00	 2028.50	-1778.25	  356.30
    118.4700	 1715.00	 1819.43	-1822.18	  356.49
    118.5700	 1638.00	 1635.15	-1714.90	  356.68
    118.6700	 1441.00	 1474.29	-1751.04	  356.88
    118.7700	 1332.00	 1335.11	-1720.86	  357.09
    118.8700	 1154.00	 1215.62	-1779.37	  357.30
    118.9700	 1131.00	 1113.77	-1700.52	  357.52
    119.0700	  944.00	 1027.48	-1801.23	  357.75
    119.1700	  924.00	  954.74	-1748.49	  357.98
    119.2700	  904.00	  893.67	-1707.42	  358.22
    119.3700	  861.00	  842.54	-1699.29	  358.46
    119.4700	  760.00	  799.82	-1757.57	  358.72
    119.5700	  707.00	  764.16	-1774.91	  358.98
    119.6700	  718.00	  734.39	-1734.14	  359.24
    119.7700	  692.00	  709.53	-1735.28	  359.52
    119.8700	  693.00	  688.75	-1713.50	  359.80
    119.9700	  654.00	  671.37	-1735.12	  360.09
    120.0700	  584.00	  656.81	-1790.56	  360.38
    120.1700	  603.00	  644.63	-1759.38	  360.69
    120.2700	  575.00	  634.45	-1777.20	  361.00
    120.3700	  567.00	  625.98	-1776.73	  361.31
    120.4700	  595.00	  618.97	-1741.72	  361.64
    120.5700	  560.00	  613.24	-1770.99	  361.97
    120.6700	  579.00	  608.64	-1747.39	  362.31
    120.7700	  571.00	  605.04	-1751.79	  362.66
    120.8700	  568.00	  602.35	-1752.10	  363.02
    120.9700	  581.00	  600.49	-1737.24	  363.38
    121.0700	  568.00	  599.40	-1749.15	  363.75
    121.1700	  567.00	  599.02	-1749.77	  364.13
    121.2700	  566.00	  599.30	-1751.05	  364.52
    121.3700	  583.00	  600.19	-1734.94	  364.92
    121.4700	  608.00	  601.63	-1711.38	  365.32
    121.5700	  653.00	  603.58	-1668.33	  365.73
    121.6700	  583.00	  605.97	-1740.72	  366.16
    121.7700	  596.00	  608.74	-1730.49	  366.58
    121.8700	  594.00	  611.81	-1735.56	  367.02
    121.9700	  659.00	  615.10	-1673.85	  367.47
    122.0700	  645.00	  618.53	-1691.28	  367.92
    122.1700	  615.00	  621.98	-1724.73	  368.39
    122.2700	  662.00	  625.40	-1681.15	  368.86
    122.3700	  682.00	  628.65	-1664.40	  369.34
    122.4700	  644.00	  631.63	-1705.38	  369.83
    122.5700	  642.00	  634.25	-1710.00	  370.33
    122.6700	  674.00	  636.41	-1680.16	  370.83
    122.7700	  617.00	  638.05	-1738.80	  371.35
    122.8700	  644.00	  639.11	-1712.86	  371.88
    122.9700	  666.00	  639.56	-1691.31	  372.41
    123.0700	  686.00	  639.37	-1671.12	  372.96
    123.1700	  626.00	  638.62	-1730.37	  373.51
    123.2700	  672.00	  637.31	-1683.06	  374.07
    123.3700	  673.00	  635.51	-1680.26	  374.64
    123.4700	  623.00	  633.28	-1728.03	  375.23
    123.5700	  624.00	  630.70	-1724.45	  375.82
    123.6700	  625.00	  627.83	-1720.58	  376.42
    123.7700	  661.00	  624.76	-1681.51	  377.03
    123.8700	  626.00	  621.54	-1713.29	  377.65
    123.9700	  624.00	  618.26	-1712.01	  378.28
    124.0700	  598.00	  614.96	-1734.71	  378.92
    124.1700	  617.00	  611.71	-1712.46	  379.57
    124.2700	  623.00	  608.55	-1703.30	  380.23
    124.3700	  646.00	  605.51	-1677.26	  380.90
    124.4700	  582.00	  602.65	-1738.40	  381.59
    124.5700	  604.00	  599.96	-1713.71	  382.28
    124.6700	  606.00	  597.49	-1709.24	  382.98
    124.7700	  598.00	  595.24	-1714.99	  383.69
    124.8700	  581.00	  593.23	-1729.98	  384.41
    124.9700	  613.00	  502.93	-1607.68	  385.15
    125.0700	  586.00	  503.68	-1717.75	  385.89
    125.1700	  597.00	  504.43	-1717.75	  386.65
    125.2700	  555.00	  505.20	-1717.75	  387.41
    125.3700	  518.00	  505.98	-1717.75	  388.19
    125.4700	  612.00	  506.76	-1717.75	  388.98
    125.5700	  550.00	  507.56	-1717.75	  389.78
    125.6700	  569.00	  508.37	-1717.75	  390.59
    125.7700	  605.00	  509.19	-1717.75	  391.41
    125.8700	  562.00	  510.03	-1717.75	  392.24
    125.9700	  552.00	  510.87	-1717.75	  393.09
    126.0700	  532.00	  511.73	-1717.75	  393.94
    126.1700	  585.00	  512.59	-1717.75	  394.81
    126.2700	  635.00	  513.47	-1717.75	  395.69
    126.3700	  621.00	  514.36	-1717.75	  396.58
    126.4700	  585.00	  515.27	-1717.75	  397.48
    126.5700	  607.00	  516.18	-1717.75	  398.40
    126.6700	  611.00	  517.11	-1717.75	  399.32
    126.7700	  635.00	  518.05	-1717.75	  400.26
    126.8700	  650.00	  519.00	-1717.75	  401.21
    126.9700	  642.00	  519.96	-1717.75	  402.17
    127.0700	  666.00	  520.93	-1717.75	  403.15
    127.1700	  666.00	  521.92	-1717.75	  404.14
    127.2700	  710.00	  522.92	-1717.75	  405.14
    127.3700	  694.00	  523.93	-1717.75	  406.15
    127.4700	  653.00	  524.96	-1717.75	  407.17
    127.5700	  669.00	  526.00	-1717.75	  408.21
    127.6700	  694.00	  527.05	-1717.75	  409.26
    127.7700	  660.00	  528.11	-1717.75	  410.32
    127.8700	  769.00	  529.19	-1717.75	  411.40
    127.9700	  782.00	  530.28	-1717.75	  412.49
    128.0700	  799.00	  531.38	-1717.75	  413.59
    128.1700	  805.00	  532.49	-1717.75	  414.71
    128.2700	  716.00	  533.62	-1717.75	  415.84
    128.3700	  819.00	  534.76	-1717.75	  416.98
    128.4700	  814.00	  535.92	-1717.75	  418.13
    128.5700	    0.00	  537.09	-1717.75	  419.30
    128.6700	    0.00	  538.27	-1717.75	  420.49
     12.3079	        	        	        	        	       0	(  0  0  2)	  0  1
     24.8876	        	        	        	        	       0	(  0  0  4)	  0  1
     28.3349	        	        	        	        	       0	(  1  0  0)	  0  1
     29.0318	        	        	        	        	       0	(  1  0  1)	  0  1
     31.0371	        	        	        	        	       0	(  1  0  2)	  0  1
     34.1440	        	        	        	        	       0	(  1  0  3)	  0  1
     37.7831	        	        	        	        	       0	(  0  0  6)	  0  1
     38.1194	        	        	        	        	       0	(  1  0  4)	  0  1
     42.7676	        	        	        	        	       0	(  1  0  5)	  0  1
     47.9496	        	        	        	        	       0	(  1  0  6)	  0  1
     50.2708	        	        	        	        	       0	(  1  1  0)	  0  1
     51.2004	        	        	        	        	       0	(  0  0  8)	  0  1
     51.9930	        	        	        	        	       0	(  1  1  2)	  0  1
     53.5778	        	        	        	        	       0	(  1  0  7)	  0  1
     56.9385	        	        	        	        	       0	(  1  1  4)	  0  1
     58.7674	        	        	        	        	       0	(  2  0  0)	  0  1
     59.1587	        	        	        	        	       0	(  2  0  1)	  0  1
     59.6057	        	        	        	        	       0	(  1  0  8)	  0  1
     60.3235	        	        	        	        	       0	(  2  0  2)	  0  1
     62.2358	        	        	        	        	       0	(  2  0  3)	  0  1
     64.6295	        	        	        	        	       0	(  1  1  6)	  0  1
     64.8586	        	        	        	        	       0	(  2  0  4)	  0  1
     65.4240	        	        	        	        	       0	(  0  0 10)	  0  1
     66.0193	        	        	        	        	       0	(  1  0  9)	  0  1
     68.1512	        	        	        	        	       0	(  2  0  5)	  0  1
     72.0767	        	        	        	        	       0	(  2  0  6)	  0  1
     72.8323	        	        	        	        	       0	(  1  0 10)	  0  1
     74.6623	        	        	        	        	       0	(  1  1  8)	  0  1
     76.6085	        	        	        	        	       0	(  2  0  7)	  0  1
     80.0864	        	        	        	        	       0	(  1  0 11)	  0  1
     80.8972	        	        	        	        	       0	(  0  0 12)	  0  1
     81.0072	        	        	        	        	       0	(  2  1  0)	  0  1
     81.3469	        	        	        	        	       0	(  2  1  1)	  0  1
     81.7362	        	        	        	        	       0	(  2  0  8)	  0  1
     82.3642	        	        	        	        	       0	(  2  1  2)	  0  1
     84.0546	        	        	        	        	       0	(  2  1  3)	  0  1
     86.4129	        	        	        	        	       0	(  2  1  4)	  0  1
     86.9273	        	        	        	        	       0	(  1  1 10)	  0  1
     87.4711	        	        	        	        	       0	(  2  0  9)	  0  1
     87.8565	        	        	        	        	       0	(  1  0 12)	  0  1
     89.4371	        	        	        	        	       0	(  2  1  5)	  0  1
     93.1324	        	        	        	        	       0	(  2  1  6)	  0  1
     93.8548	        	        	        	        	       0	(  2  0 10)	  0  1
     94.8950	        	        	        	        	       0	(  3  0  0)	  0  1
     95.2321	        	        	        	        	       0	(  3  0  1)	  0  1
     96.2646	        	        	        	        	       0	(  1  0 13)	  0  1
     96.2448	        	        	        	        	       0	(  3  0  2)	  0  1
     97.5184	        	        	        	        	       0	(  2  1  7)	  0  1
     97.9371	        	        	        	        	       0	(  3  0  3)	  0  1
     98.4262	        	        	        	        	       0	(  0  0 14)	  0  1
    100.3187	        	        	        	        	       0	(  3  0  4)	  0  1
    100.9722	        	        	        	        	       0	(  2  0 11)	  0  1
    101.7885	        	        	        	        	       0	(  1  1 12)	  0  1
    102.6377	        	        	        	        	       0	(  2  1  8)	  0  1
    103.4085	        	        	        	        	       0	(  3  0  5)	  0  1
    105.5107	        	        	        	        	       0	(  1  0 14)	  0  1
    107.2412	        	        	        	        	       0	(  3  0  6)	  0  1
    108.5706	        	        	        	        	       0	(  2  1  9)	  0  1
    108.9777	        	        	        	        	       0	(  2  0 12)	  0  1
    111.8785	        	        	        	        	       0	(  3  0  7)	  0  1
    115.4624	        	        	        	        	       0	(  2  1 10)	  0  1
    115.9451	        	        	        	        	       0	(  1  0 15)	  0  1
    116.6177	        	        	        	        	       0	(  2  2  0)	  0  1
    117.4279	        	        	        	        	       0	(  3  0  8)	  0  1
    118.1544	        	        	        	        	       0	(  2  0 13)	  0  1
    118.1319	        	        	        	        	       0	(  2  2  2)	  0  1
    119.8959	        	        	        	        	       0	(  0  0 16)	  0  1
    120.6171	        	        	        	        	       0	(  1  1 14)	  0  1
    122.8143	        	        	        	        	       0	(  2  2  4)	  0  1
    123.5825	        	        	        	        	       0	(  2  1 11)	  0  1
    124.0826	        	        	        	        	       0	(  3  0  9)	  0  1
    124.6818	        	        	        	        	       0	(  3  1  0)	  0  1
    125.0918	        	        	        	        	       0	(  3  1  1)	  0  1
    126.3343	        	        	        	        	       0	(  3  1  2)	  0  1
    128.2744	        	        	        	        	       0	(  1  0 16)	  0  1
    128.4511	        	        	        	        	       0	(  3  1  3)	  0  1
    129.0727	        	        	        	        	       0	(  2  0 14)	  0  1
    131.2478	        	        	        	        	       0	(  2  2  6)	  0  1
    131.5247	        	        	        	        	       0	(  3  1  4)	  0  1
    132.2157	        	        	        	        	       0	(  3  0 10)	  0  1
    133.4845	        	        	        	        	       0	(  2  1 12)	  0  1
    135.7084	        	        	        	        	       0	(  3  1  5)	  0  1
    141.2988	        	        	        	        	       0	(  3  1  6)	  0  1
    142.6818	        	        	        	        	       0	(  3  0 11)	  0  1
    143.1912	        	        	        	        	       0	(  2  0 15)	  0  1
    144.4156	        	        	        	        	       0	(  1  0 17)	  0  1
    145.4676	        	        	        	        	       0	(  2  2  8)	  0  1
    146.6205	        	        	        	        	       0	(  2  1 13)	  0  1
    148.9633	        	        	        	        	       0	(  3  1  7)	  0  1
    149.5059	        	        	        	        	       0	(  1  1 16)	  0  1
    153.8768	        	        	        	        	       0	(  0  0 18)	  0  1
    158.5263	        	        	        	        	       0	(  3  0 12)	  0  1
    158.8266	        	        	        	        	       0	(  4  0  0)	  0  1
    159.7822	        	        	        	        	       0	(  4  0  1)	  0  1
    160.9350	        	        	        	        	       0	(  3  1  8)	  0  1
    162.9559	        	        	        	        	       0	(  4  0  2)	  0  1
    169.4844	        	        	        	        	       0	(  2  0 16)	  0  1
    170.2810	        	        	        	        	       0	(  4  0  3)	  0  1
    173.8396	        	        	        	        	       0	(  2  1 14)	  0  1
