MSG Master    CELL:    5.91924   5.91924  23.26848   90.0000   90.0000  120.0000   SPGR: P 63/m m c             TEMP:   1074.75
  1   1280     2.52000     0.00000    -0.12671     0.00000     0.00000    0
    99     0     2
       0.00000      10.00000
     125.00000     130.00000
 2Theta	Yobs	Ycal	Yobs-Ycal	Backg	Posr	(hkl)	K
      0.7700	    0.00	  562.42	-1769.25	  444.64
      0.8700	    0.00	  563.02	-1769.25	  445.24
      0.9700	   42.00	  563.60	-1769.25	  445.82
      1.0700	   33.00	  564.18	-1769.25	  446.40
      1.1700	   53.00	  564.74	-1769.25	  446.96
      1.2700	   50.00	  565.30	-1769.25	  447.52
      1.3700	   69.00	  565.84	-1769.25	  448.06
      1.4700	   96.00	  566.38	-1769.25	  448.60
      1.5700	  312.00	  566.90	-1769.25	  449.12
      1.6700	  497.00	  567.42	-1769.25	  449.63
      1.7700	  546.00	  567.92	-1769.25	  450.14
      1.8700	  717.00	  568.42	-1769.25	  450.63
      1.9700	  700.00	  568.90	-1769.25	  451.12
      2.0700	  791.00	  569.38	-1769.25	  451.60
      2.1700	  791.00	  569.84	-1769.25	  452.06
      2.2700	  788.00	  570.30	-1769.25	  452.52
      2.3700	  730.00	  570.75	-1769.25	  452.96
      2.4700	  709.00	  571.18	-1769.25	  453.40
      2.5700	  697.00	  571.61	-1769.25	  453.83
      2.6700	  622.00	  572.03	-1769.25	  454.25
      2.7700	  663.00	  572.44	-1769.25	  454.66
      2.8700	  638.00	  572.84	-1769.25	  455.06
      2.9700	  623.00	  573.23	-1769.25	  455.45
      3.0700	  666.00	  573.62	-1769.25	  455.84
      3.1700	  593.00	  573.99	-1769.25	  456.21
      3.2700	  632.00	  574.36	-1769.25	  456.57
      3.3700	  669.00	  574.71	-1769.25	  456.93
      3.4700	  808.00	  575.06	-1769.25	  457.28
      3.5700	  822.00	  575.40	-1769.25	  457.62
      3.6700	  805.00	  575.73	-1769.25	  457.95
      3.7700	  859.00	  576.05	-1769.25	  458.27
      3.8700	  938.00	  576.37	-1769.25	  458.59
      3.9700	  983.00	  576.67	-1769.25	  458.89
      4.0700	 1019.00	  576.97	-1769.25	  459.19
      4.1700	 1047.00	  577.26	-1769.25	  459.48
      4.2700	 1105.00	  577.54	-1769.25	  459.76
      4.3700	 1068.00	  577.81	-1769.25	  460.03
      4.4700	 1080.00	  578.08	-1769.25	  460.30
      4.5700	 1054.00	  578.33	-1769.25	  460.55
      4.6700	  984.00	  578.58	-1769.25	  460.80
      4.7700	 1037.00	  578.82	-1769.25	  461.04
      4.8700	 1007.00	  579.06	-1769.25	  461.28
      4.9700	  953.00	  579.28	-1769.25	  461.50
      5.0700	  957.00	  579.50	-1769.25	  461.72
      5.1700	  877.00	  579.71	-1769.25	  461.93
      5.2700	  950.00	  579.91	-1769.25	  462.13
      5.3700	  847.00	  580.11	-1769.25	  462.33
      5.4700	  904.00	  580.30	-1769.25	  462.52
      5.5700	  896.00	  580.48	-1769.25	  462.70
      5.6700	  832.00	  580.65	-1769.25	  462.87
      5.7700	  809.00	  580.82	-1769.25	  463.04
      5.8700	  810.00	  580.98	-1769.25	  463.20
      5.9700	  786.00	  581.13	-1769.25	  463.35
      6.0700	  821.00	  581.27	-1769.25	  463.49
      6.1700	  784.00	  581.41	-1769.25	  463.63
      6.2700	  763.00	  581.54	-1769.25	  463.76
      6.3700	  712.00	  581.67	-1769.25	  463.89
      6.4700	  799.00	  581.78	-1769.25	  464.00
      6.5700	  760.00	  581.90	-1769.25	  464.11
      6.6700	  688.00	  582.00	-1769.25	  464.22
      6.7700	  763.00	  582.10	-1769.25	  464.32
      6.8700	  714.00	  582.19	-1769.25	  464.41
      6.9700	  692.00	  582.27	-1769.25	  464.49
      7.0700	  669.00	  582.35	-1769.25	  464.57
      7.1700	  741.00	  582.42	-1769.25	  464.64
      7.2700	  715.00	  582.49	-1769.25	  464.71
      7.3700	  688.00	  582.55	-1769.25	  464.77
      7.4700	  668.00	  582.60	-1769.25	  464.82
      7.5700	  668.00	  582.65	-1769.25	  464.87
      7.6700	  622.00	  582.69	-1769.25	  464.91
      7.7700	  659.00	  582.72	-1769.25	  464.94
      7.8700	  695.00	  582.75	-1769.25	  464.97
      7.9700	  649.00	  582.77	-1769.25	  464.99
      8.0700	  619.00	  582.79	-1769.25	  465.01
      8.1700	  600.00	  582.80	-1769.25	  465.02
      8.2700	  670.00	  582.81	-1769.25	  465.03
      8.3700	  659.00	  582.81	-1769.25	  465.03
      8.4700	  665.00	  582.80	-1769.25	  465.02
      8.5700	  642.00	  582.79	-1769.25	  465.01
      8.6700	  638.00	  582.77	-1769.25	  464.99
      8.7700	  586.00	  582.75	-1769.25	  464.97
      8.8700	  660.00	  582.72	-1769.25	  464.94
      8.9700	  633.00	  582.69	-1769.25	  464.91
      9.0700	  630.00	  582.65	-1769.25	  464.87
      9.1700	  642.00	  582.61	-1769.25	  464.82
      9.2700	  583.00	  582.56	-1769.25	  464.78
      9.3700	  582.00	  582.50	-1769.25	  464.72
      9.4700	  615.00	  582.44	-1769.25	  464.66
      9.5700	  607.00	  582.38	-1769.25	  464.60
      9.6700	  594.00	  582.31	-1769.25	  464.53
      9.7700	  607.00	  582.23	-1769.25	  464.45
      9.8700	  587.00	  582.16	-1769.25	  464.37
      9.9700	  611.00	  582.07	-1769.25	  464.29
     10.0700	  608.00	  582.67	-1743.92	  464.20
     10.1700	  564.00	  582.65	-1787.90	  464.11
     10.2700	  634.00	  582.64	-1717.89	  464.01
     10.3700	  609.00	  582.65	-1742.90	  463.91
     10.4700	  535.00	  582.70	-1816.95	  463.80
     10.5700	  584.00	  582.86	-1768.11	  463.69
     10.6700	  562.00	  583.19	-1790.44	  463.57
     10.7700	  573.00	  583.82	-1780.07	  463.45
     10.8700	  603.00	  584.81	-1751.06	  463.32
     10.9700	  613.00	  586.14	-1742.39	  463.19
     11.0700	  590.00	  587.79	-1767.04	  463.06
     11.1700	  594.00	  589.75	-1765.00	  462.92
     11.2700	  561.00	  592.05	-1800.30	  462.78
     11.3700	  577.00	  594.75	-1787.00	  462.63
     11.4700	  636.00	  597.99	-1731.24	  462.48
     11.5700	  600.00	  601.93	-1771.18	  462.32
     11.6700	  619.00	  606.90	-1757.15	  462.16
     11.7700	  615.00	  613.46	-1767.71	  462.00
     11.8700	  584.00	  622.51	-1807.76	  461.83
     11.9700	  650.00	  634.83	-1754.08	  461.66
     12.0700	  678.00	  649.14	-1740.39	  461.49
     12.1700	  701.00	  659.63	-1727.88	  461.31
     12.2700	  679.00	  656.72	-1746.97	  461.13
     12.3700	  661.00	  637.29	-1745.54	  460.94
     12.4700	  612.00	  613.43	-1770.68	  460.75
     12.5700	  583.00	  596.19	-1782.44	  460.56
     12.6700	  559.00	  587.08	-1797.33	  460.36
     12.7700	  551.00	  583.07	-1801.32	  460.16
     12.8700	  563.00	  581.27	-1787.52	  459.96
     12.9700	  602.00	  580.24	-1747.49	  459.75
     13.0700	  609.00	  579.51	-1739.76	  459.54
     13.1700	  591.00	  578.92	-1757.17	  459.33
     13.2700	  540.00	  578.42	-1807.67	  459.11
     13.3700	  540.00	  577.99	-1807.24	  458.89
     13.4700	  622.00	  577.60	-1724.85	  458.67
     13.5700	  578.00	  577.24	-1768.49	  458.44
     13.6700	  592.00	  576.90	-1754.15	  458.21
     13.7700	  561.00	  576.58	-1784.83	  457.98
     13.8700	  587.00	  576.27	-1758.52	  457.74
     13.9700	  566.00	  575.97	-1779.22	  457.50
     14.0700	  583.00	  575.68	-1761.93	  457.26
     14.1700	  589.00	  575.39	-1755.64	  457.02
     14.2700	  577.00	  575.10	-1767.35	  456.77
     14.3700	  574.00	  574.81	-1770.06	  456.52
     14.4700	  571.00	  574.53	-1772.78	  456.27
     14.5700	  576.00	  574.25	-1767.50	  456.01
     14.6700	  550.00	  573.97	-1793.22	  455.75
     14.7700	  589.00	  573.69	-1753.94	  455.49
     14.8700	  556.00	  573.40	-1786.65	  455.23
     14.9700	  622.00	  573.12	-1720.37	  454.96
     15.0700	  595.00	  572.84	-1747.09	  454.69
     15.1700	  529.00	  572.55	-1812.80	  454.42
     15.2700	  564.00	  572.27	-1777.52	  454.14
     15.3700	  546.00	  571.98	-1795.23	  453.87
     15.4700	  570.00	  571.69	-1770.94	  453.59
     15.5700	  579.00	  571.40	-1761.65	  453.31
     15.6700	  562.00	  571.11	-1778.36	  453.02
     15.7700	  558.00	  570.81	-1782.06	  452.74
     15.8700	  577.00	  570.52	-1762.77	  452.45
     15.9700	  537.00	  570.22	-1802.47	  452.16
     16.0700	  563.00	  569.92	-1776.17	  451.87
     16.1700	  530.00	  569.62	-1808.87	  451.57
     16.2700	  581.00	  569.32	-1757.57	  451.28
     16.3700	  565.00	  569.05	-1773.30	  450.98
     16.4700	  521.00	  568.74	-1816.99	  450.68
     16.5700	  592.00	  568.43	-1745.68	  450.38
     16.6700	  527.00	  568.13	-1810.38	  450.07
     16.7700	  581.00	  567.82	-1756.07	  449.76
     16.8700	  557.00	  567.51	-1779.76	  449.46
     16.9700	  562.00	  567.19	-1774.44	  449.15
     17.0700	  568.00	  566.88	-1768.13	  448.83
     17.1700	  583.00	  566.56	-1752.81	  448.52
     17.2700	  577.00	  566.25	-1758.50	  448.21
     17.3700	  563.00	  565.93	-1772.18	  447.89
     17.4700	  546.00	  565.61	-1788.86	  447.57
     17.5700	  551.00	  565.29	-1783.54	  447.25
     17.6700	  599.00	  564.96	-1735.21	  446.93
     17.7700	  528.00	  564.64	-1805.89	  446.60
     17.8700	  553.00	  564.31	-1780.56	  446.28
     17.9700	  544.00	  564.09	-1789.34	  445.95
     18.0700	  591.00	  563.77	-1742.02	  445.62
     18.1700	  564.00	  563.44	-1768.69	  445.30
     18.2700	  570.00	  563.11	-1762.36	  444.96
     18.3700	  560.00	  562.78	-1772.03	  444.63
     18.4700	  551.00	  562.45	-1780.70	  444.30
     18.5700	  561.00	  562.12	-1770.37	  443.96
     18.6700	  560.00	  561.78	-1771.03	  443.63
     18.7700	  547.00	  561.45	-1783.70	  443.29
     18.8700	  547.00	  561.20	-1783.45	  442.95
     18.9700	  555.00	  560.87	-1775.12	  442.61
     19.0700	  572.00	  560.53	-1757.78	  442.27
     19.1700	  592.00	  560.20	-1737.45	  441.93
     19.2700	  616.00	  559.86	-1713.11	  441.59
     19.3700	  537.00	  559.52	-1791.77	  441.25
     19.4700	  546.00	  559.18	-1782.43	  440.90
     19.5700	  573.00	  558.85	-1755.10	  440.56
     19.6700	  526.00	  558.51	-1801.76	  440.21
     19.7700	  574.00	  558.17	-1753.42	  439.86
     19.8700	  540.00	  557.83	-1787.08	  439.51
     19.9700	  567.00	  557.49	-1759.74	  439.16
     20.0700	  574.00	  557.15	-1752.40	  438.81
     20.1700	  517.00	  556.81	-1809.06	  438.46
     20.2700	  549.00	  556.46	-1776.71	  438.11
     20.3700	  600.00	  556.12	-1725.37	  437.76
     20.4700	  556.00	  555.75	-1769.00	  437.41
     20.5700	  523.00	  555.41	-1801.66	  437.05
     20.6700	  566.00	  555.07	-1758.32	  436.70
     20.7700	  531.00	  554.73	-1792.98	  436.34
     20.8700	  542.00	  554.39	-1781.64	  435.99
     20.9700	  550.00	  554.09	-1773.34	  435.63
     21.0700	  540.00	  553.75	-1783.00	  435.28
     21.1700	  590.00	  553.41	-1732.66	  434.92
     21.2700	  550.00	  553.07	-1772.32	  434.56
     21.3700	  539.00	  552.73	-1782.98	  434.20
     21.4700	  571.00	  552.40	-1750.65	  433.84
     21.5700	  570.00	  552.06	-1751.31	  433.49
     21.6700	  536.00	  551.73	-1784.98	  433.13
     21.7700	  532.00	  551.39	-1788.64	  432.77
     21.8700	  552.00	  551.06	-1768.31	  432.41
     21.9700	  553.00	  550.73	-1766.98	  432.05
     22.0700	  571.00	  550.41	-1748.66	  431.69
     22.1700	  569.00	  550.08	-1750.33	  431.33
     22.2700	  544.00	  549.76	-1775.01	  430.97
     22.3700	  561.00	  549.44	-1757.69	  430.61
     22.4700	  519.00	  549.13	-1799.38	  430.24
     22.5700	  550.00	  548.82	-1768.07	  429.88
     22.6700	  553.00	  548.51	-1764.76	  429.52
     22.7700	  577.00	  548.22	-1740.47	  429.16
     22.8700	  529.00	  547.93	-1788.18	  428.80
     22.9700	  544.00	  547.65	-1772.90	  428.44
     23.0700	  523.00	  547.38	-1793.63	  428.08
     23.1700	  531.00	  547.13	-1785.38	  427.72
     23.2700	  576.00	  546.89	-1740.14	  427.35
     23.3700	  512.00	  546.68	-1803.93	  426.99
     23.4700	  583.00	  546.50	-1732.75	  426.63
     23.5700	  551.00	  546.37	-1764.62	  426.27
     23.6700	  525.00	  546.29	-1790.54	  425.91
     23.7700	  550.00	  546.32	-1765.57	  425.55
     23.8700	  528.00	  546.67	-1787.92	  425.19
     23.9700	  590.00	  547.30	-1726.55	  424.83
     24.0700	  545.00	  548.76	-1773.01	  424.47
     24.1700	  579.00	  551.72	-1741.97	  424.11
     24.2700	  615.00	  557.03	-1711.28	  423.75
     24.3700	  592.00	  565.67	-1742.92	  423.39
     24.4700	  586.00	  578.77	-1762.02	  423.03
     24.5700	  622.00	  596.80	-1744.05	  422.67
     24.6700	  600.00	  617.20	-1786.45	  422.31
     24.7700	  640.00	  631.87	-1761.12	  421.95
     24.8700	  623.00	  629.50	-1775.75	  421.60
     24.9700	  571.00	  608.03	-1806.28	  421.24
     25.0700	  603.00	  581.51	-1747.76	  420.88
     25.1700	  588.00	  561.74	-1742.99	  420.53
     25.2700	  519.00	  550.82	-1801.07	  420.17
     25.3700	  564.00	  545.85	-1751.10	  419.82
     25.4700	  533.00	  543.65	-1779.90	  419.46
     25.5700	  548.00	  542.48	-1763.73	  419.11
     25.6700	  534.00	  541.72	-1776.97	  418.75
     25.7700	  574.00	  541.16	-1736.41	  418.40
     25.8700	  603.00	  540.72	-1706.97	  418.05
     25.9700	  578.00	  540.39	-1731.64	  417.70
     26.0700	  528.00	  540.14	-1781.39	  417.35
     26.1700	  554.00	  539.97	-1755.22	  417.00
     26.2700	  518.00	  539.88	-1791.13	  416.65
     26.3700	  497.00	  539.86	-1812.11	  416.30
     26.4700	  559.00	  539.92	-1750.17	  415.95
     26.5700	  518.00	  540.09	-1791.34	  415.60
     26.6700	  564.00	  540.36	-1745.61	  415.25
     26.7700	  542.00	  540.78	-1768.03	  414.91
     26.8700	  579.00	  541.38	-1731.63	  414.56
     26.9700	  515.00	  542.21	-1796.46	  414.22
     27.0700	  523.00	  543.34	-1789.59	  413.87
     27.1700	  529.00	  544.93	-1785.18	  413.53
     27.2700	  522.00	  547.22	-1794.47	  413.19
     27.3700	  580.00	  550.73	-1739.98	  412.85
     27.4700	  580.00	  556.46	-1745.71	  412.51
     27.5700	  561.00	  566.19	-1774.44	  412.17
     27.6700	  539.00	  582.68	-1812.93	  411.83
     27.7700	  586.00	  609.48	-1792.73	  411.49
     27.8700	  578.00	  649.58	-1840.83	  411.16
     27.9700	  704.00	  702.93	-1768.18	  410.82
     28.0700	  755.00	  763.32	-1777.57	  410.49
     28.1700	  865.00	  815.60	-1719.85	  410.15
     28.2700	 1002.00	  837.30	-1604.55	  409.82
     28.3700	  922.00	  815.60	-1662.85	  409.49
     28.4700	  841.00	  772.18	-1700.43	  409.16
     28.5700	  719.00	  742.03	-1792.28	  408.83
     28.6700	  730.00	  740.98	-1780.23	  408.50
     28.7700	  750.00	  764.25	-1783.50	  408.18
     28.8700	  774.00	  791.98	-1787.23	  407.85
     28.9700	  848.00	  796.16	-1717.41	  407.53
     29.0700	  763.00	  759.17	-1765.42	  407.20
     29.1700	  710.00	  696.68	-1755.93	  406.88
     29.2700	  690.00	  637.19	-1716.44	  406.56
     29.3700	  590.00	  594.27	-1773.52	  406.24
     29.4700	  572.00	  568.30	-1765.55	  405.92
     29.5700	  578.00	  554.23	-1745.48	  405.60
     29.6700	  565.00	  546.78	-1751.03	  405.28
     29.7700	  561.00	  542.55	-1750.80	  404.97
     29.8700	  582.00	  539.92	-1727.17	  404.66
     29.9700	  631.00	  538.25	-1676.50	  404.34
     30.0700	  512.00	  537.40	-1794.65	  404.03
     30.1700	  584.00	  537.54	-1722.79	  403.72
     30.2700	  588.00	  539.22	-1720.47	  403.41
     30.3700	  549.00	  543.56	-1763.81	  403.11
     30.4700	  537.00	  552.21	-1784.46	  402.80
     30.5700	  562.00	  566.95	-1774.20	  402.49
     30.6700	  580.00	  588.32	-1777.57	  402.19
     30.7700	  607.00	  613.69	-1775.94	  401.89
     30.8700	  582.00	  635.84	-1823.09	  401.59
     30.9700	  585.00	  643.74	-1827.99	  401.29
     31.0700	  597.00	  629.79	-1802.04	  400.99
     31.1700	  609.00	  601.34	-1761.59	  400.70
     31.2700	  508.00	  572.75	-1834.00	  400.40
     31.3700	  534.00	  551.67	-1786.92	  400.11
     31.4700	  533.00	  538.89	-1775.14	  399.81
     31.5700	  518.00	  532.09	-1783.34	  399.52
     31.6700	  515.00	  528.60	-1782.85	  399.23
     31.7700	  558.00	  526.66	-1737.91	  398.95
     31.8700	  533.00	  525.44	-1761.69	  398.66
     31.9700	  557.00	  524.58	-1736.83	  398.38
     32.0700	  525.00	  523.97	-1768.22	  398.09
     32.1700	  570.00	  523.53	-1722.78	  397.81
     32.2700	  518.00	  523.26	-1774.51	  397.53
     32.3700	  509.00	  523.14	-1783.39	  397.25
     32.4700	  585.00	  523.18	-1707.43	  396.98
     32.5700	  553.00	  523.38	-1739.63	  396.70
     32.6700	  560.00	  523.77	-1733.02	  396.43
     32.7700	  547.00	  524.41	-1746.66	  396.15
     32.8700	  542.00	  525.34	-1752.59	  395.88
     32.9700	  536.00	  526.69	-1759.94	  395.61
     33.0700	  551.00	  528.65	-1746.90	  395.35
     33.1700	  557.00	  531.67	-1743.92	  395.08
     33.2700	  551.00	  536.77	-1755.02	  394.82
     33.3700	  551.00	  546.16	-1764.41	  394.55
     33.4700	  554.00	  564.17	-1779.42	  394.29
     33.5700	  580.00	  597.86	-1787.11	  394.03
     33.6700	  631.00	  655.47	-1793.72	  393.78
     33.7700	  776.00	  741.04	-1734.29	  393.52
     33.8700	  886.00	  845.75	-1729.00	  393.27
     33.9700	 1058.00	  941.77	-1653.02	  393.01
     34.0700	 1105.00	  985.69	-1649.94	  392.76
     34.1700	  994.00	  944.55	-1719.80	  392.51
     34.2700	  879.00	  839.44	-1729.69	  392.27
     34.3700	  776.00	  725.42	-1718.67	  392.02
     34.4700	  673.00	  637.10	-1733.35	  391.78
     34.5700	  586.00	  581.76	-1765.01	  391.53
     34.6700	  551.00	  552.02	-1770.27	  391.29
     34.7700	  514.00	  537.22	-1792.47	  391.05
     34.8700	  538.00	  529.57	-1760.82	  390.82
     34.9700	  525.00	  525.03	-1769.28	  390.58
     35.0700	  550.00	  521.90	-1741.15	  390.35
     35.1700	  499.00	  519.53	-1789.78	  390.12
     35.2700	  521.00	  517.66	-1765.91	  389.89
     35.3700	  516.00	  516.15	-1769.40	  389.66
     35.4700	  528.00	  514.89	-1756.14	  389.43
     35.5700	  507.00	  513.82	-1776.07	  389.21
     35.6700	  540.00	  512.91	-1742.16	  388.98
     35.7700	  515.00	  512.11	-1766.36	  388.76
     35.8700	  496.00	  511.41	-1784.66	  388.54
     35.9700	  488.00	  511.28	-1792.53	  388.33
     36.0700	  532.00	  510.73	-1747.98	  388.11
     36.1700	  490.00	  510.23	-1789.48	  387.90
     36.2700	  486.00	  509.78	-1793.03	  387.68
     36.3700	  508.00	  509.38	-1770.63	  387.47
     36.4700	  503.00	  509.01	-1775.26	  387.27
     36.5700	  518.00	  508.68	-1759.93	  387.06
     36.6700	  504.00	  508.38	-1773.63	  386.86
     36.7700	  530.00	  508.13	-1747.39	  386.65
     36.8700	  487.00	  507.95	-1790.20	  386.45
     36.9700	  517.00	  507.87	-1760.11	  386.25
     37.0700	  490.00	  508.00	-1787.25	  386.05
     37.1700	  526.00	  508.58	-1751.83	  385.86
     37.2700	  491.00	  509.95	-1788.20	  385.67
     37.3700	  529.00	  512.51	-1752.76	  385.47
     37.4700	  544.00	  516.35	-1741.60	  385.28
     37.5700	  518.00	  520.95	-1772.20	  385.10
     37.6700	  493.00	  525.00	-1801.25	  384.91
     37.7700	  519.00	  526.85	-1777.10	  384.73
     37.8700	  511.00	  525.90	-1784.15	  384.54
     37.9700	  540.00	  523.16	-1752.41	  384.36
     38.0700	  487.00	  519.62	-1801.87	  384.18
     38.1700	  491.00	  515.68	-1793.93	  384.01
     38.2700	  527.00	  511.87	-1754.12	  383.83
     38.3700	  515.00	  508.77	-1763.02	  383.66
     38.4700	  499.00	  506.57	-1776.82	  383.49
     38.5700	  486.00	  505.16	-1788.41	  383.32
     38.6700	  550.00	  504.31	-1723.56	  383.15
     38.7700	  547.00	  503.68	-1725.93	  382.99
     38.8700	  556.00	  503.33	-1716.58	  382.83
     38.9700	  499.00	  503.05	-1773.30	  382.66
     39.0700	  483.00	  502.81	-1789.06	  382.50
     39.1700	  450.00	  502.60	-1821.85	  382.35
     39.2700	  476.00	  502.33	-1795.58	  382.19
     39.3700	  496.00	  502.16	-1775.41	  382.04
     39.4700	  515.00	  502.00	-1756.25	  381.89
     39.5700	  505.00	  501.85	-1766.10	  381.74
     39.6700	  471.00	  501.71	-1799.96	  381.59
     39.7700	  494.00	  501.70	-1776.95	  381.44
     39.8700	  509.00	  501.58	-1761.83	  381.30
     39.9700	  490.00	  501.47	-1780.72	  381.16
     40.0700	  487.00	  501.38	-1783.63	  381.02
     40.1700	  453.00	  501.29	-1817.54	  380.88
     40.2700	  503.00	  501.21	-1767.46	  380.74
     40.3700	  539.00	  501.15	-1731.40	  380.61
     40.4700	  516.00	  501.10	-1754.35	  380.47
     40.5700	  489.00	  501.06	-1781.31	  380.34
     40.6700	  521.00	  501.04	-1749.29	  380.21
     40.7700	  474.00	  501.04	-1796.29	  380.09
     40.8700	  510.00	  501.06	-1760.31	  379.96
     40.9700	  515.00	  501.11	-1755.36	  379.84
     41.0700	  489.00	  501.19	-1781.44	  379.72
     41.1700	  471.00	  501.31	-1799.56	  379.60
     41.2700	  512.00	  501.44	-1758.69	  379.48
     41.3700	  501.00	  501.68	-1769.93	  379.37
     41.4700	  514.00	  501.99	-1757.24	  379.25
     41.5700	  501.00	  502.41	-1770.66	  379.14
     41.6700	  540.00	  503.43	-1732.68	  379.03
     41.7700	  500.00	  504.32	-1773.57	  378.92
     41.8700	  469.00	  505.80	-1806.05	  378.82
     41.9700	  475.00	  508.54	-1802.79	  378.72
     42.0700	  536.00	  513.91	-1747.16	  378.61
     42.1700	  560.00	  524.15	-1733.40	  378.51
     42.2700	  544.00	  542.04	-1767.29	  378.42
     42.3700	  555.00	  569.20	-1783.45	  378.32
     42.4700	  542.00	  603.92	-1831.17	  378.23
     42.5700	  587.00	  638.82	-1821.07	  378.13
     42.6700	  634.00	  661.54	-1796.79	  378.04
     42.7700	  589.00	  660.13	-1840.38	  377.95
     42.8700	  592.00	  634.61	-1811.86	  377.87
     42.9700	  525.00	  597.91	-1842.16	  377.78
     43.0700	  558.00	  563.23	-1774.48	  377.70
     43.1700	  539.00	  537.25	-1767.50	  377.62
     43.2700	  523.00	  520.87	-1767.12	  377.54
     43.3700	  534.00	  511.85	-1747.10	  377.46
     43.4700	  492.00	  507.28	-1784.53	  377.39
     43.5700	  449.00	  504.96	-1825.21	  377.31
     43.6700	  550.00	  503.84	-1723.09	  377.24
     43.7700	  516.00	  503.01	-1756.26	  377.17
     43.8700	  502.00	  502.42	-1769.67	  377.11
     43.9700	  485.00	  501.98	-1786.23	  377.04
     44.0700	  477.00	  501.65	-1793.90	  376.98
     44.1700	  504.00	  501.39	-1766.64	  376.91
     44.2700	  507.00	  501.23	-1763.48	  376.85
     44.3700	  488.00	  501.09	-1782.34	  376.79
     44.4700	  482.00	  500.99	-1788.24	  376.74
     44.5700	  470.00	  500.81	-1800.06	  376.68
     44.6700	  533.00	  500.78	-1737.03	  376.63
     44.7700	  527.00	  500.78	-1743.03	  376.58
     44.8700	  484.00	  500.80	-1786.05	  376.53
     44.9700	  504.00	  500.85	-1766.10	  376.48
     45.0700	  476.00	  500.92	-1794.17	  376.44
     45.1700	  495.00	  501.01	-1775.26	  376.39
     45.2700	  505.00	  501.31	-1765.56	  376.35
     45.3700	  467.00	  501.45	-1803.70	  376.31
     45.4700	  495.00	  501.61	-1775.86	  376.27
     45.5700	  534.00	  501.79	-1737.04	  376.24
     45.6700	  524.00	  502.00	-1747.25	  376.20
     45.7700	  526.00	  502.24	-1745.49	  376.17
     45.8700	  502.00	  502.50	-1769.75	  376.14
     45.9700	  505.00	  502.80	-1767.05	  376.11
     46.0700	  534.00	  503.12	-1738.37	  376.08
     46.1700	  530.00	  503.49	-1742.74	  376.06
     46.2700	  508.00	  503.90	-1765.15	  376.03
     46.3700	  486.00	  504.36	-1787.61	  376.01
     46.4700	  520.00	  504.87	-1754.12	  375.99
     46.5700	  521.00	  505.45	-1753.70	  375.97
     46.6700	  504.00	  506.12	-1771.37	  375.95
     46.7700	  528.00	  506.89	-1748.14	  375.94
     46.8700	  507.00	  507.82	-1770.07	  375.93
     46.9700	  509.00	  509.00	-1769.25	  375.91
     47.0700	  506.00	  510.69	-1773.94	  375.90
     47.1700	  519.00	  513.38	-1763.63	  375.90
     47.2700	  513.00	  517.95	-1774.20	  375.89
     47.3700	  502.00	  525.62	-1792.87	  375.88
     47.4700	  580.00	  537.47	-1726.72	  375.88
     47.5700	  542.00	  553.88	-1781.13	  375.88
     47.6700	  553.00	  573.36	-1789.61	  375.88
     47.7700	  605.00	  591.88	-1756.13	  375.88
     47.8700	  605.00	  603.55	-1767.80	  375.89
     47.9700	  566.00	  603.56	-1806.81	  375.89
     48.0700	  583.00	  592.59	-1778.84	  375.90
     48.1700	  609.00	  576.41	-1736.66	  375.91
     48.2700	  563.00	  560.96	-1767.21	  375.92
     48.3700	  499.00	  549.58	-1819.83	  375.93
     48.4700	  527.00	  543.28	-1785.53	  375.94
     48.5700	  537.00	  541.47	-1773.72	  375.96
     48.6700	  490.00	  543.00	-1822.25	  375.98
     48.7700	  515.00	  546.94	-1801.19	  376.00
     48.8700	  547.00	  552.82	-1775.07	  376.02
     48.9700	  570.00	  560.73	-1759.98	  376.04
     49.0700	  584.00	  571.41	-1756.66	  376.06
     49.1700	  613.00	  586.62	-1742.87	  376.09
     49.2700	  676.00	  610.01	-1703.26	  376.11
     49.3700	  638.00	  648.46	-1779.71	  376.14
     49.4700	  723.00	  713.40	-1759.65	  376.17
     49.5700	  804.00	  821.28	-1786.53	  376.20
     49.6700	  998.00	  989.63	-1760.88	  376.24
     49.7700	 1122.00	 1231.86	-1879.11	  376.27
     49.8700	 1488.00	 1545.49	-1826.74	  376.31
     49.9700	 1806.00	 1900.75	-1864.00	  376.34
     50.0700	 2293.00	 2231.48	-1707.73	  376.38
     50.1700	 2524.00	 2440.27	-1685.52	  376.42
     50.2700	 2424.00	 2441.17	-1786.42	  376.47
     50.3700	 2341.00	 2231.58	-1659.83	  376.51
     50.4700	 1963.00	 1898.58	-1704.83	  376.56
     50.5700	 1448.00	 1544.13	-1865.38	  376.60
     50.6700	 1026.00	 1235.17	-1978.42	  376.65
     50.7700	  764.00	 1001.09	-2006.34	  376.70
     50.8700	  709.00	  843.35	-1903.60	  376.75
     50.9700	  679.00	  747.05	-1837.30	  376.80
     51.0700	  625.00	  691.41	-1835.66	  376.86
     51.1700	  584.00	  657.41	-1842.66	  376.91
     51.2700	  655.00	  632.29	-1746.54	  376.97
     51.3700	  556.00	  610.59	-1823.84	  377.03
     51.4700	  566.00	  591.58	-1794.83	  377.09
     51.5700	  574.00	  575.87	-1771.12	  377.15
     51.6700	  540.00	  563.87	-1793.12	  377.21
     51.7700	  522.00	  555.34	-1802.59	  377.28
     51.8700	  554.00	  549.56	-1764.81	  377.34
     51.9700	  548.00	  545.73	-1766.98	  377.41
     52.0700	  531.00	  543.22	-1781.47	  377.48
     52.1700	  561.00	  541.68	-1749.93	  377.55
     52.2700	  552.00	  541.00	-1758.25	  377.62
     52.3700	  567.00	  541.49	-1743.74	  377.69
     52.4700	  540.00	  543.07	-1772.32	  377.76
     52.5700	  573.00	  546.86	-1743.11	  377.84
     52.6700	  591.00	  554.80	-1733.05	  377.91
     52.7700	  595.00	  570.62	-1744.87	  377.99
     52.8700	  660.00	  600.28	-1709.53	  378.07
     52.9700	  730.00	  651.44	-1690.69	  378.15
     53.0700	  774.00	  730.96	-1726.21	  378.23
     53.1700	  910.00	  840.45	-1699.70	  378.32
     53.2700	  971.00	  971.05	-1769.30	  378.40
     53.3700	 1151.00	 1100.10	-1718.35	  378.48
     53.4700	 1156.00	 1192.71	-1805.96	  378.57
     53.5700	 1170.00	 1214.34	-1813.59	  378.66
     53.6700	 1099.00	 1154.98	-1825.23	  378.75
     53.7700	  922.00	 1039.29	-1886.54	  378.84
     53.8700	  872.00	  905.37	-1802.62	  378.93
     53.9700	  744.00	  783.19	-1808.44	  379.02
     54.0700	  659.00	  688.38	-1798.63	  379.12
     54.1700	  614.00	  623.97	-1779.22	  379.21
     54.2700	  590.00	  585.01	-1764.26	  379.31
     54.3700	  564.00	  563.64	-1768.89	  379.40
     54.4700	  556.00	  552.75	-1766.00	  379.50
     54.5700	  546.00	  547.55	-1770.80	  379.60
     54.6700	  552.00	  545.25	-1762.50	  379.70
     54.7700	  555.00	  544.51	-1758.76	  379.80
     54.8700	  559.00	  544.75	-1755.00	  379.91
     54.9700	  558.00	  545.74	-1756.99	  380.01
     55.0700	  551.00	  547.44	-1765.69	  380.12
     55.1700	  549.00	  549.84	-1770.09	  380.22
     55.2700	  583.00	  553.03	-1739.28	  380.33
     55.3700	  552.00	  557.13	-1774.38	  380.44
     55.4700	  598.00	  562.31	-1733.56	  380.55
     55.5700	  599.00	  568.99	-1739.24	  380.66
     55.6700	  554.00	  577.92	-1793.17	  380.77
     55.7700	  561.00	  590.72	-1798.97	  380.88
     55.8700	  585.00	  610.62	-1794.87	  381.00
     55.9700	  632.00	  643.74	-1780.99	  381.11
     56.0700	  657.00	  700.43	-1812.68	  381.23
     56.1700	  671.00	  795.79	-1894.04	  381.34
     56.2700	  903.00	  948.14	-1814.39	  381.46
     56.3700	 1082.00	 1173.64	-1860.89	  381.58
     56.4700	 1406.00	 1477.62	-1840.87	  381.70
     56.5700	 1704.00	 1844.46	-1909.71	  381.82
     56.6700	 2196.00	 2229.36	-1802.61	  381.94
     56.7700	 2433.00	 2556.37	-1892.62	  382.06
     56.8700	 2642.00	 2731.87	-1859.12	  382.18
     56.9700	 2592.00	 2690.99	-1868.24	  382.31
     57.0700	 2397.00	 2449.54	-1821.79	  382.43
     57.1700	 2039.00	 2091.28	-1821.53	  382.56
     57.2700	 1689.00	 1707.85	-1788.10	  382.68
     57.3700	 1281.00	 1364.22	-1852.47	  382.81
     57.4700	 1072.00	 1093.33	-1790.58	  382.94
     57.5700	  879.00	  901.88	-1792.13	  383.07
     57.6700	  833.00	  779.66	-1715.91	  383.20
     57.7700	  713.00	  709.49	-1765.74	  383.33
     57.8700	  717.00	  675.22	-1727.47	  383.46
     57.9700	  694.00	  665.48	-1740.73	  383.59
     58.0700	  663.00	  674.25	-1780.50	  383.73
     58.1700	  670.00	  699.56	-1798.81	  383.86
     58.2700	  778.00	  741.50	-1732.75	  383.99
     58.3700	  881.00	  800.35	-1688.60	  384.13
     58.4700	  993.00	  874.82	-1651.07	  384.27
     58.5700	 1143.00	  960.45	-1586.70	  384.40
     58.6700	 1253.00	 1049.00	-1565.25	  384.54
     58.7700	 1408.00	 1130.68	-1491.93	  384.68
     58.8700	 1536.00	 1198.55	-1431.80	  384.82
     58.9700	 1578.00	 1248.44	-1439.69	  384.96
     59.0700	 1636.00	 1274.92	-1408.17	  385.10
     59.1700	 1521.00	 1273.29	-1521.54	  385.24
     59.2700	 1494.00	 1247.51	-1522.76	  385.38
     59.3700	 1387.00	 1210.62	-1592.87	  385.52
     59.4700	 1308.00	 1176.09	-1637.34	  385.66
     59.5700	 1161.00	 1152.80	-1761.05	  385.81
     59.6700	 1143.00	 1147.58	-1773.83	  385.95
     59.7700	 1096.00	 1168.22	-1841.47	  386.10
     59.8700	 1234.00	 1219.92	-1755.17	  386.24
     59.9700	 1327.00	 1299.14	-1741.39	  386.39
     60.0700	 1493.00	 1390.16	-1666.41	  386.53
     60.1700	 1568.00	 1465.50	-1666.75	  386.68
     60.2700	 1597.00	 1492.84	-1665.09	  386.83
     60.3700	 1502.00	 1451.73	-1718.98	  386.97
     60.4700	 1464.00	 1348.33	-1653.58	  387.12
     60.5700	 1250.00	 1208.93	-1728.18	  387.27
     60.6700	 1095.00	 1061.95	-1736.20	  387.42
     60.7700	  977.00	  928.32	-1720.57	  387.57
     60.8700	  821.00	  819.86	-1768.11	  387.72
     60.9700	  658.00	  740.67	-1851.92	  387.87
     61.0700	  644.00	  689.71	-1814.96	  388.02
     61.1700	  628.00	  663.77	-1805.02	  388.17
     61.2700	  619.00	  660.21	-1810.46	  388.33
     61.3700	  635.00	  678.60	-1812.85	  388.48
     61.4700	  662.00	  720.97	-1828.22	  388.63
     61.5700	  724.00	  790.53	-1835.78	  388.78
     61.6700	  858.00	  889.31	-1800.56	  388.94
     61.7700	  952.00	 1015.10	-1832.35	  389.09
     61.8700	 1093.00	 1158.86	-1835.11	  389.25
     61.9700	 1197.00	 1302.84	-1875.09	  389.40
     62.0700	 1345.00	 1420.62	-1844.87	  389.55
     62.1700	 1422.00	 1482.12	-1829.37	  389.71
     62.2700	 1378.00	 1467.34	-1858.59	  389.87
     62.3700	 1279.00	 1380.67	-1870.92	  390.02
     62.4700	 1160.00	 1247.58	-1856.83	  390.18
     62.5700	 1082.00	 1098.05	-1785.30	  390.33
     62.6700	  884.00	  955.60	-1840.85	  390.49
     62.7700	  707.00	  834.57	-1896.82	  390.65
     62.8700	  668.00	  740.93	-1842.18	  390.80
     62.9700	  603.00	  674.15	-1840.40	  390.96
     63.0700	  604.00	  629.85	-1795.10	  391.12
     63.1700	  645.00	  602.24	-1726.49	  391.28
     63.2700	  575.00	  585.98	-1780.23	  391.43
     63.3700	  595.00	  577.10	-1751.35	  391.59
     63.4700	  579.00	  573.22	-1763.47	  391.75
     63.5700	  616.00	  573.44	-1726.69	  391.91
     63.6700	  573.00	  578.13	-1774.38	  392.07
     63.7700	  611.00	  588.64	-1746.89	  392.23
     63.8700	  632.00	  607.04	-1744.29	  392.38
     63.9700	  671.00	  635.55	-1733.80	  392.54
     64.0700	  672.00	  675.77	-1773.02	  392.70
     64.1700	  768.00	  727.61	-1728.86	  392.86
     64.2700	  829.00	  788.42	-1728.67	  393.02
     64.3700	  881.00	  852.25	-1740.50	  393.18
     64.4700	  936.00	  909.84	-1743.09	  393.34
     64.5700	 1043.00	  950.20	-1676.45	  393.50
     64.6700	 1061.00	  963.84	-1672.09	  393.66
     64.7700	 1058.00	  949.66	-1660.91	  393.81
     64.8700	 1013.00	  912.11	-1668.36	  393.97
     64.9700	  920.00	  860.24	-1709.49	  394.13
     65.0700	  878.00	  803.84	-1695.09	  394.29
     65.1700	  823.00	  750.76	-1697.01	  394.45
     65.2700	  722.00	  705.42	-1752.67	  394.61
     65.3700	  676.00	  668.93	-1762.18	  394.77
     65.4700	  615.00	  640.34	-1794.59	  394.93
     65.5700	  653.00	  618.07	-1734.32	  395.09
     65.6700	  620.00	  600.84	-1750.09	  395.25
     65.7700	  578.00	  587.70	-1778.95	  395.40
     65.8700	  537.00	  578.01	-1810.26	  395.56
     65.9700	  549.00	  571.25	-1791.50	  395.72
     66.0700	  539.00	  567.00	-1797.25	  395.88
     66.1700	  540.00	  564.87	-1794.12	  396.04
     66.2700	  482.00	  564.49	-1851.74	  396.19
     66.3700	  542.00	  565.57	-1792.82	  396.35
     66.4700	  559.00	  567.93	-1778.18	  396.51
     66.5700	  544.00	  571.63	-1796.88	  396.67
     66.6700	  596.00	  577.00	-1750.25	  396.82
     66.7700	  549.00	  584.98	-1805.23	  396.98
     66.8700	  577.00	  597.02	-1789.27	  397.14
     66.9700	  566.00	  616.10	-1819.35	  397.29
     67.0700	  602.00	  646.82	-1814.07	  397.45
     67.1700	  672.00	  695.85	-1793.10	  397.61
     67.2700	  738.00	  771.73	-1802.98	  397.76
     67.3700	  848.00	  883.80	-1805.05	  397.92
     67.4700	 1071.00	 1039.99	-1738.24	  398.07
     67.5700	 1274.00	 1243.16	-1738.41	  398.23
     67.6700	 1502.00	 1488.61	-1755.86	  398.38
     67.7700	 1757.00	 1759.94	-1772.19	  398.53
     67.8700	 2116.00	 2028.34	-1681.59	  398.69
     67.9700	 2281.00	 2253.29	-1741.54	  398.84
     68.0700	 2387.00	 2389.03	-1771.28	  398.99
     68.1700	 2366.00	 2401.00	-1804.25	  399.15
     68.2700	 2237.00	 2285.80	-1818.05	  399.30
     68.3700	 2192.00	 2073.68	-1650.93	  399.45
     68.4700	 1836.00	 1810.10	-1743.35	  399.60
     68.5700	 1556.00	 1537.22	-1750.47	  399.75
     68.6700	 1279.00	 1286.04	-1776.29	  399.90
     68.7700	 1003.00	 1075.13	-1841.38	  400.05
     68.8700	  902.00	  911.16	-1778.41	  400.20
     68.9700	  794.00	  792.35	-1767.60	  400.35
     69.0700	  687.00	  711.26	-1793.51	  400.50
     69.1700	  668.00	  658.67	-1759.92	  400.65
     69.2700	  595.00	  625.78	-1800.03	  400.79
     69.3700	  590.00	  605.56	-1784.81	  400.94
     69.4700	  616.00	  593.04	-1746.29	  401.09
     69.5700	  622.00	  585.07	-1732.32	  401.23
     69.6700	  595.00	  579.77	-1754.02	  401.38
     69.7700	  598.00	  576.12	-1747.37	  401.52
     69.8700	  583.00	  573.60	-1759.85	  401.67
     69.9700	  594.00	  571.93	-1747.18	  401.81
     70.0700	  582.00	  570.99	-1758.24	  401.96
     70.1700	  577.00	  570.71	-1762.96	  402.10
     70.2700	  578.00	  571.15	-1762.40	  402.24
     70.3700	  548.00	  572.33	-1793.58	  402.38
     70.4700	  541.00	  574.52	-1802.77	  402.52
     70.5700	  581.00	  578.14	-1766.39	  402.66
     70.6700	  568.00	  584.01	-1785.26	  402.80
     70.7700	  592.00	  593.57	-1770.82	  402.94
     70.8700	  577.00	  609.14	-1801.39	  403.08
     70.9700	  590.00	  634.18	-1813.43	  403.21
     71.0700	  634.00	  673.43	-1808.68	  403.35
     71.1700	  699.00	  732.62	-1802.87	  403.49
     71.2700	  816.00	  817.65	-1770.90	  403.62
     71.3700	  937.00	  933.99	-1766.24	  403.76
     71.4700	 1006.00	 1081.38	-1844.63	  403.89
     71.5700	 1217.00	 1256.92	-1809.17	  404.02
     71.6700	 1391.00	 1450.15	-1828.40	  404.16
     71.7700	 1544.00	 1643.10	-1868.35	  404.29
     71.8700	 1718.00	 1810.96	-1862.21	  404.42
     71.9700	 1919.00	 1925.16	-1775.41	  404.55
     72.0700	 2043.00	 1961.36	-1687.61	  404.68
     72.1700	 1857.00	 1910.93	-1823.18	  404.80
     72.2700	 1772.00	 1786.17	-1783.42	  404.93
     72.3700	 1652.00	 1612.68	-1729.93	  405.06
     72.4700	 1564.00	 1419.60	-1624.85	  405.18
     72.5700	 1329.00	 1229.99	-1670.24	  405.31
     72.6700	 1151.00	 1060.11	-1678.36	  405.43
     72.7700	 1112.00	  918.94	-1576.19	  405.56
     72.8700	 1000.00	  808.95	-1578.20	  405.68
     72.9700	  872.00	  727.92	-1625.17	  405.80
     73.0700	  857.00	  670.99	-1583.24	  405.92
     73.1700	  752.00	  632.44	-1649.69	  406.04
     73.2700	  702.00	  606.95	-1674.20	  406.16
     73.3700	  674.00	  590.24	-1685.49	  406.27
     73.4700	  666.00	  579.22	-1682.47	  406.39
     73.5700	  647.00	  571.82	-1694.07	  406.51
     73.6700	  610.00	  566.79	-1726.04	  406.62
     73.7700	  596.00	  563.40	-1736.65	  406.74
     73.8700	  582.00	  561.23	-1748.48	  406.85
     73.9700	  616.00	  560.02	-1713.27	  406.96
     74.0700	  585.00	  559.61	-1743.86	  407.07
     74.1700	  683.00	  559.81	-1646.06	  407.18
     74.2700	  629.00	  560.43	-1700.68	  407.29
     74.3700	  602.00	  561.23	-1728.48	  407.40
     74.4700	  673.00	  561.91	-1658.16	  407.50
     74.5700	  636.00	  562.20	-1695.45	  407.61
     74.6700	  617.00	  561.84	-1714.09	  407.71
     74.7700	  665.00	  560.76	-1665.01	  407.82
     74.8700	  653.00	  559.10	-1675.35	  407.92
     74.9700	  650.00	  557.14	-1676.39	  408.02
     75.0700	  596.00	  555.17	-1728.42	  408.12
     75.1700	  599.00	  553.60	-1723.85	  408.22
     75.2700	  597.00	  552.69	-1724.94	  408.32
     75.3700	  568.00	  552.94	-1754.19	  408.42
     75.4700	  512.00	  554.70	-1811.95	  408.51
     75.5700	  567.00	  558.45	-1760.70	  408.61
     75.6700	  605.00	  564.59	-1728.84	  408.70
     75.7700	  554.00	  573.81	-1789.06	  408.79
     75.8700	  568.00	  586.32	-1787.57	  408.88
     75.9700	  601.00	  602.14	-1770.39	  408.97
     76.0700	  646.00	  620.81	-1744.06	  409.06
     76.1700	  647.00	  641.30	-1763.55	  409.15
     76.2700	  699.00	  661.94	-1732.19	  409.24
     76.3700	  663.00	  680.49	-1786.74	  409.32
     76.4700	  730.00	  694.34	-1733.59	  409.41
     76.5700	  695.00	  701.03	-1775.28	  409.49
     76.6700	  661.00	  699.20	-1807.45	  409.57
     76.7700	  664.00	  689.21	-1794.46	  409.65
     76.8700	  660.00	  672.95	-1782.20	  409.73
     76.9700	  667.00	  652.87	-1755.12	  409.81
     77.0700	  638.00	  631.81	-1763.06	  409.88
     77.1700	  607.00	  611.61	-1773.86	  409.96
     77.2700	  580.00	  593.66	-1782.91	  410.03
     77.3700	  541.00	  578.72	-1806.97	  410.11
     77.4700	  521.00	  566.99	-1815.24	  410.18
     77.5700	  535.00	  558.27	-1792.52	  410.25
     77.6700	  515.00	  552.09	-1806.34	  410.32
     77.7700	  535.00	  547.90	-1782.15	  410.38
     77.8700	  532.00	  545.15	-1782.40	  410.45
     77.9700	  536.00	  543.40	-1776.65	  410.52
     78.0700	  518.00	  542.30	-1793.55	  410.58
     78.1700	  526.00	  541.61	-1784.86	  410.64
     78.2700	  537.00	  541.19	-1773.44	  410.70
     78.3700	  535.00	  540.94	-1775.19	  410.76
     78.4700	  524.00	  540.81	-1786.06	  410.82
     78.5700	  510.00	  540.77	-1800.02	  410.88
     78.6700	  582.00	  540.82	-1728.07	  410.93
     78.7700	  504.00	  540.98	-1806.23	  410.99
     78.8700	  531.00	  541.24	-1779.49	  411.04
     78.9700	  523.00	  541.66	-1787.91	  411.09
     79.0700	  534.00	  542.26	-1777.51	  411.14
     79.1700	  510.00	  543.10	-1802.35	  411.19
     79.2700	  524.00	  544.24	-1789.49	  411.23
     79.3700	  521.00	  545.57	-1793.82	  411.28
     79.4700	  515.00	  547.52	-1801.77	  411.32
     79.5700	  514.00	  549.97	-1805.22	  411.37
     79.6700	  520.00	  553.02	-1802.27	  411.41
     79.7700	  554.00	  556.79	-1772.04	  411.45
     79.8700	  488.00	  561.40	-1842.65	  411.49
     79.9700	  523.00	  567.03	-1813.28	  411.52
     80.0700	  561.00	  573.89	-1782.14	  411.56
     80.1700	  527.00	  582.27	-1824.52	  411.59
     80.2700	  579.00	  592.45	-1782.70	  411.62
     80.3700	  546.00	  604.70	-1827.95	  411.66
     80.4700	  563.00	  619.12	-1825.37	  411.69
     80.5700	  581.00	  635.54	-1823.79	  411.71
     80.6700	  619.00	  653.46	-1803.71	  411.74
     80.7700	  675.00	  672.00	-1766.25	  411.76
     80.8700	  640.00	  689.93	-1819.18	  411.79
     80.9700	  694.00	  705.83	-1781.08	  411.81
     81.0700	  719.00	  718.41	-1768.66	  411.83
     81.1700	  775.00	  726.67	-1720.92	  411.85
     81.2700	  711.00	  730.02	-1788.27	  411.87
     81.3700	  809.00	  728.24	-1688.49	  411.88
     81.4700	  768.00	  721.64	-1722.89	  411.90
     81.5700	  747.00	  710.89	-1733.14	  411.91
     81.6700	  775.00	  696.93	-1691.18	  411.92
     81.7700	  754.00	  680.73	-1695.98	  411.93
     81.8700	  730.00	  663.31	-1702.56	  411.94
     81.9700	  692.00	  645.65	-1722.90	  411.94
     82.0700	  646.00	  628.76	-1752.01	  411.95
     82.1700	  671.00	  613.27	-1711.52	  411.95
     82.2700	  643.00	  599.60	-1725.85	  411.95
     82.3700	  624.00	  587.92	-1733.17	  411.95
     82.4700	  620.00	  578.25	-1727.50	  411.95
     82.5700	  588.00	  570.51	-1751.76	  411.95
     82.6700	  552.00	  564.64	-1781.89	  411.94
     82.7700	  577.00	  560.48	-1752.73	  411.94
     82.8700	  566.00	  557.89	-1761.14	  411.93
     82.9700	  571.00	  556.77	-1755.02	  411.92
     83.0700	  577.00	  557.01	-1749.26	  411.91
     83.1700	  580.00	  558.53	-1747.78	  411.90
     83.2700	  558.00	  561.22	-1772.47	  411.88
     83.3700	  558.00	  564.92	-1776.17	  411.87
     83.4700	  527.00	  569.41	-1811.66	  411.85
     83.5700	  569.00	  574.37	-1774.62	  411.83
     83.6700	  562.00	  579.39	-1786.64	  411.81
     83.7700	  625.00	  583.99	-1728.24	  411.78
     83.8700	  601.00	  587.62	-1755.87	  411.76
     83.9700	  582.00	  589.74	-1776.99	  411.73
     84.0700	  537.00	  589.99	-1822.24	  411.71
     84.1700	  563.00	  588.27	-1794.52	  411.68
     84.2700	  533.00	  584.84	-1821.09	  411.65
     84.3700	  552.00	  580.15	-1797.40	  411.61
     84.4700	  589.00	  574.72	-1754.97	  411.58
     84.5700	  537.00	  569.05	-1801.30	  411.54
     84.6700	  585.00	  563.54	-1747.79	  411.51
     84.7700	  500.00	  558.49	-1827.74	  411.47
     84.8700	  487.00	  554.09	-1836.34	  411.43
     84.9700	  534.00	  550.44	-1785.69	  411.38
     85.0700	  492.00	  547.56	-1824.81	  411.34
     85.1700	  526.00	  545.38	-1788.63	  411.29
     85.2700	  518.00	  543.85	-1795.10	  411.25
     85.3700	  555.00	  542.84	-1757.09	  411.20
     85.4700	  529.00	  542.29	-1782.54	  411.15
     85.5700	  541.00	  542.10	-1770.35	  411.09
     85.6700	  485.00	  542.23	-1826.48	  411.04
     85.7700	  513.00	  542.64	-1798.89	  410.98
     85.8700	  530.00	  543.35	-1782.60	  410.93
     85.9700	  527.00	  544.38	-1786.63	  410.87
     86.0700	  554.00	  545.78	-1761.03	  410.81
     86.1700	  521.00	  547.66	-1795.91	  410.74
     86.2700	  545.00	  550.11	-1774.36	  410.68
     86.3700	  572.00	  553.27	-1750.52	  410.61
     86.4700	  530.00	  557.26	-1796.51	  410.54
     86.5700	  573.00	  562.21	-1758.46	  410.48
     86.6700	  544.00	  568.17	-1793.42	  410.40
     86.7700	  581.00	  574.78	-1763.03	  410.33
     86.8700	  577.00	  582.49	-1774.74	  410.26
     86.9700	  582.00	  590.67	-1777.92	  410.18
     87.0700	  588.00	  598.84	-1780.09	  410.10
     87.1700	  634.00	  606.40	-1741.65	  410.02
     87.2700	  649.00	  612.66	-1732.91	  409.94
     87.3700	  566.00	  616.92	-1820.17	  409.86
     87.4700	  657.00	  618.62	-1730.87	  409.77
     87.5700	  654.00	  617.55	-1732.80	  409.69
     87.6700	  659.00	  613.86	-1724.11	  409.60
     87.7700	  680.00	  608.12	-1697.37	  409.51
     87.8700	  637.00	  601.07	-1733.32	  409.42
     87.9700	  605.00	  593.51	-1757.76	  409.32
     88.0700	  545.00	  586.19	-1810.44	  409.23
     88.1700	  564.00	  579.75	-1785.00	  409.13
     88.2700	  596.00	  574.69	-1747.94	  409.04
     88.3700	  568.00	  571.33	-1772.58	  408.94
     88.4700	  557.00	  569.87	-1782.11	  408.83
     88.5700	  579.00	  570.29	-1760.54	  408.73
     88.6700	  553.00	  572.48	-1788.73	  408.63
     88.7700	  600.00	  576.17	-1745.42	  408.52
     88.8700	  604.00	  580.98	-1746.23	  408.41
     88.9700	  612.00	  586.43	-1743.68	  408.30
     89.0700	  569.00	  591.97	-1792.22	  408.19
     89.1700	  654.00	  597.01	-1712.26	  408.08
     89.2700	  579.00	  600.94	-1791.19	  407.96
     89.3700	  595.00	  603.21	-1777.46	  407.84
     89.4700	  641.00	  603.46	-1731.71	  407.73
     89.5700	  616.00	  601.63	-1754.88	  407.61
     89.6700	  587.00	  597.91	-1780.16	  407.48
     89.7700	  588.00	  592.74	-1773.99	  407.36
     89.8700	  520.00	  586.63	-1835.88	  407.24
     89.9700	  578.00	  580.08	-1771.33	  407.11
     90.0700	  519.00	  573.54	-1823.79	  406.98
     90.1700	  544.00	  567.36	-1792.61	  406.85
     90.2700	  486.00	  561.78	-1845.03	  406.72
     90.3700	  498.00	  556.97	-1828.22	  406.59
     90.4700	  532.00	  552.99	-1790.24	  406.45
     90.5700	  455.00	  549.83	-1864.08	  406.31
     90.6700	  531.00	  547.44	-1785.69	  406.18
     90.7700	  548.00	  545.73	-1766.98	  406.04
     90.8700	  494.00	  544.60	-1819.85	  405.90
     90.9700	  591.00	  543.97	-1722.22	  405.75
     91.0700	  508.00	  543.76	-1805.01	  405.61
     91.1700	  545.00	  543.93	-1768.18	  405.46
     91.2700	  505.00	  544.47	-1808.72	  405.31
     91.3700	  480.00	  545.44	-1834.69	  405.17
     91.4700	  517.00	  546.88	-1799.13	  405.01
     91.5700	  548.00	  548.94	-1770.19	  404.86
     91.6700	  574.00	  551.74	-1746.99	  404.71
     91.7700	  537.00	  555.48	-1787.73	  404.55
     91.8700	  560.00	  560.13	-1769.38	  404.39
     91.9700	  532.00	  566.33	-1803.58	  404.24
     92.0700	  557.00	  574.03	-1786.28	  404.08
     92.1700	  554.00	  583.36	-1798.61	  403.91
     92.2700	  583.00	  594.36	-1780.61	  403.75
     92.3700	  594.00	  606.98	-1782.23	  403.59
     92.4700	  636.00	  621.06	-1754.31	  403.42
     92.5700	  676.00	  636.29	-1729.54	  403.25
     92.6700	  659.00	  652.25	-1762.50	  403.08
     92.7700	  714.00	  668.39	-1723.64	  402.91
     92.8700	  716.00	  684.07	-1737.32	  402.74
     92.9700	  767.00	  698.64	-1700.89	  402.56
     93.0700	  747.00	  711.56	-1733.81	  402.39
     93.1700	  731.00	  722.55	-1760.80	  402.21
     93.2700	  791.00	  731.71	-1709.96	  402.03
     93.3700	  779.00	  739.48	-1729.73	  401.85
     93.4700	  809.00	  746.55	-1706.80	  401.67
     93.5700	  831.00	  753.60	-1691.85	  401.49
     93.6700	  871.00	  761.30	-1659.55	  401.30
     93.7700	  883.00	  770.18	-1656.43	  401.12
     93.8700	  838.00	  780.72	-1711.97	  400.93
     93.9700	  860.00	  793.27	-1702.52	  400.74
     94.0700	  869.00	  808.11	-1708.36	  400.55
     94.1700	  850.00	  825.23	-1744.48	  400.36
     94.2700	  878.00	  844.32	-1735.57	  400.17
     94.3700	  885.00	  864.62	-1748.87	  399.97
     94.4700	  879.00	  884.91	-1775.16	  399.78
     94.5700	  914.00	  903.59	-1758.84	  399.58
     94.6700	  915.00	  918.75	-1773.00	  399.38
     94.7700	  944.00	  928.45	-1753.70	  399.18
     94.8700	  918.00	  931.05	-1782.30	  398.98
     94.9700	  935.00	  925.62	-1759.87	  398.78
     95.0700	  893.00	  912.24	-1788.49	  398.57
     95.1700	  821.00	  891.96	-1840.21	  398.37
     95.2700	  843.00	  866.51	-1792.76	  398.16
     95.3700	  826.00	  837.94	-1781.19	  397.95
     95.4700	  761.00	  808.36	-1816.61	  397.74
     95.5700	  775.00	  779.77	-1774.02	  397.53
     95.6700	  754.00	  754.01	-1769.26	  397.32
     95.7700	  691.00	  732.74	-1810.99	  397.11
     95.8700	  695.00	  717.41	-1791.66	  396.89
     95.9700	  718.00	  709.32	-1760.57	  396.68
     96.0700	  705.00	  709.59	-1773.84	  396.46
     96.1700	  709.00	  719.15	-1779.40	  396.24
     96.2700	  730.00	  738.76	-1778.01	  396.02
     96.3700	  754.00	  768.90	-1784.15	  395.80
     96.4700	  816.00	  809.72	-1762.97	  395.58
     96.5700	  834.00	  860.94	-1796.19	  395.36
     96.6700	  892.00	  921.73	-1798.98	  395.13
     96.7700	  975.00	  990.65	-1784.90	  394.91
     96.8700	 1059.00	 1065.56	-1775.81	  394.68
     96.9700	 1088.00	 1143.56	-1824.81	  394.45
     97.0700	 1241.00	 1221.10	-1749.35	  394.23
     97.1700	 1218.00	 1293.98	-1845.23	  394.00
     97.2700	 1408.00	 1357.66	-1718.91	  393.77
     97.3700	 1421.00	 1407.57	-1755.82	  393.53
     97.4700	 1396.00	 1439.66	-1812.91	  393.30
     97.5700	 1436.00	 1451.27	-1784.52	  393.07
     97.6700	 1425.00	 1441.64	-1785.89	  392.83
     97.7700	 1432.00	 1412.12	-1749.37	  392.60
     97.8700	 1396.00	 1365.75	-1739.00	  392.36
     97.9700	 1312.00	 1306.57	-1763.82	  392.12
     98.0700	 1165.00	 1239.10	-1843.35	  391.88
     98.1700	 1154.00	 1167.70	-1782.95	  391.64
     98.2700	 1074.00	 1096.41	-1791.66	  391.40
     98.3700	 1004.00	 1028.75	-1794.00	  391.16
     98.4700	  919.00	  967.69	-1817.94	  390.92
     98.5700	  914.00	  915.59	-1770.84	  390.67
     98.6700	  888.00	  874.28	-1755.53	  390.43
     98.7700	  782.00	  845.10	-1832.35	  390.18
     98.8700	  818.00	  828.99	-1780.24	  389.93
     98.9700	  780.00	  826.62	-1815.87	  389.69
     99.0700	  826.00	  838.36	-1781.61	  389.44
     99.1700	  848.00	  864.42	-1785.67	  389.19
     99.2700	  825.00	  904.81	-1849.06	  388.94
     99.3700	  943.00	  959.28	-1785.53	  388.69
     99.4700	 1001.00	 1027.32	-1795.57	  388.44
     99.5700	 1056.00	 1108.03	-1821.28	  388.19
     99.6700	 1218.00	 1200.07	-1751.32	  387.93
     99.7700	 1265.00	 1301.50	-1805.75	  387.68
     99.8700	 1398.00	 1409.75	-1781.00	  387.42
     99.9700	 1464.00	 1521.49	-1826.74	  387.17
    100.0700	 1640.00	 1632.76	-1762.01	  386.91
    100.1700	 1812.00	 1739.13	-1696.38	  386.66
    100.2700	 1839.00	 1836.07	-1766.32	  386.40
    100.3700	 1977.00	 1919.50	-1711.75	  386.14
    100.4700	 2028.00	 1986.14	-1727.39	  385.88
    100.5700	 2051.00	 2033.76	-1752.01	  385.62
    100.6700	 2030.00	 2060.89	-1800.14	  385.36
    100.7700	 2210.00	 2066.68	-1625.93	  385.10
    100.8700	 2146.00	 2050.84	-1674.09	  384.84
    100.9700	 2062.00	 2013.81	-1721.06	  384.58
    101.0700	 2036.00	 1957.22	-1690.47	  384.32
    101.1700	 1942.00	 1884.03	-1711.28	  384.06
    101.2700	 1792.00	 1798.47	-1775.72	  383.80
    101.3700	 1727.00	 1705.51	-1747.76	  383.53
    101.4700	 1629.00	 1610.27	-1750.52	  383.27
    101.5700	 1510.00	 1517.41	-1776.66	  383.00
    101.6700	 1442.00	 1430.81	-1758.06	  382.74
    101.7700	 1334.00	 1353.34	-1788.59	  382.47
    101.8700	 1322.00	 1286.78	-1734.03	  382.21
    101.9700	 1213.00	 1231.83	-1788.08	  381.94
    102.0700	 1188.00	 1188.16	-1769.41	  381.68
    102.1700	 1172.00	 1154.52	-1751.77	  381.41
    102.2700	 1137.00	 1128.91	-1761.16	  381.14
    102.3700	 1069.00	 1108.79	-1809.04	  380.88
    102.4700	 1098.00	 1091.37	-1762.62	  380.61
    102.5700	 1111.00	 1073.95	-1732.20	  380.34
    102.6700	 1038.00	 1054.24	-1785.49	  380.08
    102.7700	 1078.00	 1030.72	-1721.97	  379.81
    102.8700	  997.00	 1002.71	-1774.96	  379.54
    102.9700	  986.00	  970.35	-1753.60	  379.27
    103.0700	  921.00	  934.37	-1782.62	  379.00
    103.1700	  872.00	  895.88	-1793.13	  378.74
    103.2700	  857.00	  856.12	-1768.37	  378.47
    103.3700	  844.00	  816.35	-1741.60	  378.20
    103.4700	  800.00	  777.73	-1746.98	  377.93
    103.5700	  772.00	  741.23	-1738.48	  377.66
    103.6700	  662.00	  707.62	-1814.87	  377.39
    103.7700	  721.00	  677.45	-1725.70	  377.13
    103.8700	  681.00	  651.04	-1739.29	  376.86
    103.9700	  604.00	  628.47	-1793.72	  376.59
    104.0700	  611.00	  609.68	-1767.93	  376.32
    104.1700	  566.00	  594.43	-1797.68	  376.05
    104.2700	  561.00	  582.41	-1790.66	  375.79
    104.3700	  601.00	  573.25	-1741.50	  375.52
    104.4700	  590.00	  566.56	-1745.81	  375.25
    104.5700	  566.00	  561.94	-1765.19	  374.98
    104.6700	  566.00	  559.03	-1762.28	  374.72
    104.7700	  547.00	  557.50	-1779.75	  374.45
    104.8700	  539.00	  557.07	-1787.32	  374.18
    104.9700	  558.00	  557.49	-1768.74	  373.92
    105.0700	  532.00	  558.60	-1795.85	  373.65
    105.1700	  558.00	  560.22	-1771.47	  373.39
    105.2700	  517.00	  562.26	-1814.51	  373.12
    105.3700	  535.00	  564.61	-1798.86	  372.86
    105.4700	  544.00	  567.29	-1792.54	  372.59
    105.5700	  565.00	  570.29	-1774.54	  372.33
    105.6700	  551.00	  573.67	-1791.92	  372.07
    105.7700	  583.00	  577.53	-1763.78	  371.80
    105.8700	  530.00	  582.00	-1821.25	  371.54
    105.9700	  597.00	  587.17	-1759.43	  371.28
    106.0700	  544.00	  593.17	-1818.42	  371.02
    106.1700	  567.00	  600.04	-1802.29	  370.76
    106.2700	  608.00	  607.79	-1769.04	  370.50
    106.3700	  554.00	  616.34	-1831.59	  370.24
    106.4700	  641.00	  625.57	-1753.82	  369.98
    106.5700	  576.00	  635.25	-1828.50	  369.73
    106.6700	  618.00	  645.10	-1796.35	  369.47
    106.7700	  646.00	  654.78	-1778.03	  369.21
    106.8700	  648.00	  663.92	-1785.17	  368.96
    106.9700	  626.00	  672.10	-1815.35	  368.71
    107.0700	  665.00	  678.94	-1783.19	  368.45
    107.1700	  691.00	  684.14	-1762.39	  368.20
    107.2700	  670.00	  687.50	-1786.75	  367.95
    107.3700	  656.00	  689.02	-1802.27	  367.70
    107.4700	  698.00	  688.86	-1760.11	  367.45
    107.5700	  655.00	  687.33	-1801.58	  367.20
    107.6700	  676.00	  684.87	-1778.12	  366.95
    107.7700	  666.00	  681.93	-1785.18	  366.71
    107.8700	  680.00	  678.94	-1768.19	  366.46
    107.9700	  666.00	  676.28	-1779.53	  366.22
    108.0700	  724.00	  674.23	-1719.48	  365.98
    108.1700	  652.00	  672.97	-1790.22	  365.73
    108.2700	  738.00	  672.53	-1703.78	  365.49
    108.3700	  673.00	  672.86	-1769.11	  365.25
    108.4700	  692.00	  673.76	-1751.01	  365.02
    108.5700	  630.00	  674.96	-1814.21	  364.78
    108.6700	  663.00	  676.09	-1782.34	  364.55
    108.7700	  735.00	  676.76	-1711.01	  364.31
    108.8700	  652.00	  676.55	-1793.80	  364.08
    108.9700	  676.00	  675.12	-1768.37	  363.85
    109.0700	  673.00	  672.21	-1768.46	  363.62
    109.1700	  661.00	  667.72	-1775.97	  363.39
    109.2700	  694.00	  661.66	-1736.91	  363.17
    109.3700	  615.00	  654.20	-1808.45	  362.94
    109.4700	  640.00	  645.59	-1774.84	  362.72
    109.5700	  676.00	  636.14	-1729.39	  362.50
    109.6700	  606.00	  626.19	-1789.44	  362.28
    109.7700	  610.00	  616.07	-1775.32	  362.06
    109.8700	  581.00	  606.07	-1794.32	  361.84
    109.9700	  597.00	  596.48	-1768.73	  361.63
    110.0700	  606.00	  587.51	-1750.76	  361.42
    110.1700	  603.00	  579.34	-1745.59	  361.21
    110.2700	  572.00	  572.09	-1769.34	  361.00
    110.3700	  564.00	  565.82	-1771.07	  360.79
    110.4700	  534.00	  560.57	-1795.82	  360.59
    110.5700	  567.00	  556.32	-1758.57	  360.38
    110.6700	  573.00	  553.00	-1749.25	  360.18
    110.7700	  528.00	  550.57	-1791.82	  359.98
    110.8700	  502.00	  548.93	-1816.18	  359.79
    110.9700	  552.00	  547.99	-1765.24	  359.59
    111.0700	  577.00	  547.66	-1739.91	  359.40
    111.1700	  506.00	  547.85	-1811.10	  359.21
    111.2700	  542.00	  548.49	-1775.74	  359.02
    111.3700	  552.00	  549.52	-1766.77	  358.84
    111.4700	  547.00	  550.87	-1773.12	  358.66
    111.5700	  548.00	  552.50	-1773.75	  358.47
    111.6700	  535.00	  554.38	-1788.63	  358.30
    111.7700	  546.00	  556.49	-1779.74	  358.12
    111.8700	  533.00	  558.80	-1795.05	  357.95
    111.9700	  587.00	  561.33	-1743.58	  357.78
    112.0700	  548.00	  564.06	-1785.31	  357.61
    112.1700	  574.00	  567.02	-1762.27	  357.44
    112.2700	  552.00	  570.22	-1787.47	  357.28
    112.3700	  571.00	  573.70	-1771.95	  357.12
    112.4700	  615.00	  577.49	-1731.74	  356.96
    112.5700	  635.00	  581.65	-1715.90	  356.81
    112.6700	  624.00	  586.25	-1731.50	  356.65
    112.7700	  653.00	  591.37	-1707.62	  356.50
    112.8700	  654.00	  597.14	-1712.39	  356.36
    112.9700	  638.00	  603.69	-1734.94	  356.22
    113.0700	  675.00	  611.22	-1705.47	  356.07
    113.1700	  684.00	  619.99	-1705.24	  355.94
    113.2700	  741.00	  630.32	-1658.57	  355.80
    113.3700	  791.00	  642.62	-1620.87	  355.67
    113.4700	  814.00	  657.41	-1612.66	  355.54
    113.5700	  870.00	  675.34	-1574.59	  355.42
    113.6700	  902.00	  697.20	-1564.45	  355.30
    113.7700	  918.00	  723.97	-1575.22	  355.18
    113.8700	  955.00	  756.81	-1571.06	  355.06
    113.9700	  944.00	  797.10	-1622.35	  354.95
    114.0700	 1027.00	  846.41	-1588.66	  354.84
    114.1700	 1068.00	  906.55	-1607.80	  354.74
    114.2700	 1165.00	  979.51	-1583.76	  354.63
    114.3700	 1246.00	 1067.46	-1590.71	  354.54
    114.4700	 1431.00	 1172.67	-1510.92	  354.44
    114.5700	 1481.00	 1297.43	-1585.68	  354.35
    114.6700	 1669.00	 1444.02	-1544.27	  354.26
    114.7700	 1744.00	 1614.57	-1639.82	  354.18
    114.8700	 1920.00	 1810.86	-1660.11	  354.10
    114.9700	 2177.00	 2034.25	-1626.50	  354.02
    115.0700	 2374.00	 2285.44	-1680.69	  353.95
    115.1700	 2662.00	 2564.47	-1671.72	  353.88
    115.2700	 2801.00	 2870.48	-1838.73	  353.82
    115.3700	 3068.00	 3201.51	-1902.76	  353.76
    115.4700	 3314.00	 3554.52	-2009.77	  353.70
    115.5700	 3716.00	 3925.20	-1978.45	  353.65
    115.6700	 4172.00	 4308.16	-1905.41	  353.60
    115.7700	 4487.00	 4696.80	-1979.05	  353.55
    115.8700	 4662.00	 5083.22	-2190.47	  353.51
    115.9700	 5290.00	 5458.52	-1937.77	  353.48
    116.0700	 5469.00	 5812.80	-2113.05	  353.44
    116.1700	 5879.00	 6135.65	-2025.90	  353.42
    116.2700	 6230.00	 6416.34	-1955.59	  353.39
    116.3700	 6699.00	 6644.43	-1714.68	  353.37
    116.4700	 6739.00	 6810.63	-1840.88	  353.36
    116.5700	 7005.00	 6907.68	-1671.93	  353.35
    116.6700	 7003.00	 6931.24	-1697.49	  353.35
    116.7700	 7077.00	 6880.36	-1572.61	  353.34
    116.8700	 6828.00	 6757.71	-1698.96	  353.35
    116.9700	 6706.00	 6569.12	-1632.37	  353.36
    117.0700	 6227.00	 6323.00	-1865.25	  353.37
    117.1700	 6139.00	 6029.22	-1659.47	  353.39
    117.2700	 5639.00	 5698.33	-1828.58	  353.41
    117.3700	 5464.00	 5340.99	-1646.24	  353.44
    117.4700	 4915.00	 4967.31	-1821.56	  353.47
    117.5700	 4603.00	 4586.67	-1752.92	  353.51
    117.6700	 4451.00	 4207.25	-1525.50	  353.55
    117.7700	 4015.00	 3836.14	-1590.39	  353.60
    117.8700	 3600.00	 3479.30	-1648.55	  353.66
    117.9700	 3263.00	 3141.42	-1647.67	  353.71
    118.0700	 2870.00	 2826.06	-1725.31	  353.78
    118.1700	 2586.00	 2535.53	-1718.78	  353.85
    118.2700	 2236.00	 2271.11	-1804.36	  353.92
    118.3700	 1994.00	 2033.29	-1808.54	  354.00
    118.4700	 1720.00	 1821.74	-1870.99	  354.09
    118.5700	 1527.00	 1635.49	-1877.74	  354.18
    118.6700	 1418.00	 1473.09	-1824.34	  354.28
    118.7700	 1214.00	 1332.70	-1887.95	  354.38
    118.8700	 1085.00	 1212.36	-1896.61	  354.49
    118.9700	  995.00	 1109.94	-1884.19	  354.60
    119.0700	  925.00	 1023.34	-1867.59	  354.72
    119.1700	  916.00	  950.50	-1803.75	  354.84
    119.2700	  809.00	  889.48	-1849.73	  354.97
    119.3700	  766.00	  838.53	-1841.78	  355.11
    119.4700	  770.00	  796.09	-1795.34	  355.25
    119.5700	  663.00	  760.78	-1867.03	  355.40
    119.6700	  732.00	  731.41	-1768.66	  355.56
    119.7700	  636.00	  706.96	-1840.21	  355.72
    119.8700	  640.00	  686.58	-1815.83	  355.89
    119.9700	  628.00	  669.58	-1810.83	  356.06
    120.0700	  618.00	  655.39	-1806.64	  356.24
    120.1700	  627.00	  643.52	-1785.77	  356.43
    120.2700	  567.00	  633.60	-1835.85	  356.62
    120.3700	  568.00	  625.33	-1826.58	  356.82
    120.4700	  566.00	  618.48	-1821.73	  357.03
    120.5700	  584.00	  612.84	-1798.09	  357.24
    120.6700	  569.00	  608.26	-1808.51	  357.46
    120.7700	  593.00	  604.64	-1780.89	  357.69
    120.8700	  582.00	  601.88	-1789.13	  357.92
    120.9700	  580.00	  599.91	-1789.16	  358.16
    121.0700	  543.00	  598.67	-1824.92	  358.41
    121.1700	  558.00	  598.10	-1809.35	  358.66
    121.2700	  543.00	  598.17	-1824.42	  358.92
    121.3700	  632.00	  598.84	-1736.09	  359.19
    121.4700	  568.00	  600.05	-1801.30	  359.47
    121.5700	  605.00	  601.75	-1766.00	  359.75
    121.6700	  584.00	  603.90	-1789.15	  360.04
    121.7700	  587.00	  606.43	-1788.68	  360.34
    121.8700	  591.00	  609.25	-1787.50	  360.64
    121.9700	  568.00	  612.31	-1813.56	  360.95
    122.0700	  589.00	  615.52	-1795.77	  361.27
    122.1700	  633.00	  618.76	-1755.01	  361.60
    122.2700	  630.00	  621.95	-1761.20	  361.93
    122.3700	  626.00	  624.97	-1768.22	  362.28
    122.4700	  650.00	  627.72	-1746.97	  362.63
    122.5700	  629.00	  630.10	-1770.35	  362.99
    122.6700	  608.00	  632.01	-1793.26	  363.35
    122.7700	  643.00	  633.39	-1759.64	  363.73
    122.8700	  650.00	  634.16	-1753.41	  364.11
    122.9700	  616.00	  634.31	-1787.56	  364.50
    123.0700	  640.00	  633.83	-1763.08	  364.90
    123.1700	  632.00	  632.74	-1769.99	  365.30
    123.2700	  653.00	  631.09	-1747.34	  365.72
    123.3700	  664.00	  628.93	-1734.18	  366.14
    123.4700	  646.00	  626.34	-1749.59	  366.57
    123.5700	  623.00	  623.39	-1769.64	  367.01
    123.6700	  641.00	  620.16	-1748.41	  367.46
    123.7700	  678.00	  616.72	-1707.97	  367.92
    123.8700	  638.00	  613.16	-1744.41	  368.38
    123.9700	  658.00	  609.53	-1720.78	  368.86
    124.0700	  603.00	  605.89	-1772.14	  369.34
    124.1700	  654.00	  602.32	-1717.57	  369.83
    124.2700	  610.00	  598.84	-1758.09	  370.34
    124.3700	  601.00	  595.50	-1763.75	  370.85
    124.4700	  639.00	  592.34	-1722.59	  371.37
    124.5700	  618.00	  589.37	-1740.62	  371.89
    124.6700	  621.00	  586.62	-1734.87	  372.43
    124.7700	  534.00	  584.10	-1819.35	  372.98
    124.8700	  630.00	  581.82	-1721.07	  373.53
    124.9700	  595.00	  491.88	-1666.13	  374.10
    125.0700	  559.00	  492.46	-1769.25	  374.68
    125.1700	  557.00	  493.04	-1769.25	  375.26
    125.2700	  580.00	  493.64	-1769.25	  375.86
    125.3700	  576.00	  494.24	-1769.25	  376.46
    125.4700	  552.00	  494.86	-1769.25	  377.07
    125.5700	  559.00	  495.48	-1769.25	  377.70
    125.6700	  560.00	  496.11	-1769.25	  378.33
    125.7700	  604.00	  496.76	-1769.25	  378.97
    125.8700	  579.00	  497.41	-1769.25	  379.63
    125.9700	  576.00	  498.07	-1769.25	  380.29
    126.0700	  611.00	  498.75	-1769.25	  380.97
    126.1700	  620.00	  499.43	-1769.25	  381.65
    126.2700	  550.00	  500.13	-1769.25	  382.35
    126.3700	  565.00	  500.83	-1769.25	  383.05
    126.4700	  596.00	  501.55	-1769.25	  383.77
    126.5700	  544.00	  502.27	-1769.25	  384.49
    126.6700	  594.00	  503.01	-1769.25	  385.23
    126.7700	  607.00	  503.76	-1769.25	  385.98
    126.8700	  644.00	  504.52	-1769.25	  386.73
    126.9700	  610.00	  505.29	-1769.25	  387.50
    127.0700	  633.00	  506.07	-1769.25	  388.28
    127.1700	  665.00	  506.86	-1769.25	  389.07
    127.2700	  632.00	  507.66	-1769.25	  389.88
    127.3700	  648.00	  508.47	-1769.25	  390.69
    127.4700	  659.00	  509.30	-1769.25	  391.51
    127.5700	  675.00	  510.13	-1769.25	  392.35
    127.6700	  651.00	  510.98	-1769.25	  393.20
    127.7700	  686.00	  511.84	-1769.25	  394.06
    127.8700	  719.00	  512.71	-1769.25	  394.93
    127.9700	  739.00	  513.59	-1769.25	  395.81
    128.0700	  706.00	  514.48	-1769.25	  396.70
    128.1700	  768.00	  515.39	-1769.25	  397.61
    128.2700	  804.00	  516.31	-1769.25	  398.52
    128.3700	  816.00	  517.23	-1769.25	  399.45
    128.4700	  804.00	  518.18	-1769.25	  400.39
    128.5700	    0.00	  519.13	-1769.25	  401.35
    128.6700	    0.00	  520.09	-1769.25	  402.31
     12.3080	        	        	        	        	       0	(  0  0  2)	  0  1
     24.8923	        	        	        	        	       0	(  0  0  4)	  0  1
     28.3310	        	        	        	        	       0	(  1  0  0)	  0  1
     29.0283	        	        	        	        	       0	(  1  0  1)	  0  1
     31.0349	        	        	        	        	       0	(  1  0  2)	  0  1
     34.1438	        	        	        	        	       0	(  1  0  3)	  0  1
     37.7926	        	        	        	        	       0	(  0  0  6)	  0  1
     38.1214	        	        	        	        	       0	(  1  0  4)	  0  1
     42.7722	        	        	        	        	       0	(  1  0  5)	  0  1
     47.9568	        	        	        	        	       0	(  1  0  6)	  0  1
     50.2671	        	        	        	        	       0	(  1  1  0)	  0  1
     51.2152	        	        	        	        	       0	(  0  0  8)	  0  1
     51.9904	        	        	        	        	       0	(  1  1  2)	  0  1
     53.5879	        	        	        	        	       0	(  1  0  7)	  0  1
     56.9391	        	        	        	        	       0	(  1  1  4)	  0  1
     58.7637	        	        	        	        	       0	(  2  0  0)	  0  1
     59.1553	        	        	        	        	       0	(  2  0  1)	  0  1
     59.6189	        	        	        	        	       0	(  1  0  8)	  0  1
     60.3209	        	        	        	        	       0	(  2  0  2)	  0  1
     62.2345	        	        	        	        	       0	(  2  0  3)	  0  1
     64.6349	        	        	        	        	       0	(  1  1  6)	  0  1
     64.8590	        	        	        	        	       0	(  2  0  4)	  0  1
     65.4453	        	        	        	        	       0	(  0  0 10)	  0  1
     66.0358	        	        	        	        	       0	(  1  0  9)	  0  1
     68.1537	        	        	        	        	       0	(  2  0  5)	  0  1
     72.0818	        	        	        	        	       0	(  2  0  6)	  0  1
     72.8525	        	        	        	        	       0	(  1  0 10)	  0  1
     74.6739	        	        	        	        	       0	(  1  1  8)	  0  1
     76.6165	        	        	        	        	       0	(  2  0  7)	  0  1
     80.1109	        	        	        	        	       0	(  1  0 11)	  0  1
     80.9269	        	        	        	        	       0	(  0  0 12)	  0  1
     81.0038	        	        	        	        	       0	(  2  1  0)	  0  1
     81.3437	        	        	        	        	       0	(  2  1  1)	  0  1
     81.7474	        	        	        	        	       0	(  2  0  8)	  0  1
     82.3617	        	        	        	        	       0	(  2  1  2)	  0  1
     84.0533	        	        	        	        	       0	(  2  1  3)	  0  1
     86.4133	        	        	        	        	       0	(  2  1  4)	  0  1
     86.9467	        	        	        	        	       0	(  1  1 10)	  0  1
     87.4862	        	        	        	        	       0	(  2  0  9)	  0  1
     87.8859	        	        	        	        	       0	(  1  0 12)	  0  1
     89.4395	        	        	        	        	       0	(  2  1  5)	  0  1
     93.1374	        	        	        	        	       0	(  2  1  6)	  0  1
     93.8743	        	        	        	        	       0	(  2  0 10)	  0  1
     94.8918	        	        	        	        	       0	(  3  0  0)	  0  1
     95.2292	        	        	        	        	       0	(  3  0  1)	  0  1
     96.2425	        	        	        	        	       0	(  3  0  2)	  0  1
     96.3001	        	        	        	        	       0	(  1  0 13)	  0  1
     97.5265	        	        	        	        	       0	(  2  1  7)	  0  1
     97.9361	        	        	        	        	       0	(  3  0  3)	  0  1
     98.4680	        	        	        	        	       0	(  0  0 14)	  0  1
    100.3193	        	        	        	        	       0	(  3  0  4)	  0  1
    100.9971	        	        	        	        	       0	(  2  0 11)	  0  1
    101.8189	        	        	        	        	       0	(  1  1 12)	  0  1
    102.6496	        	        	        	        	       0	(  2  1  8)	  0  1
    103.4113	        	        	        	        	       0	(  3  0  5)	  0  1
    105.5539	        	        	        	        	       0	(  1  0 14)	  0  1
    107.2468	        	        	        	        	       0	(  3  0  6)	  0  1
    108.5871	        	        	        	        	       0	(  2  1  9)	  0  1
    109.0094	        	        	        	        	       0	(  2  0 12)	  0  1
    111.8876	        	        	        	        	       0	(  3  0  7)	  0  1
    115.4848	        	        	        	        	       0	(  2  1 10)	  0  1
    115.9993	        	        	        	        	       0	(  1  0 15)	  0  1
    116.6150	        	        	        	        	       0	(  2  2  0)	  0  1
    117.4416	        	        	        	        	       0	(  3  0  8)	  0  1
    118.1303	        	        	        	        	       0	(  2  2  2)	  0  1
    118.1953	        	        	        	        	       0	(  2  0 13)	  0  1
    119.9604	        	        	        	        	       0	(  0  0 16)	  0  1
    120.6662	        	        	        	        	       0	(  1  1 14)	  0  1
    122.8161	        	        	        	        	       0	(  2  2  4)	  0  1
    123.6131	        	        	        	        	       0	(  2  1 11)	  0  1
    124.1023	        	        	        	        	       0	(  3  0  9)	  0  1
    124.6794	        	        	        	        	       0	(  3  1  0)	  0  1
    125.0896	        	        	        	        	       0	(  3  1  1)	  0  1
    126.3331	        	        	        	        	       0	(  3  1  2)	  0  1
    128.3463	        	        	        	        	       0	(  1  0 16)	  0  1
    128.4514	        	        	        	        	       0	(  3  1  3)	  0  1
    129.1279	        	        	        	        	       0	(  2  0 14)	  0  1
    131.2565	        	        	        	        	       0	(  2  2  6)	  0  1
    131.5275	        	        	        	        	       0	(  3  1  4)	  0  1
    132.2443	        	        	        	        	       0	(  3  0 10)	  0  1
    133.5276	        	        	        	        	       0	(  2  1 12)	  0  1
    135.7146	        	        	        	        	       0	(  3  1  5)	  0  1
    141.3103	        	        	        	        	       0	(  3  1  6)	  0  1
    142.7258	        	        	        	        	       0	(  3  0 11)	  0  1
    143.2753	        	        	        	        	       0	(  2  0 15)	  0  1
    144.5274	        	        	        	        	       0	(  1  0 17)	  0  1
    145.4921	        	        	        	        	       0	(  2  2  8)	  0  1
    146.6894	        	        	        	        	       0	(  2  1 13)	  0  1
    148.9841	        	        	        	        	       0	(  3  1  7)	  0  1
    149.6201	        	        	        	        	       0	(  1  1 16)	  0  1
    154.0448	        	        	        	        	       0	(  0  0 18)	  0  1
    158.6169	        	        	        	        	       0	(  3  0 12)	  0  1
    158.8274	        	        	        	        	       0	(  4  0  0)	  0  1
    159.7838	        	        	        	        	       0	(  4  0  1)	  0  1
    160.9811	        	        	        	        	       0	(  3  1  8)	  0  1
    162.9610	        	        	        	        	       0	(  4  0  2)	  0  1
    169.8177	        	        	        	        	       0	(  2  0 16)	  0  1
    170.3000	        	        	        	        	       0	(  4  0  3)	  0  1
    174.2927	        	        	        	        	       0	(  2  1 14)	  0  1
