MSG Master    CELL:    5.91498   5.91498  23.24259   90.0000   90.0000  120.0000   SPGR: P 63/m m c             TEMP:    997.35
  1   1280     2.52000     0.00000    -0.12901     0.00000     0.00000    0
    99     0     2
       0.00000      10.00000
     125.00000     130.00000
 2Theta	Yobs	Ycal	Yobs-Ycal	Backg	Posr	(hkl)	K
      0.7700	    0.00	  531.60	-1805.50	  418.14
      0.8700	    0.00	  532.46	-1805.50	  419.00
      0.9700	   53.00	  533.31	-1805.50	  419.86
      1.0700	   48.00	  534.15	-1805.50	  420.69
      1.1700	   40.00	  534.97	-1805.50	  421.52
      1.2700	   34.00	  535.79	-1805.50	  422.33
      1.3700	   43.00	  536.59	-1805.50	  423.14
      1.4700	  100.00	  537.38	-1805.50	  423.93
      1.5700	  264.00	  538.16	-1805.50	  424.71
      1.6700	  464.00	  538.93	-1805.50	  425.48
      1.7700	  553.00	  539.69	-1805.50	  426.23
      1.8700	  654.00	  540.43	-1805.50	  426.98
      1.9700	  706.00	  541.17	-1805.50	  427.71
      2.0700	  763.00	  541.89	-1805.50	  428.44
      2.1700	  815.00	  542.60	-1805.50	  429.15
      2.2700	  734.00	  543.30	-1805.50	  429.85
      2.3700	  697.00	  543.99	-1805.50	  430.54
      2.4700	  706.00	  544.67	-1805.50	  431.22
      2.5700	  687.00	  545.34	-1805.50	  431.88
      2.6700	  618.00	  545.99	-1805.50	  432.54
      2.7700	  675.00	  546.64	-1805.50	  433.19
      2.8700	  600.00	  547.28	-1805.50	  433.82
      2.9700	  621.00	  547.90	-1805.50	  434.45
      3.0700	  625.00	  548.52	-1805.50	  435.06
      3.1700	  603.00	  549.12	-1805.50	  435.67
      3.2700	  588.00	  549.72	-1805.50	  436.26
      3.3700	  647.00	  550.30	-1805.50	  436.85
      3.4700	  763.00	  550.87	-1805.50	  437.42
      3.5700	  802.00	  551.44	-1805.50	  437.99
      3.6700	  865.00	  551.99	-1805.50	  438.54
      3.7700	  831.00	  552.54	-1805.50	  439.08
      3.8700	  952.00	  553.07	-1805.50	  439.62
      3.9700	 1049.00	  553.59	-1805.50	  440.14
      4.0700	  997.00	  554.11	-1805.50	  440.66
      4.1700	 1053.00	  554.61	-1805.50	  441.16
      4.2700	 1029.00	  555.11	-1805.50	  441.66
      4.3700	 1052.00	  555.60	-1805.50	  442.14
      4.4700	 1041.00	  556.07	-1805.50	  442.62
      4.5700	 1028.00	  556.54	-1805.50	  443.09
      4.6700	 1038.00	  557.00	-1805.50	  443.54
      4.7700	  981.00	  557.45	-1805.50	  443.99
      4.8700	  969.00	  557.88	-1805.50	  444.43
      4.9700	  938.00	  558.31	-1805.50	  444.86
      5.0700	  935.00	  558.74	-1805.50	  445.28
      5.1700	  903.00	  559.15	-1805.50	  445.70
      5.2700	  907.00	  559.55	-1805.50	  446.10
      5.3700	  881.00	  559.95	-1805.50	  446.49
      5.4700	  826.00	  560.33	-1805.50	  446.88
      5.5700	  870.00	  560.71	-1805.50	  447.26
      5.6700	  818.00	  561.08	-1805.50	  447.62
      5.7700	  842.00	  561.44	-1805.50	  447.98
      5.8700	  870.00	  561.79	-1805.50	  448.34
      5.9700	  803.00	  562.13	-1805.50	  448.68
      6.0700	  784.00	  562.47	-1805.50	  449.01
      6.1700	  791.00	  562.79	-1805.50	  449.34
      6.2700	  751.00	  563.11	-1805.50	  449.66
      6.3700	  766.00	  563.42	-1805.50	  449.97
      6.4700	  777.00	  563.72	-1805.50	  450.27
      6.5700	  717.00	  564.02	-1805.50	  450.56
      6.6700	  710.00	  564.30	-1805.50	  450.85
      6.7700	  740.00	  564.58	-1805.50	  451.13
      6.8700	  704.00	  564.85	-1805.50	  451.40
      6.9700	  724.00	  565.11	-1805.50	  451.66
      7.0700	  719.00	  565.37	-1805.50	  451.91
      7.1700	  652.00	  565.61	-1805.50	  452.16
      7.2700	  709.00	  565.85	-1805.50	  452.40
      7.3700	  670.00	  566.08	-1805.50	  452.63
      7.4700	  659.00	  566.31	-1805.50	  452.86
      7.5700	  690.00	  566.52	-1805.50	  453.07
      7.6700	  661.00	  566.73	-1805.50	  453.28
      7.7700	  663.00	  566.94	-1805.50	  453.48
      7.8700	  636.00	  567.13	-1805.50	  453.68
      7.9700	  663.00	  567.32	-1805.50	  453.87
      8.0700	  661.00	  567.50	-1805.50	  454.05
      8.1700	  642.00	  567.67	-1805.50	  454.22
      8.2700	  641.00	  567.84	-1805.50	  454.39
      8.3700	  645.00	  568.00	-1805.50	  454.55
      8.4700	  582.00	  568.15	-1805.50	  454.70
      8.5700	  592.00	  568.30	-1805.50	  454.85
      8.6700	  572.00	  568.44	-1805.50	  454.99
      8.7700	  604.00	  568.57	-1805.50	  455.12
      8.8700	  621.00	  568.70	-1805.50	  455.25
      8.9700	  614.00	  568.82	-1805.50	  455.36
      9.0700	  570.00	  568.93	-1805.50	  455.48
      9.1700	  630.00	  569.04	-1805.50	  455.58
      9.2700	  606.00	  569.14	-1805.50	  455.68
      9.3700	  561.00	  569.23	-1805.50	  455.78
      9.4700	  626.00	  569.32	-1805.50	  455.87
      9.5700	  616.00	  569.40	-1805.50	  455.95
      9.6700	  633.00	  569.47	-1805.50	  456.02
      9.7700	  582.00	  569.54	-1805.50	  456.09
      9.8700	  561.00	  569.61	-1805.50	  456.15
      9.9700	  616.00	  569.66	-1805.50	  456.21
     10.0700	  595.00	  570.46	-1780.96	  456.26
     10.1700	  618.00	  570.57	-1758.07	  456.31
     10.2700	  580.00	  570.69	-1796.19	  456.35
     10.3700	  592.00	  570.83	-1784.33	  456.38
     10.4700	  579.00	  571.00	-1797.50	  456.41
     10.5700	  593.00	  571.26	-1783.76	  456.43
     10.6700	  565.00	  571.68	-1812.18	  456.45
     10.7700	  589.00	  572.36	-1788.86	  456.46
     10.8700	  570.00	  573.39	-1808.89	  456.46
     10.9700	  604.00	  574.76	-1776.26	  456.46
     11.0700	  578.00	  576.43	-1803.93	  456.46
     11.1700	  596.00	  578.39	-1787.89	  456.45
     11.2700	  554.00	  580.67	-1832.17	  456.43
     11.3700	  597.00	  583.34	-1791.84	  456.41
     11.4700	  572.00	  586.49	-1819.99	  456.38
     11.5700	  593.00	  590.30	-1802.80	  456.35
     11.6700	  633.00	  595.05	-1767.55	  456.32
     11.7700	  668.00	  601.25	-1738.75	  456.27
     11.8700	  635.00	  609.72	-1780.22	  456.23
     11.9700	  647.00	  621.32	-1779.82	  456.18
     12.0700	  674.00	  635.22	-1766.72	  456.12
     12.1700	  687.00	  646.35	-1764.85	  456.06
     12.2700	  673.00	  645.59	-1778.09	  455.99
     12.3700	  667.00	  628.39	-1766.89	  455.92
     12.4700	  600.00	  605.23	-1810.73	  455.85
     12.5700	  576.00	  587.79	-1817.29	  455.77
     12.6700	  600.00	  578.38	-1783.88	  455.68
     12.7700	  573.00	  574.27	-1806.77	  455.59
     12.8700	  585.00	  572.51	-1793.01	  455.50
     12.9700	  526.00	  571.59	-1851.09	  455.40
     13.0700	  588.00	  570.97	-1788.47	  455.30
     13.1700	  550.00	  570.49	-1825.99	  455.19
     13.2700	  559.00	  570.11	-1816.61	  455.08
     13.3700	  560.00	  569.79	-1815.29	  454.97
     13.4700	  542.00	  569.51	-1833.01	  454.85
     13.5700	  544.00	  569.25	-1830.75	  454.72
     13.6700	  603.00	  569.02	-1771.52	  454.59
     13.7700	  515.00	  568.80	-1859.30	  454.46
     13.8700	  596.00	  568.60	-1778.10	  454.33
     13.9700	  556.00	  568.40	-1817.90	  454.19
     14.0700	  588.00	  568.20	-1785.70	  454.04
     14.1700	  520.00	  568.01	-1853.51	  453.90
     14.2700	  542.00	  567.82	-1831.32	  453.75
     14.3700	  547.00	  567.64	-1826.14	  453.59
     14.4700	  556.00	  567.45	-1816.95	  453.43
     14.5700	  538.00	  567.26	-1834.76	  453.27
     14.6700	  554.00	  567.07	-1818.57	  453.10
     14.7700	  566.00	  566.88	-1806.38	  452.93
     14.8700	  592.00	  566.69	-1780.19	  452.76
     14.9700	  487.00	  566.50	-1885.00	  452.58
     15.0700	  518.00	  566.31	-1853.81	  452.40
     15.1700	  555.00	  566.11	-1816.61	  452.22
     15.2700	  568.00	  565.91	-1803.41	  452.03
     15.3700	  540.00	  565.71	-1831.21	  451.84
     15.4700	  561.00	  565.51	-1810.01	  451.65
     15.5700	  529.00	  565.30	-1841.80	  451.45
     15.6700	  533.00	  565.10	-1837.60	  451.25
     15.7700	  539.00	  564.89	-1831.39	  451.05
     15.8700	  554.00	  564.67	-1816.17	  450.84
     15.9700	  568.00	  564.46	-1801.96	  450.63
     16.0700	  576.00	  564.24	-1793.74	  450.42
     16.1700	  580.00	  564.02	-1789.52	  450.21
     16.2700	  527.00	  563.80	-1842.30	  449.99
     16.3700	  598.00	  563.60	-1771.10	  449.77
     16.4700	  525.00	  563.37	-1843.87	  449.54
     16.5700	  552.00	  563.14	-1816.64	  449.31
     16.6700	  551.00	  562.91	-1817.41	  449.09
     16.7700	  574.00	  562.67	-1794.17	  448.85
     16.8700	  549.00	  562.43	-1818.93	  448.62
     16.9700	  549.00	  562.19	-1818.69	  448.38
     17.0700	  538.00	  561.95	-1829.45	  448.14
     17.1700	  541.00	  561.71	-1826.21	  447.90
     17.2700	  509.00	  561.46	-1857.96	  447.65
     17.3700	  569.00	  561.21	-1797.71	  447.40
     17.4700	  542.00	  560.96	-1824.46	  447.15
     17.5700	  535.00	  560.70	-1831.20	  446.90
     17.6700	  527.00	  560.45	-1838.95	  446.64
     17.7700	  555.00	  560.19	-1810.69	  446.39
     17.8700	  541.00	  560.04	-1824.54	  446.13
     17.9700	  586.00	  559.78	-1779.28	  445.86
     18.0700	  556.00	  559.52	-1809.02	  445.60
     18.1700	  560.00	  559.25	-1804.75	  445.33
     18.2700	  552.00	  558.99	-1812.49	  445.06
     18.3700	  556.00	  558.72	-1808.22	  444.79
     18.4700	  515.00	  558.45	-1848.95	  444.52
     18.5700	  549.00	  558.18	-1814.68	  444.25
     18.6700	  556.00	  557.90	-1807.40	  443.97
     18.7700	  583.00	  557.63	-1780.13	  443.69
     18.8700	  603.00	  557.44	-1759.94	  443.41
     18.9700	  553.00	  557.16	-1809.66	  443.13
     19.0700	  583.00	  556.88	-1779.38	  442.84
     19.1700	  587.00	  556.60	-1775.10	  442.55
     19.2700	  544.00	  556.32	-1817.82	  442.27
     19.3700	  580.00	  556.04	-1781.54	  441.98
     19.4700	  526.00	  555.75	-1835.25	  441.68
     19.5700	  530.00	  555.47	-1830.97	  441.39
     19.6700	  539.00	  555.18	-1821.68	  441.10
     19.7700	  556.00	  554.89	-1804.39	  440.80
     19.8700	  550.00	  554.60	-1810.10	  440.50
     19.9700	  607.00	  554.31	-1752.81	  440.20
     20.0700	  562.00	  554.02	-1797.52	  439.90
     20.1700	  555.00	  553.73	-1804.23	  439.60
     20.2700	  542.00	  553.43	-1816.93	  439.29
     20.3700	  531.00	  553.14	-1827.64	  438.99
     20.4700	  574.00	  552.82	-1784.32	  438.68
     20.5700	  549.00	  552.52	-1809.02	  438.37
     20.6700	  570.00	  552.23	-1787.73	  438.06
     20.7700	  507.00	  551.93	-1850.43	  437.75
     20.8700	  534.00	  551.66	-1823.16	  437.44
     20.9700	  528.00	  551.37	-1828.87	  437.12
     21.0700	  524.00	  551.07	-1832.57	  436.81
     21.1700	  522.00	  550.77	-1834.27	  436.49
     21.2700	  554.00	  550.47	-1801.97	  436.17
     21.3700	  529.00	  550.18	-1826.68	  435.86
     21.4700	  561.00	  549.88	-1794.38	  435.54
     21.5700	  550.00	  549.58	-1805.08	  435.22
     21.6700	  528.00	  549.29	-1826.79	  434.89
     21.7700	  570.00	  548.99	-1784.49	  434.57
     21.8700	  566.00	  548.70	-1788.20	  434.25
     21.9700	  539.00	  548.40	-1814.90	  433.92
     22.0700	  517.00	  548.11	-1836.61	  433.60
     22.1700	  557.00	  547.82	-1796.32	  433.27
     22.2700	  509.00	  547.53	-1844.03	  432.95
     22.3700	  507.00	  547.25	-1845.75	  432.62
     22.4700	  548.00	  546.97	-1804.47	  432.29
     22.5700	  583.00	  546.69	-1769.19	  431.96
     22.6700	  523.00	  546.42	-1828.92	  431.63
     22.7700	  544.00	  546.15	-1807.65	  431.30
     22.8700	  538.00	  545.89	-1813.39	  430.97
     22.9700	  582.00	  545.64	-1769.14	  430.64
     23.0700	  565.00	  545.40	-1785.90	  430.30
     23.1700	  562.00	  545.17	-1788.67	  429.97
     23.2700	  575.00	  544.96	-1775.46	  429.64
     23.3700	  573.00	  544.78	-1777.28	  429.30
     23.4700	  529.00	  544.62	-1821.12	  428.97
     23.5700	  553.00	  544.50	-1797.00	  428.63
     23.6700	  527.00	  544.44	-1822.94	  428.30
     23.7700	  554.00	  544.46	-1795.96	  427.96
     23.8700	  561.00	  544.77	-1789.27	  427.63
     23.9700	  540.00	  545.30	-1810.80	  427.29
     24.0700	  551.00	  546.53	-1801.03	  426.95
     24.1700	  566.00	  549.08	-1788.58	  426.62
     24.2700	  599.00	  553.78	-1760.28	  426.28
     24.3700	  552.00	  561.62	-1815.12	  425.94
     24.4700	  572.00	  573.71	-1807.21	  425.60
     24.5700	  573.00	  590.94	-1823.44	  425.26
     24.6700	  604.00	  611.84	-1813.34	  424.93
     24.7700	  613.00	  629.68	-1822.18	  424.59
     24.8700	  599.00	  632.87	-1839.37	  424.25
     24.9700	  627.00	  615.09	-1793.59	  423.91
     25.0700	  562.00	  587.63	-1831.13	  423.57
     25.1700	  561.00	  565.00	-1809.50	  423.23
     25.2700	  570.00	  551.66	-1787.16	  422.89
     25.3700	  592.00	  545.40	-1758.90	  422.55
     25.4700	  511.00	  542.69	-1837.19	  422.21
     25.5700	  531.00	  541.37	-1815.87	  421.87
     25.6700	  539.00	  540.55	-1807.05	  421.54
     25.7700	  583.00	  539.97	-1762.47	  421.20
     25.8700	  542.00	  539.53	-1803.03	  420.86
     25.9700	  579.00	  539.20	-1765.70	  420.52
     26.0700	  575.00	  538.97	-1769.47	  420.18
     26.1700	  559.00	  538.81	-1785.31	  419.84
     26.2700	  534.00	  538.74	-1810.24	  419.50
     26.3700	  575.00	  538.74	-1769.24	  419.17
     26.4700	  549.00	  538.83	-1795.33	  418.83
     26.5700	  560.00	  539.02	-1784.52	  418.49
     26.6700	  538.00	  539.33	-1806.83	  418.15
     26.7700	  586.00	  539.79	-1759.29	  417.82
     26.8700	  522.00	  540.42	-1823.92	  417.48
     26.9700	  578.00	  541.29	-1768.79	  417.14
     27.0700	  581.00	  542.47	-1766.97	  416.81
     27.1700	  569.00	  544.10	-1780.60	  416.47
     27.2700	  592.00	  546.42	-1759.92	  416.14
     27.3700	  553.00	  549.92	-1802.42	  415.80
     27.4700	  614.00	  555.53	-1747.03	  415.47
     27.5700	  563.00	  564.96	-1807.46	  415.14
     27.6700	  561.00	  580.90	-1825.40	  414.80
     27.7700	  577.00	  606.93	-1835.43	  414.47
     27.8700	  559.00	  646.36	-1892.86	  414.14
     27.9700	  678.00	  699.84	-1827.34	  413.81
     28.0700	  775.00	  762.21	-1792.71	  413.48
     28.1700	  897.00	  819.58	-1728.08	  413.15
     28.2700	  958.00	  849.55	-1697.05	  412.82
     28.3700	  889.00	  834.75	-1751.25	  412.49
     28.4700	  772.00	  790.65	-1824.15	  412.16
     28.5700	  733.00	  754.05	-1826.55	  411.83
     28.6700	  711.00	  745.74	-1840.24	  411.50
     28.7700	  787.00	  764.52	-1783.02	  411.18
     28.8700	  781.00	  792.90	-1817.40	  410.85
     28.9700	  766.00	  803.33	-1842.83	  410.52
     29.0700	  776.00	  773.65	-1803.15	  410.20
     29.1700	  768.00	  712.84	-1750.34	  409.88
     29.2700	  651.00	  650.16	-1804.66	  409.55
     29.3700	  582.00	  602.70	-1826.20	  409.23
     29.4700	  662.00	  572.90	-1716.40	  408.91
     29.5700	  615.00	  556.33	-1746.83	  408.59
     29.6700	  609.00	  547.50	-1744.00	  408.27
     29.7700	  620.00	  542.52	-1728.02	  407.95
     29.8700	  614.00	  539.42	-1730.92	  407.63
     29.9700	  607.00	  537.38	-1735.88	  407.32
     30.0700	  608.00	  536.15	-1733.65	  407.00
     30.1700	  593.00	  535.79	-1748.29	  406.69
     30.2700	  559.00	  536.68	-1783.18	  406.37
     30.3700	  525.00	  539.65	-1820.15	  406.06
     30.4700	  575.00	  546.03	-1776.53	  405.75
     30.5700	  559.00	  557.41	-1803.91	  405.44
     30.6700	  598.00	  574.59	-1782.09	  405.13
     30.7700	  568.00	  596.03	-1833.53	  404.82
     30.8700	  573.00	  616.45	-1848.95	  404.51
     30.9700	  603.00	  626.81	-1829.31	  404.20
     31.0700	  588.00	  618.93	-1836.43	  403.90
     31.1700	  597.00	  595.96	-1804.46	  403.59
     31.2700	  520.00	  570.37	-1855.87	  403.29
     31.3700	  585.00	  550.32	-1770.82	  402.98
     31.4700	  523.00	  537.61	-1820.11	  402.68
     31.5700	  565.00	  530.62	-1771.12	  402.38
     31.6700	  508.00	  527.00	-1824.50	  402.08
     31.7700	  504.00	  525.02	-1826.52	  401.78
     31.8700	  518.00	  523.79	-1811.29	  401.49
     31.9700	  530.00	  522.94	-1798.44	  401.19
     32.0700	  540.00	  522.32	-1787.82	  400.90
     32.1700	  523.00	  521.88	-1804.38	  400.60
     32.2700	  529.00	  521.59	-1798.09	  400.31
     32.3700	  545.00	  521.45	-1781.95	  400.02
     32.4700	  538.00	  521.44	-1788.94	  399.73
     32.5700	  530.00	  521.60	-1797.10	  399.44
     32.6700	  581.00	  521.93	-1746.43	  399.16
     32.7700	  549.00	  522.48	-1778.98	  398.87
     32.8700	  524.00	  523.31	-1804.81	  398.59
     32.9700	  553.00	  524.51	-1777.01	  398.30
     33.0700	  536.00	  526.25	-1795.75	  398.02
     33.1700	  529.00	  528.87	-1805.37	  397.74
     33.2700	  579.00	  533.19	-1759.69	  397.46
     33.3700	  558.00	  540.99	-1788.49	  397.18
     33.4700	  587.00	  555.87	-1774.37	  396.91
     33.5700	  584.00	  584.03	-1805.53	  396.63
     33.6700	  627.00	  633.51	-1812.01	  396.36
     33.7700	  721.00	  710.06	-1794.56	  396.08
     33.8700	  842.00	  809.16	-1772.66	  395.81
     33.9700	  961.00	  908.83	-1753.33	  395.54
     34.0700	 1092.00	  969.63	-1683.13	  395.28
     34.1700	 1064.00	  952.46	-1693.96	  395.01
     34.2700	  899.00	  861.64	-1768.14	  394.74
     34.3700	  808.00	  748.09	-1745.59	  394.48
     34.4700	  607.00	  653.36	-1851.86	  394.22
     34.5700	  568.00	  590.73	-1828.23	  393.96
     34.6700	  577.00	  555.73	-1784.23	  393.70
     34.7700	  528.00	  538.04	-1815.54	  393.44
     34.8700	  549.00	  529.07	-1785.57	  393.18
     34.9700	  488.00	  523.95	-1841.45	  392.93
     35.0700	  559.00	  520.54	-1767.04	  392.68
     35.1700	  556.00	  518.01	-1767.51	  392.43
     35.2700	  511.00	  516.02	-1810.52	  392.18
     35.3700	  542.00	  514.43	-1777.93	  391.93
     35.4700	  531.00	  513.09	-1787.59	  391.68
     35.5700	  548.00	  511.96	-1769.46	  391.43
     35.6700	  495.00	  511.00	-1821.50	  391.19
     35.7700	  543.00	  510.15	-1772.65	  390.95
     35.8700	  486.00	  509.91	-1829.41	  390.71
     35.9700	  521.00	  509.26	-1793.76	  390.47
     36.0700	  522.00	  508.67	-1792.17	  390.23
     36.1700	  514.00	  508.13	-1799.63	  389.99
     36.2700	  468.00	  507.65	-1845.15	  389.76
     36.3700	  480.00	  507.20	-1832.70	  389.53
     36.4700	  485.00	  506.80	-1827.30	  389.30
     36.5700	  536.00	  506.42	-1775.92	  389.07
     36.6700	  523.00	  506.09	-1788.59	  388.84
     36.7700	  482.00	  505.78	-1829.28	  388.61
     36.8700	  495.00	  505.53	-1816.03	  388.39
     36.9700	  527.00	  505.35	-1783.85	  388.17
     37.0700	  563.00	  505.31	-1747.81	  387.95
     37.1700	  492.00	  505.59	-1819.09	  387.73
     37.2700	  499.00	  506.45	-1812.95	  387.51
     37.3700	  521.00	  508.26	-1792.76	  387.29
     37.4700	  504.00	  511.24	-1812.74	  387.08
     37.5700	  521.00	  515.10	-1799.60	  386.86
     37.6700	  496.00	  518.79	-1828.29	  386.65
     37.7700	  511.00	  520.71	-1815.21	  386.44
     37.8700	  526.00	  519.72	-1799.22	  386.24
     37.9700	  480.00	  516.50	-1842.00	  386.03
     38.0700	  531.00	  512.64	-1787.14	  385.83
     38.1700	  471.00	  509.10	-1843.60	  385.63
     38.2700	  454.00	  506.24	-1857.74	  385.42
     38.3700	  493.00	  504.16	-1816.66	  385.23
     38.4700	  536.00	  502.74	-1772.24	  385.03
     38.5700	  545.00	  501.82	-1762.32	  384.83
     38.6700	  501.00	  501.21	-1805.71	  384.64
     38.7700	  504.00	  500.80	-1802.30	  384.45
     38.8700	  483.00	  500.37	-1822.87	  384.26
     38.9700	  468.00	  500.11	-1837.61	  384.07
     39.0700	  489.00	  499.88	-1816.38	  383.88
     39.1700	  512.00	  499.66	-1793.16	  383.70
     39.2700	  504.00	  499.37	-1800.87	  383.52
     39.3700	  524.00	  499.18	-1780.68	  383.33
     39.4700	  513.00	  499.01	-1791.51	  383.15
     39.5700	  507.00	  498.84	-1797.34	  382.98
     39.6700	  553.00	  498.68	-1751.18	  382.80
     39.7700	  563.00	  498.65	-1741.15	  382.63
     39.8700	  491.00	  498.51	-1813.01	  382.46
     39.9700	  501.00	  498.38	-1802.88	  382.28
     40.0700	  505.00	  498.25	-1798.75	  382.12
     40.1700	  432.00	  498.14	-1871.64	  381.95
     40.2700	  497.00	  498.04	-1806.54	  381.78
     40.3700	  514.00	  497.95	-1789.45	  381.62
     40.4700	  471.00	  497.87	-1832.37	  381.46
     40.5700	  511.00	  497.80	-1792.30	  381.30
     40.6700	  467.00	  497.75	-1836.25	  381.14
     40.7700	  545.00	  497.72	-1758.22	  380.99
     40.8700	  521.00	  497.71	-1782.21	  380.83
     40.9700	  476.00	  497.72	-1827.22	  380.68
     41.0700	  454.00	  497.77	-1849.27	  380.53
     41.1700	  480.00	  497.82	-1823.32	  380.38
     41.2700	  481.00	  497.94	-1822.44	  380.23
     41.3700	  508.00	  498.13	-1795.63	  380.09
     41.4700	  487.00	  498.38	-1816.88	  379.95
     41.5700	  505.00	  498.74	-1799.24	  379.80
     41.6700	  544.00	  499.67	-1761.17	  379.66
     41.7700	  481.00	  500.41	-1824.91	  379.53
     41.8700	  510.00	  501.60	-1797.10	  379.39
     41.9700	  501.00	  503.73	-1808.23	  379.26
     42.0700	  512.00	  507.90	-1801.40	  379.13
     42.1700	  504.00	  516.07	-1817.57	  378.99
     42.2700	  534.00	  530.83	-1802.33	  378.87
     42.3700	  531.00	  554.63	-1829.13	  378.74
     42.4700	  555.00	  587.43	-1837.93	  378.61
     42.5700	  547.00	  624.15	-1882.65	  378.49
     42.6700	  591.00	  653.92	-1868.42	  378.37
     42.7700	  580.00	  663.12	-1888.62	  378.25
     42.8700	  536.00	  645.86	-1915.36	  378.13
     42.9700	  545.00	  611.15	-1871.65	  378.02
     43.0700	  551.00	  573.79	-1828.29	  377.90
     43.1700	  495.00	  543.39	-1853.89	  377.79
     43.2700	  491.00	  522.92	-1837.42	  377.68
     43.3700	  525.00	  511.06	-1791.56	  377.57
     43.4700	  479.00	  504.87	-1831.37	  377.47
     43.5700	  525.00	  501.76	-1782.26	  377.36
     43.6700	  483.00	  500.27	-1822.77	  377.26
     43.7700	  520.00	  499.25	-1784.75	  377.16
     43.8700	  512.00	  498.54	-1792.04	  377.06
     43.9700	  481.00	  498.01	-1822.51	  376.96
     44.0700	  488.00	  497.59	-1815.09	  376.87
     44.1700	  500.00	  497.27	-1802.77	  376.77
     44.2700	  477.00	  497.06	-1825.56	  376.68
     44.3700	  491.00	  496.86	-1811.36	  376.59
     44.4700	  505.00	  496.72	-1797.22	  376.50
     44.5700	  517.00	  496.49	-1784.99	  376.42
     44.6700	  501.00	  496.41	-1800.91	  376.33
     44.7700	  519.00	  496.37	-1782.87	  376.25
     44.8700	  498.00	  496.35	-1803.85	  376.17
     44.9700	  480.00	  496.36	-1821.86	  376.09
     45.0700	  506.00	  496.39	-1795.89	  376.01
     45.1700	  522.00	  496.64	-1780.14	  375.94
     45.2700	  477.00	  496.71	-1825.21	  375.86
     45.3700	  467.00	  496.81	-1835.31	  375.79
     45.4700	  437.00	  496.94	-1865.44	  375.72
     45.5700	  501.00	  497.08	-1801.58	  375.65
     45.6700	  485.00	  497.25	-1817.75	  375.58
     45.7700	  510.00	  497.44	-1792.94	  375.52
     45.8700	  514.00	  497.66	-1789.16	  375.46
     45.9700	  461.00	  497.91	-1842.41	  375.39
     46.0700	  466.00	  498.19	-1837.69	  375.34
     46.1700	  515.00	  498.51	-1789.01	  375.28
     46.2700	  496.00	  498.86	-1808.36	  375.22
     46.3700	  515.00	  499.26	-1789.76	  375.17
     46.4700	  462.00	  499.71	-1843.21	  375.11
     46.5700	  523.00	  500.22	-1782.72	  375.06
     46.6700	  486.00	  500.79	-1820.29	  375.01
     46.7700	  478.00	  501.45	-1828.95	  374.97
     46.8700	  497.00	  502.23	-1810.73	  374.92
     46.9700	  470.00	  503.18	-1838.68	  374.88
     47.0700	  475.00	  504.45	-1834.95	  374.84
     47.1700	  508.00	  506.34	-1803.84	  374.80
     47.2700	  516.00	  509.43	-1798.93	  374.76
     47.3700	  495.00	  514.57	-1825.07	  374.72
     47.4700	  546.00	  522.76	-1782.26	  374.69
     47.5700	  567.00	  534.74	-1773.24	  374.65
     47.6700	  584.00	  550.07	-1771.57	  374.62
     47.7700	  633.00	  566.48	-1738.98	  374.59
     47.8700	  544.00	  579.67	-1841.17	  374.56
     47.9700	  606.00	  584.82	-1784.32	  374.54
     48.0700	  587.00	  580.03	-1798.53	  374.51
     48.1700	  564.00	  568.50	-1810.00	  374.49
     48.2700	  547.00	  555.49	-1813.99	  374.47
     48.3700	  516.00	  544.88	-1834.38	  374.45
     48.4700	  525.00	  538.38	-1818.88	  374.43
     48.5700	  551.00	  536.04	-1790.54	  374.41
     48.6700	  476.00	  537.07	-1866.57	  374.40
     48.7700	  520.00	  540.59	-1826.09	  374.38
     48.8700	  495.00	  546.10	-1856.60	  374.37
     48.9700	  515.00	  553.56	-1844.06	  374.36
     49.0700	  572.00	  563.50	-1797.00	  374.35
     49.1700	  542.00	  577.31	-1840.81	  374.35
     49.2700	  593.00	  597.92	-1810.42	  374.34
     49.3700	  635.00	  630.99	-1801.49	  374.34
     49.4700	  660.00	  686.26	-1831.76	  374.34
     49.5700	  761.00	  778.24	-1822.74	  374.34
     49.6700	  884.00	  924.98	-1846.48	  374.34
     49.7700	 1092.00	 1141.34	-1854.84	  374.34
     49.8700	 1325.00	 1431.69	-1912.19	  374.35
     49.9700	 1644.00	 1777.32	-1938.82	  374.35
     50.0700	 2087.00	 2126.14	-1844.64	  374.36
     50.1700	 2515.00	 2390.49	-1680.99	  374.37
     50.2700	 2534.00	 2472.90	-1744.40	  374.38
     50.3700	 2372.00	 2334.21	-1767.71	  374.39
     50.4700	 2139.00	 2034.49	-1700.99	  374.41
     50.5700	 1551.00	 1678.29	-1932.79	  374.42
     50.6700	 1162.00	 1346.66	-1990.16	  374.44
     50.7700	  924.00	 1081.73	-1963.23	  374.46
     50.8700	  766.00	  894.35	-1933.85	  374.48
     50.9700	  700.00	  775.10	-1880.60	  374.50
     51.0700	  670.00	  705.07	-1840.57	  374.53
     51.1700	  633.00	  664.28	-1836.78	  374.55
     51.2700	  606.00	  637.12	-1836.62	  374.58
     51.3700	  568.00	  614.85	-1852.35	  374.60
     51.4700	  556.00	  594.91	-1844.41	  374.63
     51.5700	  540.00	  577.62	-1843.12	  374.66
     51.6700	  578.00	  563.69	-1791.19	  374.70
     51.7700	  563.00	  553.32	-1795.82	  374.73
     51.8700	  529.00	  546.08	-1822.58	  374.77
     51.9700	  523.00	  541.24	-1823.74	  374.80
     52.0700	  555.00	  538.07	-1788.57	  374.84
     52.1700	  512.00	  536.10	-1829.60	  374.88
     52.2700	  538.00	  535.07	-1802.57	  374.92
     52.3700	  557.00	  535.15	-1783.65	  374.96
     52.4700	  588.00	  536.09	-1753.59	  375.01
     52.5700	  587.00	  538.66	-1757.16	  375.05
     52.6700	  561.00	  544.23	-1788.73	  375.10
     52.7700	  622.00	  555.55	-1739.05	  375.15
     52.8700	  622.00	  577.51	-1761.01	  375.20
     52.9700	  705.00	  617.27	-1717.77	  375.25
     53.0700	  756.00	  682.89	-1732.39	  375.30
     53.1700	  842.00	  779.73	-1743.23	  375.35
     53.2700	  952.00	  905.24	-1758.74	  375.41
     53.3700	 1054.00	 1044.00	-1795.50	  375.46
     53.4700	 1125.00	 1166.19	-1846.69	  375.52
     53.5700	 1213.00	 1233.19	-1825.69	  375.58
     53.6700	 1074.00	 1217.28	-1948.78	  375.64
     53.7700	 1028.00	 1124.94	-1902.44	  375.70
     53.8700	  966.00	  991.64	-1831.14	  375.76
     53.9700	  815.00	  854.85	-1845.35	  375.83
     54.0700	  740.00	  739.24	-1804.74	  375.89
     54.1700	  619.00	  654.85	-1841.35	  375.96
     54.2700	  598.00	  600.46	-1807.96	  376.03
     54.3700	  580.00	  568.99	-1794.49	  376.10
     54.4700	  560.00	  552.35	-1797.85	  376.17
     54.5700	  542.00	  544.10	-1807.60	  376.24
     54.6700	  545.00	  540.25	-1800.75	  376.31
     54.7700	  540.00	  538.64	-1804.14	  376.38
     54.8700	  557.00	  538.32	-1786.82	  376.46
     54.9700	  570.00	  538.89	-1774.39	  376.54
     55.0700	  562.00	  540.20	-1783.70	  376.61
     55.1700	  524.00	  542.23	-1823.73	  376.69
     55.2700	  587.00	  545.01	-1763.51	  376.77
     55.3700	  547.00	  548.68	-1807.18	  376.85
     55.4700	  547.00	  553.33	-1811.83	  376.93
     55.5700	  596.00	  559.28	-1768.78	  377.02
     55.6700	  546.00	  567.10	-1826.60	  377.10
     55.7700	  575.00	  577.93	-1808.43	  377.19
     55.8700	  571.00	  594.14	-1828.64	  377.27
     55.9700	  594.00	  620.36	-1831.86	  377.36
     56.0700	  636.00	  664.80	-1834.30	  377.45
     56.1700	  693.00	  740.34	-1852.84	  377.54
     56.2700	  784.00	  864.05	-1885.55	  377.63
     56.3700	  965.00	 1053.78	-1894.28	  377.72
     56.4700	 1244.00	 1321.00	-1882.50	  377.82
     56.5700	 1617.00	 1660.99	-1849.49	  377.91
     56.6700	 1977.00	 2043.78	-1872.28	  378.01
     56.7700	 2399.00	 2408.16	-1814.66	  378.10
     56.8700	 2535.00	 2666.03	-1936.53	  378.20
     56.9700	 2604.00	 2731.72	-1933.22	  378.30
     57.0700	 2577.00	 2579.10	-1807.60	  378.40
     57.1700	 2296.00	 2265.68	-1775.18	  378.50
     57.2700	 1854.00	 1885.65	-1837.15	  378.60
     57.3700	 1421.00	 1518.05	-1902.55	  378.70
     57.4700	 1220.00	 1210.49	-1795.99	  378.81
     57.5700	  935.00	  981.39	-1851.89	  378.91
     57.6700	  789.00	  827.51	-1844.01	  379.01
     57.7700	  723.00	  734.20	-1816.70	  379.12
     57.8700	  729.00	  684.31	-1760.81	  379.23
     57.9700	  644.00	  664.05	-1825.55	  379.34
     58.0700	  618.00	  664.95	-1852.45	  379.44
     58.1700	  706.00	  683.31	-1782.81	  379.55
     58.2700	  741.00	  718.44	-1782.94	  379.66
     58.3700	  731.00	  770.71	-1845.21	  379.78
     58.4700	  894.00	  839.69	-1751.19	  379.89
     58.5700	 1058.00	  922.46	-1669.96	  380.00
     58.6700	 1168.00	 1012.30	-1649.80	  380.12
     58.7700	 1333.00	 1099.41	-1571.91	  380.23
     58.8700	 1474.00	 1174.91	-1506.41	  380.35
     58.9700	 1508.00	 1233.50	-1531.00	  380.46
     59.0700	 1623.00	 1270.32	-1452.82	  380.58
     59.1700	 1633.00	 1279.28	-1451.78	  380.70
     59.2700	 1541.00	 1259.99	-1524.49	  380.82
     59.3700	 1466.00	 1223.08	-1562.58	  380.93
     59.4700	 1331.00	 1184.11	-1658.61	  381.06
     59.5700	 1233.00	 1154.98	-1727.48	  381.18
     59.6700	 1158.00	 1142.73	-1790.23	  381.30
     59.7700	 1109.00	 1153.26	-1849.76	  381.42
     59.8700	 1198.00	 1192.45	-1799.95	  381.54
     59.9700	 1271.00	 1260.94	-1795.44	  381.67
     60.0700	 1394.00	 1349.06	-1760.56	  381.79
     60.1700	 1556.00	 1434.95	-1684.45	  381.92
     60.2700	 1620.00	 1487.56	-1673.06	  382.04
     60.3700	 1593.00	 1478.78	-1691.28	  382.17
     60.4700	 1521.00	 1401.74	-1686.24	  382.30
     60.5700	 1294.00	 1275.30	-1786.80	  382.42
     60.6700	 1184.00	 1128.65	-1750.15	  382.55
     60.7700	  962.00	  986.59	-1830.09	  382.68
     60.8700	  816.00	  865.02	-1854.52	  382.81
     60.9700	  779.00	  771.47	-1797.97	  382.94
     61.0700	  694.00	  707.08	-1818.58	  383.07
     61.1700	  666.00	  669.46	-1808.96	  383.20
     61.2700	  653.00	  655.55	-1808.05	  383.33
     61.3700	  584.00	  663.91	-1885.41	  383.47
     61.4700	  660.00	  695.57	-1841.07	  383.60
     61.5700	  708.00	  753.54	-1851.04	  383.73
     61.6700	  805.00	  840.84	-1841.34	  383.87
     61.7700	  916.00	  957.69	-1847.19	  384.00
     61.8700	 1051.00	 1098.57	-1853.07	  384.14
     61.9700	 1166.00	 1249.83	-1889.33	  384.27
     62.0700	 1314.00	 1388.65	-1880.15	  384.41
     62.1700	 1410.00	 1484.84	-1880.34	  384.54
     62.2700	 1392.00	 1510.39	-1923.89	  384.68
     62.3700	 1382.00	 1456.17	-1879.67	  384.82
     62.4700	 1334.00	 1339.19	-1810.69	  384.95
     62.5700	 1107.00	 1189.98	-1888.48	  385.09
     62.6700	  961.00	 1036.81	-1881.31	  385.23
     62.7700	  824.00	  899.21	-1880.71	  385.37
     62.8700	  712.00	  787.52	-1881.02	  385.51
     62.9700	  634.00	  704.36	-1875.86	  385.65
     63.0700	  583.00	  646.96	-1869.46	  385.79
     63.1700	  609.00	  609.90	-1806.40	  385.93
     63.2700	  587.00	  587.29	-1805.79	  386.07
     63.3700	  591.00	  574.24	-1788.74	  386.21
     63.4700	  530.00	  567.42	-1842.92	  386.35
     63.5700	  561.00	  565.09	-1809.59	  386.49
     63.6700	  599.00	  566.88	-1773.38	  386.63
     63.7700	  557.00	  573.57	-1822.07	  386.78
     63.8700	  658.00	  586.86	-1734.36	  386.92
     63.9700	  599.00	  608.92	-1815.42	  387.06
     64.0700	  685.00	  641.82	-1762.32	  387.20
     64.1700	  705.00	  686.62	-1787.12	  387.35
     64.2700	  806.00	  742.31	-1741.81	  387.49
     64.3700	  807.00	  805.02	-1803.52	  387.63
     64.4700	  917.00	  867.53	-1756.03	  387.78
     64.5700	  982.00	  919.55	-1743.05	  387.92
     64.6700	  969.00	  950.35	-1786.85	  388.06
     64.7700	  975.00	  952.81	-1783.31	  388.21
     64.8700	 1002.00	  928.73	-1732.23	  388.35
     64.9700	  880.00	  884.64	-1810.14	  388.50
     65.0700	  921.00	  830.32	-1714.82	  388.64
     65.1700	  856.00	  775.13	-1724.63	  388.78
     65.2700	  786.00	  725.60	-1745.10	  388.93
     65.3700	  688.00	  684.66	-1802.16	  389.07
     65.4700	  667.00	  652.27	-1790.77	  389.22
     65.5700	  662.00	  626.83	-1770.33	  389.36
     65.6700	  620.00	  606.69	-1792.19	  389.51
     65.7700	  624.00	  590.75	-1772.25	  389.65
     65.8700	  567.00	  578.34	-1816.84	  389.80
     65.9700	  556.00	  569.04	-1818.54	  389.94
     66.0700	  565.00	  562.53	-1803.03	  390.09
     66.1700	  546.00	  558.51	-1818.01	  390.23
     66.2700	  563.00	  556.64	-1799.14	  390.38
     66.3700	  534.00	  556.55	-1828.05	  390.52
     66.4700	  527.00	  557.97	-1836.47	  390.67
     66.5700	  553.00	  560.78	-1813.28	  390.81
     66.6700	  556.00	  565.10	-1814.60	  390.96
     66.7700	  566.00	  571.53	-1811.03	  391.10
     66.8700	  543.00	  581.01	-1843.51	  391.25
     66.9700	  596.00	  595.72	-1805.22	  391.39
     67.0700	  576.00	  619.22	-1848.72	  391.53
     67.1700	  613.00	  656.99	-1849.49	  391.68
     67.2700	  746.00	  716.50	-1776.00	  391.82
     67.3700	  794.00	  806.80	-1818.30	  391.97
     67.4700	  885.00	  937.01	-1857.51	  392.11
     67.5700	 1080.00	 1113.12	-1838.62	  392.25
     67.6700	 1305.00	 1335.69	-1836.19	  392.40
     67.7700	 1628.00	 1595.22	-1772.72	  392.54
     67.8700	 1842.00	 1870.48	-1833.98	  392.68
     67.9700	 2265.00	 2127.64	-1668.14	  392.83
     68.0700	 2438.00	 2322.91	-1690.41	  392.97
     68.1700	 2463.00	 2412.41	-1754.91	  393.11
     68.2700	 2385.00	 2372.06	-1792.56	  393.25
     68.3700	 2191.00	 2213.05	-1827.55	  393.39
     68.4700	 1975.00	 1974.37	-1804.87	  393.54
     68.5700	 1698.00	 1701.74	-1809.24	  393.68
     68.6700	 1468.00	 1433.35	-1770.85	  393.82
     68.7700	 1130.00	 1195.42	-1870.92	  393.96
     68.8700	  951.00	 1001.45	-1855.95	  394.10
     68.9700	  866.00	  854.71	-1794.21	  394.24
     69.0700	  732.00	  750.67	-1824.17	  394.38
     69.1700	  680.00	  681.00	-1806.50	  394.52
     69.2700	  653.00	  636.43	-1788.93	  394.66
     69.3700	  634.00	  608.74	-1780.24	  394.80
     69.4700	  592.00	  591.69	-1805.19	  394.93
     69.5700	  597.00	  581.02	-1789.52	  395.07
     69.6700	  562.00	  574.11	-1817.61	  395.21
     69.7700	  575.00	  569.45	-1799.95	  395.35
     69.8700	  625.00	  566.23	-1746.73	  395.48
     69.9700	  553.00	  564.03	-1816.53	  395.62
     70.0700	  576.00	  562.63	-1792.13	  395.75
     70.1700	  534.00	  561.95	-1833.45	  395.89
     70.2700	  554.00	  561.97	-1813.47	  396.02
     70.3700	  542.00	  562.69	-1826.19	  396.16
     70.4700	  534.00	  564.28	-1835.78	  396.29
     70.5700	  564.00	  567.01	-1808.51	  396.43
     70.6700	  575.00	  571.47	-1801.97	  396.56
     70.7700	  587.00	  578.67	-1797.17	  396.69
     70.8700	  563.00	  590.36	-1832.86	  396.82
     70.9700	  555.00	  609.30	-1859.80	  396.95
     71.0700	  595.00	  639.49	-1849.99	  397.08
     71.1700	  705.00	  686.17	-1786.67	  397.21
     71.2700	  714.00	  756.26	-1847.76	  397.34
     71.3700	  827.00	  853.77	-1832.27	  397.47
     71.4700	  956.00	  983.43	-1832.93	  397.60
     71.5700	 1123.00	 1145.17	-1827.67	  397.73
     71.6700	 1300.00	 1333.03	-1838.53	  397.85
     71.7700	 1506.00	 1533.75	-1833.25	  397.98
     71.8700	 1726.00	 1726.58	-1806.08	  398.11
     71.9700	 1828.00	 1884.32	-1861.82	  398.23
     72.0700	 1975.00	 1977.96	-1808.46	  398.36
     72.1700	 1963.00	 1986.49	-1828.99	  398.48
     72.2700	 1911.00	 1907.97	-1802.47	  398.60
     72.3700	 1773.00	 1760.35	-1792.85	  398.72
     72.4700	 1597.00	 1573.07	-1781.57	  398.85
     72.5700	 1489.00	 1373.50	-1690.00	  398.97
     72.6700	 1277.00	 1183.53	-1712.03	  399.09
     72.7700	 1135.00	 1017.49	-1687.99	  399.21
     72.8700	 1016.00	  882.33	-1671.83	  399.32
     72.9700	  901.00	  778.90	-1683.40	  399.44
     73.0700	  899.00	  703.84	-1610.34	  399.56
     73.1700	  797.00	  651.73	-1660.23	  399.68
     73.2700	  772.00	  616.76	-1650.26	  399.79
     73.3700	  701.00	  593.74	-1698.24	  399.91
     73.4700	  658.00	  578.67	-1726.17	  400.02
     73.5700	  684.00	  568.76	-1690.26	  400.13
     73.6700	  610.00	  562.18	-1757.68	  400.24
     73.7700	  590.00	  557.90	-1773.40	  400.36
     73.8700	  613.00	  555.31	-1747.81	  400.47
     73.9700	  532.00	  554.08	-1827.58	  400.58
     74.0700	  577.00	  554.03	-1782.53	  400.68
     74.1700	  598.00	  554.96	-1762.46	  400.79
     74.2700	  604.00	  556.65	-1758.15	  400.90
     74.3700	  572.00	  558.79	-1792.29	  401.01
     74.4700	  621.00	  560.98	-1745.48	  401.11
     74.5700	  662.00	  562.73	-1706.23	  401.22
     74.6700	  615.00	  563.56	-1754.06	  401.32
     74.7700	  649.00	  563.11	-1719.61	  401.42
     74.8700	  654.00	  561.34	-1712.84	  401.52
     74.9700	  621.00	  558.53	-1743.03	  401.62
     75.0700	  614.00	  555.16	-1746.66	  401.72
     75.1700	  587.00	  551.75	-1770.25	  401.82
     75.2700	  600.00	  548.86	-1754.36	  401.92
     75.3700	  554.00	  546.95	-1798.45	  402.01
     75.4700	  562.00	  546.39	-1789.89	  402.11
     75.5700	  564.00	  547.78	-1789.28	  402.20
     75.6700	  499.00	  551.52	-1858.02	  402.30
     75.7700	  546.00	  557.99	-1817.49	  402.39
     75.8700	  552.00	  567.81	-1821.31	  402.48
     75.9700	  587.00	  581.08	-1799.58	  402.57
     76.0700	  597.00	  597.68	-1806.18	  402.66
     76.1700	  611.00	  617.00	-1811.50	  402.75
     76.2700	  670.00	  637.83	-1773.33	  402.84
     76.3700	  635.00	  658.34	-1828.84	  402.92
     76.4700	  692.00	  676.14	-1789.64	  403.01
     76.5700	  647.00	  688.56	-1847.06	  403.09
     76.6700	  697.00	  693.34	-1801.84	  403.17
     76.7700	  716.00	  689.44	-1778.94	  403.25
     76.8700	  669.00	  677.66	-1814.16	  403.33
     76.9700	  647.00	  660.16	-1818.66	  403.41
     77.0700	  621.00	  639.41	-1823.91	  403.49
     77.1700	  606.00	  618.20	-1817.70	  403.57
     77.2700	  606.00	  598.22	-1797.72	  403.64
     77.3700	  558.00	  580.73	-1828.23	  403.72
     77.4700	  527.00	  566.36	-1844.86	  403.79
     77.5700	  536.00	  555.22	-1824.72	  403.86
     77.6700	  550.00	  547.01	-1802.51	  403.94
     77.7700	  513.00	  541.24	-1833.74	  404.01
     77.8700	  501.00	  537.36	-1841.86	  404.07
     77.9700	  538.00	  534.83	-1802.33	  404.14
     78.0700	  549.00	  533.22	-1789.72	  404.21
     78.1700	  506.00	  532.21	-1831.71	  404.27
     78.2700	  528.00	  531.58	-1809.08	  404.34
     78.3700	  514.00	  531.20	-1822.70	  404.40
     78.4700	  517.00	  530.97	-1819.47	  404.46
     78.5700	  485.00	  530.86	-1851.36	  404.52
     78.6700	  537.00	  530.84	-1799.34	  404.58
     78.7700	  550.00	  530.91	-1786.41	  404.63
     78.8700	  487.00	  531.08	-1849.58	  404.69
     78.9700	  560.00	  531.37	-1776.87	  404.74
     79.0700	  533.00	  531.80	-1804.30	  404.80
     79.1700	  534.00	  532.43	-1803.93	  404.85
     79.2700	  517.00	  533.30	-1821.80	  404.90
     79.3700	  487.00	  534.29	-1852.79	  404.95
     79.4700	  530.00	  535.85	-1811.35	  405.00
     79.5700	  528.00	  537.88	-1815.38	  405.04
     79.6700	  544.00	  540.46	-1801.96	  405.09
     79.7700	  503.00	  543.72	-1846.22	  405.13
     79.8700	  539.00	  547.78	-1814.28	  405.17
     79.9700	  483.00	  552.81	-1875.31	  405.22
     80.0700	  553.00	  559.02	-1811.52	  405.25
     80.1700	  532.00	  566.63	-1840.13	  405.29
     80.2700	  538.00	  575.91	-1843.41	  405.33
     80.3700	  559.00	  587.14	-1833.64	  405.37
     80.4700	  565.00	  600.53	-1841.03	  405.40
     80.5700	  554.00	  616.09	-1867.59	  405.43
     80.6700	  571.00	  633.56	-1868.06	  405.46
     80.7700	  610.00	  652.32	-1847.82	  405.49
     80.8700	  662.00	  671.35	-1814.85	  405.52
     80.9700	  677.00	  689.33	-1817.83	  405.55
     81.0700	  697.00	  704.82	-1813.32	  405.57
     81.1700	  713.00	  716.56	-1809.06	  405.60
     81.2700	  764.00	  723.64	-1765.14	  405.62
     81.3700	  742.00	  725.55	-1789.05	  405.64
     81.4700	  750.00	  722.22	-1777.72	  405.66
     81.5700	  804.00	  714.11	-1715.61	  405.68
     81.6700	  733.00	  702.07	-1774.57	  405.69
     81.7700	  776.00	  687.08	-1716.58	  405.71
     81.8700	  703.00	  670.14	-1772.64	  405.72
     81.9700	  738.00	  652.22	-1719.72	  405.73
     82.0700	  684.00	  634.39	-1755.89	  405.74
     82.1700	  646.00	  617.46	-1776.96	  405.75
     82.2700	  675.00	  602.07	-1732.57	  405.76
     82.3700	  665.00	  588.55	-1729.05	  405.77
     82.4700	  597.00	  577.06	-1785.56	  405.77
     82.5700	  596.00	  567.60	-1777.10	  405.77
     82.6700	  569.00	  560.09	-1796.59	  405.78
     82.7700	  559.00	  554.44	-1800.94	  405.78
     82.8700	  551.00	  550.51	-1805.01	  405.77
     82.9700	  565.00	  548.16	-1788.66	  405.77
     83.0700	  515.00	  547.27	-1837.77	  405.76
     83.1700	  576.00	  547.75	-1777.25	  405.76
     83.2700	  562.00	  549.49	-1792.99	  405.75
     83.3700	  567.00	  552.36	-1790.86	  405.74
     83.4700	  532.00	  556.19	-1829.69	  405.73
     83.5700	  537.00	  560.73	-1829.23	  405.72
     83.6700	  528.00	  565.64	-1843.14	  405.70
     83.7700	  565.00	  570.51	-1811.01	  405.69
     83.8700	  571.00	  574.83	-1809.33	  405.67
     83.9700	  570.00	  578.06	-1813.56	  405.65
     84.0700	  519.00	  579.70	-1866.20	  405.63
     84.1700	  569.00	  579.45	-1815.95	  405.60
     84.2700	  563.00	  577.31	-1819.81	  405.58
     84.3700	  554.00	  573.58	-1825.08	  405.55
     84.4700	  575.00	  568.74	-1799.24	  405.53
     84.5700	  581.00	  563.31	-1787.81	  405.50
     84.6700	  546.00	  557.75	-1817.25	  405.47
     84.7700	  546.00	  552.43	-1811.93	  405.44
     84.8700	  530.00	  547.61	-1823.11	  405.40
     84.9700	  548.00	  543.48	-1800.98	  405.37
     85.0700	  546.00	  540.09	-1799.59	  405.33
     85.1700	  525.00	  537.46	-1817.96	  405.29
     85.2700	  530.00	  535.52	-1811.02	  405.25
     85.3700	  531.00	  534.20	-1808.70	  405.21
     85.4700	  500.00	  533.42	-1838.92	  405.16
     85.5700	  524.00	  533.07	-1814.57	  405.12
     85.6700	  523.00	  533.10	-1815.60	  405.07
     85.7700	  525.00	  533.45	-1813.95	  405.02
     85.8700	  537.00	  534.09	-1802.59	  404.97
     85.9700	  521.00	  535.01	-1819.51	  404.92
     86.0700	  502.00	  536.26	-1839.76	  404.86
     86.1700	  487.00	  537.86	-1856.36	  404.81
     86.2700	  557.00	  539.90	-1788.40	  404.75
     86.3700	  517.00	  542.48	-1830.98	  404.69
     86.4700	  576.00	  545.73	-1775.23	  404.63
     86.5700	  515.00	  549.77	-1840.27	  404.57
     86.6700	  554.00	  554.74	-1806.24	  404.50
     86.7700	  610.00	  560.72	-1756.22	  404.44
     86.8700	  582.00	  567.36	-1790.86	  404.37
     86.9700	  632.00	  575.13	-1748.63	  404.30
     87.0700	  559.00	  583.40	-1829.90	  404.23
     87.1700	  605.00	  591.70	-1792.20	  404.16
     87.2700	  593.00	  599.41	-1811.91	  404.09
     87.3700	  632.00	  605.83	-1779.33	  404.01
     87.4700	  607.00	  610.25	-1808.75	  403.93
     87.5700	  654.00	  612.10	-1763.60	  403.85
     87.6700	  636.00	  611.14	-1780.64	  403.77
     87.7700	  585.00	  607.56	-1828.06	  403.69
     87.8700	  612.00	  601.92	-1795.42	  403.60
     87.9700	  579.00	  595.01	-1821.51	  403.52
     88.0700	  652.00	  587.67	-1741.17	  403.43
     88.1700	  603.00	  580.67	-1783.17	  403.34
     88.2700	  583.00	  574.71	-1797.21	  403.25
     88.3700	  560.00	  570.33	-1815.83	  403.16
     88.4700	  557.00	  567.91	-1816.41	  403.06
     88.5700	  577.00	  567.65	-1796.15	  402.97
     88.6700	  536.00	  569.56	-1839.06	  402.87
     88.7700	  607.00	  573.48	-1771.98	  402.77
     88.8700	  632.00	  579.10	-1752.60	  402.67
     88.9700	  571.00	  585.95	-1820.45	  402.56
     89.0700	  641.00	  593.42	-1757.92	  402.46
     89.1700	  608.00	  600.84	-1798.34	  402.35
     89.2700	  646.00	  607.42	-1766.92	  402.24
     89.3700	  602.00	  612.39	-1815.89	  402.13
     89.4700	  625.00	  615.07	-1795.57	  402.02
     89.5700	  589.00	  615.05	-1831.55	  401.91
     89.6700	  547.00	  612.29	-1870.79	  401.79
     89.7700	  581.00	  607.10	-1831.60	  401.68
     89.8700	  568.00	  600.07	-1837.57	  401.56
     89.9700	  580.00	  591.89	-1817.39	  401.44
     90.0700	  576.00	  583.20	-1812.70	  401.31
     90.1700	  573.00	  574.58	-1807.08	  401.19
     90.2700	  525.00	  566.46	-1846.96	  401.07
     90.3700	  546.00	  559.16	-1818.66	  400.94
     90.4700	  520.00	  552.87	-1838.37	  400.81
     90.5700	  514.00	  547.67	-1839.17	  400.68
     90.6700	  502.00	  543.53	-1847.03	  400.55
     90.7700	  519.00	  540.37	-1826.87	  400.41
     90.8700	  478.00	  538.07	-1865.57	  400.28
     90.9700	  559.00	  536.50	-1783.00	  400.14
     91.0700	  490.00	  535.53	-1851.03	  400.00
     91.1700	  525.00	  535.06	-1815.56	  399.86
     91.2700	  522.00	  535.02	-1818.52	  399.72
     91.3700	  538.00	  535.38	-1802.88	  399.58
     91.4700	  492.00	  536.14	-1849.64	  399.43
     91.5700	  558.00	  537.37	-1784.87	  399.28
     91.6700	  540.00	  539.14	-1804.64	  399.14
     91.7700	  515.00	  541.58	-1832.08	  398.98
     91.8700	  499.00	  544.84	-1851.34	  398.83
     91.9700	  480.00	  548.85	-1874.35	  398.68
     92.0700	  509.00	  554.24	-1850.74	  398.52
     92.1700	  523.00	  560.92	-1843.42	  398.37
     92.2700	  541.00	  568.99	-1833.49	  398.21
     92.3700	  513.00	  578.51	-1871.01	  398.05
     92.4700	  585.00	  589.44	-1809.94	  397.89
     92.5700	  583.00	  601.65	-1824.15	  397.72
     92.6700	  631.00	  614.92	-1789.42	  397.56
     92.7700	  676.00	  628.92	-1758.42	  397.39
     92.8700	  619.00	  643.23	-1829.73	  397.22
     92.9700	  676.00	  657.36	-1786.86	  397.05
     93.0700	  715.00	  670.80	-1761.30	  396.88
     93.1700	  676.00	  683.16	-1812.66	  396.71
     93.2700	  697.00	  694.27	-1802.77	  396.53
     93.3700	  807.00	  704.26	-1702.76	  396.36
     93.4700	  746.00	  713.56	-1773.06	  396.18
     93.5700	  816.00	  722.73	-1712.23	  396.00
     93.6700	  821.00	  732.36	-1716.86	  395.82
     93.7700	  831.00	  742.95	-1717.45	  395.64
     93.8700	  810.00	  754.89	-1750.39	  395.45
     93.9700	  874.00	  768.49	-1699.99	  395.27
     94.0700	  893.00	  783.96	-1696.46	  395.08
     94.1700	  838.00	  801.45	-1768.95	  394.89
     94.2700	  861.00	  820.85	-1765.35	  394.70
     94.3700	  872.00	  841.76	-1775.26	  394.51
     94.4700	  876.00	  863.34	-1792.84	  394.31
     94.5700	  940.00	  884.39	-1749.89	  394.12
     94.6700	  919.00	  903.26	-1789.76	  393.92
     94.7700	  887.00	  918.08	-1836.58	  393.73
     94.8700	  907.00	  926.93	-1825.43	  393.53
     94.9700	  920.00	  928.29	-1813.79	  393.33
     95.0700	  887.00	  921.40	-1839.90	  393.12
     95.1700	  917.00	  906.50	-1795.00	  392.92
     95.2700	  858.00	  884.81	-1832.31	  392.71
     95.3700	  800.00	  858.18	-1863.68	  392.51
     95.4700	  773.00	  828.70	-1861.20	  392.30
     95.5700	  814.00	  798.49	-1789.99	  392.09
     95.6700	  739.00	  769.52	-1836.02	  391.88
     95.7700	  735.00	  743.59	-1814.09	  391.67
     95.8700	  685.00	  722.31	-1842.81	  391.45
     95.9700	  647.00	  707.10	-1865.60	  391.24
     96.0700	  698.00	  699.20	-1806.70	  391.02
     96.1700	  668.00	  699.69	-1837.19	  390.80
     96.2700	  629.00	  709.49	-1885.99	  390.58
     96.3700	  700.00	  729.33	-1834.83	  390.36
     96.4700	  733.00	  759.69	-1832.19	  390.14
     96.5700	  790.00	  800.70	-1816.20	  389.92
     96.6700	  847.00	  852.11	-1810.61	  389.69
     96.7700	  861.00	  913.13	-1857.63	  389.47
     96.8700	  964.00	  982.33	-1823.83	  389.24
     96.9700	 1011.00	 1057.59	-1852.09	  389.01
     97.0700	 1124.00	 1136.07	-1817.57	  388.78
     97.1700	 1171.00	 1214.25	-1848.75	  388.55
     97.2700	 1281.00	 1288.00	-1812.50	  388.32
     97.3700	 1288.00	 1352.78	-1870.28	  388.08
     97.4700	 1428.00	 1403.97	-1781.47	  387.85
     97.5700	 1352.00	 1437.54	-1891.04	  387.61
     97.6700	 1507.00	 1450.70	-1749.20	  387.37
     97.7700	 1413.00	 1442.57	-1835.07	  387.13
     97.8700	 1420.00	 1414.37	-1799.87	  386.89
     97.9700	 1394.00	 1369.02	-1780.52	  386.65
     98.0700	 1364.00	 1310.61	-1752.11	  386.41
     98.1700	 1296.00	 1243.55	-1753.05	  386.17
     98.2700	 1141.00	 1172.25	-1836.75	  385.92
     98.3700	 1096.00	 1100.82	-1810.32	  385.68
     98.4700	 1115.00	 1032.85	-1723.35	  385.43
     98.5700	  980.00	  971.35	-1796.85	  385.18
     98.6700	  898.00	  918.72	-1826.22	  384.93
     98.7700	  787.00	  876.82	-1895.32	  384.68
     98.8700	  822.00	  847.03	-1830.53	  384.43
     98.9700	  777.00	  830.32	-1858.82	  384.18
     99.0700	  836.00	  827.35	-1796.85	  383.92
     99.1700	  841.00	  838.52	-1803.02	  383.67
     99.2700	  804.00	  863.98	-1865.48	  383.41
     99.3700	  907.00	  903.73	-1802.23	  383.16
     99.4700	  879.00	  957.49	-1883.99	  382.90
     99.5700	 1013.00	 1024.71	-1817.21	  382.64
     99.6700	 1089.00	 1104.49	-1820.99	  382.38
     99.7700	 1181.00	 1195.45	-1819.95	  382.12
     99.8700	 1261.00	 1295.71	-1840.21	  381.86
     99.9700	 1279.00	 1402.71	-1929.21	  381.60
    100.0700	 1531.00	 1513.23	-1787.73	  381.33
    100.1700	 1630.00	 1623.41	-1798.91	  381.07
    100.2700	 1772.00	 1728.96	-1762.46	  380.80
    100.3700	 1926.00	 1825.51	-1705.01	  380.54
    100.4700	 1904.00	 1909.10	-1810.60	  380.27
    100.5700	 2015.00	 1976.62	-1767.12	  380.00
    100.6700	 2014.00	 2025.97	-1817.47	  379.73
    100.7700	 2061.00	 2055.81	-1800.31	  379.46
    100.8700	 2088.00	 2065.29	-1782.79	  379.19
    100.9700	 2098.00	 2054.02	-1761.52	  378.92
    101.0700	 2101.00	 2022.12	-1726.62	  378.65
    101.1700	 2121.00	 1970.74	-1655.24	  378.38
    101.2700	 1958.00	 1902.33	-1749.83	  378.10
    101.3700	 1865.00	 1820.60	-1761.10	  377.83
    101.4700	 1682.00	 1730.24	-1853.74	  377.55
    101.5700	 1610.00	 1636.23	-1831.73	  377.28
    101.6700	 1661.00	 1543.29	-1687.79	  377.00
    101.7700	 1478.00	 1455.43	-1782.93	  376.72
    101.8700	 1343.00	 1375.77	-1838.27	  376.45
    101.9700	 1319.00	 1306.37	-1792.87	  376.17
    102.0700	 1226.00	 1248.21	-1827.71	  375.89
    102.1700	 1277.00	 1201.23	-1729.73	  375.61
    102.2700	 1207.00	 1164.43	-1762.93	  375.33
    102.3700	 1140.00	 1136.04	-1801.54	  375.05
    102.4700	 1060.00	 1113.68	-1859.18	  374.77
    102.5700	 1109.00	 1094.67	-1791.17	  374.49
    102.6700	 1038.00	 1076.26	-1843.76	  374.20
    102.7700	 1061.00	 1056.11	-1800.61	  373.92
    102.8700	 1042.00	 1032.53	-1796.03	  373.64
    102.9700	  918.00	 1004.68	-1892.18	  373.35
    103.0700	  964.00	  972.53	-1814.03	  373.07
    103.1700	  883.00	  936.69	-1859.19	  372.78
    103.2700	  899.00	  898.21	-1804.71	  372.50
    103.3700	  865.00	  858.27	-1798.77	  372.21
    103.4700	  818.00	  818.13	-1805.63	  371.93
    103.5700	  801.00	  778.93	-1783.43	  371.64
    103.6700	  743.00	  741.69	-1804.19	  371.36
    103.7700	  732.00	  707.22	-1780.72	  371.07
    103.8700	  693.00	  676.08	-1788.58	  370.78
    103.9700	  622.00	  648.66	-1832.16	  370.50
    104.0700	  607.00	  625.07	-1823.57	  370.21
    104.1700	  621.00	  605.28	-1789.78	  369.92
    104.2700	  596.00	  589.10	-1798.60	  369.63
    104.3700	  572.00	  576.23	-1809.73	  369.35
    104.4700	  572.00	  566.31	-1799.81	  369.06
    104.5700	  531.00	  558.95	-1833.45	  368.77
    104.6700	  587.00	  553.77	-1772.27	  368.48
    104.7700	  535.00	  550.40	-1820.90	  368.19
    104.8700	  500.00	  548.52	-1854.02	  367.91
    104.9700	  506.00	  547.83	-1847.33	  367.62
    105.0700	  540.00	  548.09	-1813.59	  367.33
    105.1700	  561.00	  549.09	-1793.59	  367.04
    105.2700	  500.00	  550.70	-1856.20	  366.75
    105.3700	  520.00	  552.79	-1838.29	  366.46
    105.4700	  553.00	  555.25	-1807.75	  366.18
    105.5700	  539.00	  558.07	-1824.57	  365.89
    105.6700	  545.00	  561.23	-1821.73	  365.60
    105.7700	  539.00	  564.77	-1831.27	  365.31
    105.8700	  570.00	  568.76	-1804.26	  365.02
    105.9700	  510.00	  573.29	-1868.79	  364.74
    106.0700	  561.00	  578.49	-1822.99	  364.45
    106.1700	  599.00	  584.43	-1790.93	  364.16
    106.2700	  578.00	  591.19	-1818.69	  363.88
    106.3700	  592.00	  598.79	-1812.29	  363.59
    106.4700	  583.00	  607.16	-1829.66	  363.30
    106.5700	  577.00	  616.21	-1844.71	  363.02
    106.6700	  602.00	  625.72	-1829.22	  362.73
    106.7700	  632.00	  635.45	-1808.95	  362.45
    106.8700	  625.00	  645.07	-1825.57	  362.16
    106.9700	  675.00	  654.21	-1784.71	  361.88
    107.0700	  652.00	  662.49	-1815.99	  361.60
    107.1700	  651.00	  669.53	-1824.03	  361.31
    107.2700	  626.00	  675.00	-1854.50	  361.03
    107.3700	  663.00	  678.71	-1821.21	  360.75
    107.4700	  629.00	  680.60	-1857.10	  360.47
    107.5700	  654.00	  680.81	-1832.31	  360.18
    107.6700	  678.00	  679.66	-1807.16	  359.90
    107.7700	  726.00	  677.55	-1757.05	  359.63
    107.8700	  669.00	  674.94	-1811.44	  359.35
    107.9700	  674.00	  672.30	-1803.80	  359.07
    108.0700	  682.00	  670.01	-1793.51	  358.79
    108.1700	  677.00	  668.39	-1796.89	  358.51
    108.2700	  619.00	  667.63	-1854.13	  358.24
    108.3700	  663.00	  667.80	-1810.30	  357.96
    108.4700	  705.00	  668.87	-1769.37	  357.69
    108.5700	  675.00	  670.65	-1801.15	  357.42
    108.6700	  644.00	  672.86	-1834.36	  357.14
    108.7700	  682.00	  675.13	-1798.63	  356.87
    108.8700	  652.00	  677.05	-1830.55	  356.60
    108.9700	  702.00	  678.14	-1781.64	  356.33
    109.0700	  679.00	  678.00	-1804.50	  356.06
    109.1700	  667.00	  676.29	-1814.79	  355.80
    109.2700	  623.00	  672.82	-1855.32	  355.53
    109.3700	  692.00	  667.52	-1781.02	  355.27
    109.4700	  618.00	  660.52	-1848.02	  355.00
    109.5700	  682.00	  652.05	-1775.55	  354.74
    109.6700	  632.00	  642.42	-1815.92	  354.48
    109.7700	  644.00	  632.00	-1793.50	  354.22
    109.8700	  669.00	  621.16	-1757.66	  353.96
    109.9700	  584.00	  610.24	-1831.74	  353.70
    110.0700	  611.00	  599.57	-1794.07	  353.44
    110.1700	  592.00	  589.42	-1802.92	  353.19
    110.2700	  560.00	  580.03	-1825.53	  352.93
    110.3700	  594.00	  571.55	-1783.05	  352.68
    110.4700	  549.00	  564.09	-1820.59	  352.43
    110.5700	  562.00	  557.71	-1801.21	  352.18
    110.6700	  561.00	  552.41	-1796.91	  351.93
    110.7700	  533.00	  548.17	-1820.67	  351.69
    110.8700	  576.00	  544.91	-1774.41	  351.44
    110.9700	  550.00	  542.57	-1798.07	  351.20
    111.0700	  537.00	  541.04	-1809.54	  350.96
    111.1700	  588.00	  540.22	-1757.72	  350.72
    111.2700	  551.00	  540.03	-1794.53	  350.48
    111.3700	  515.00	  540.37	-1830.87	  350.25
    111.4700	  554.00	  541.16	-1792.66	  350.01
    111.5700	  539.00	  542.35	-1808.85	  349.78
    111.6700	  536.00	  543.87	-1813.37	  349.55
    111.7700	  503.00	  545.69	-1848.19	  349.32
    111.8700	  559.00	  547.78	-1794.28	  349.09
    111.9700	  590.00	  550.11	-1765.61	  348.87
    112.0700	  556.00	  552.68	-1802.18	  348.65
    112.1700	  545.00	  555.48	-1815.98	  348.43
    112.2700	  556.00	  558.53	-1808.03	  348.21
    112.3700	  583.00	  561.85	-1784.35	  347.99
    112.4700	  527.00	  565.46	-1843.96	  347.78
    112.5700	  556.00	  569.41	-1818.91	  347.56
    112.6700	  597.00	  573.73	-1782.23	  347.35
    112.7700	  552.00	  578.50	-1832.00	  347.15
    112.8700	  613.00	  583.81	-1776.31	  346.94
    112.9700	  689.00	  589.77	-1706.27	  346.74
    113.0700	  636.00	  596.52	-1766.02	  346.54
    113.1700	  703.00	  604.25	-1706.75	  346.34
    113.2700	  740.00	  613.23	-1678.73	  346.14
    113.3700	  733.00	  623.77	-1696.27	  345.95
    113.4700	  786.00	  636.27	-1655.77	  345.76
    113.5700	  760.00	  651.24	-1696.74	  345.57
    113.6700	  888.00	  669.33	-1586.83	  345.39
    113.7700	  866.00	  691.32	-1630.82	  345.20
    113.8700	  928.00	  718.18	-1595.68	  345.02
    113.9700	  986.00	  751.05	-1570.55	  344.85
    114.0700	 1004.00	  791.29	-1592.79	  344.67
    114.1700	 1035.00	  840.47	-1610.97	  344.50
    114.2700	 1164.00	  900.38	-1541.88	  344.33
    114.3700	 1193.00	  973.01	-1585.51	  344.16
    114.4700	 1247.00	 1060.52	-1619.02	  344.00
    114.5700	 1328.00	 1165.17	-1642.67	  343.84
    114.6700	 1504.00	 1289.31	-1590.81	  343.68
    114.7700	 1631.00	 1435.29	-1609.79	  343.53
    114.8700	 1688.00	 1605.25	-1722.75	  343.38
    114.9700	 1938.00	 1801.08	-1668.58	  343.23
    115.0700	 2179.00	 2024.24	-1650.74	  343.09
    115.1700	 2313.00	 2275.65	-1768.15	  342.94
    115.2700	 2654.00	 2555.55	-1707.05	  342.81
    115.3700	 2865.00	 2863.22	-1803.72	  342.67
    115.4700	 3055.00	 3196.95	-1947.45	  342.54
    115.5700	 3360.00	 3553.90	-1999.40	  342.41
    115.6700	 3793.00	 3930.14	-1942.64	  342.29
    115.7700	 4128.00	 4320.53	-1998.03	  342.16
    115.8700	 4400.00	 4718.58	-2124.08	  342.05
    115.9700	 4883.00	 5116.68	-2039.18	  341.93
    116.0700	 5238.00	 5506.00	-2073.50	  341.82
    116.1700	 5509.00	 5876.87	-2173.37	  341.71
    116.2700	 6051.00	 6218.84	-1973.34	  341.61
    116.3700	 6244.00	 6520.91	-2082.41	  341.51
    116.4700	 6844.00	 6772.30	-1733.80	  341.42
    116.5700	 6886.00	 6963.04	-1882.54	  341.32
    116.6700	 7079.00	 7085.05	-1811.55	  341.24
    116.7700	 7185.00	 7132.86	-1753.36	  341.15
    116.8700	 7222.00	 7104.32	-1687.82	  341.07
    116.9700	 7135.00	 7000.99	-1671.49	  340.99
    117.0700	 7058.00	 6827.92	-1575.42	  340.92
    117.1700	 6640.00	 6592.87	-1758.37	  340.85
    117.2700	 6360.00	 6305.49	-1750.99	  340.79
    117.3700	 6058.00	 5976.50	-1724.00	  340.73
    117.4700	 5536.00	 5616.79	-1886.29	  340.68
    117.5700	 5156.00	 5236.98	-1886.48	  340.62
    117.6700	 4890.00	 4846.78	-1762.28	  340.58
    117.7700	 4632.00	 4454.96	-1628.46	  340.53
    117.8700	 4265.00	 4069.26	-1609.76	  340.50
    117.9700	 3868.00	 3696.15	-1633.65	  340.46
    118.0700	 3494.00	 3340.92	-1652.42	  340.43
    118.1700	 3151.00	 3007.53	-1662.03	  340.41
    118.2700	 2734.00	 2698.76	-1770.26	  340.39
    118.3700	 2427.00	 2416.41	-1794.91	  340.37
    118.4700	 2176.00	 2161.25	-1790.75	  340.36
    118.5700	 1916.00	 1933.25	-1822.75	  340.36
    118.6700	 1599.00	 1731.61	-1938.11	  340.36
    118.7700	 1411.00	 1555.00	-1949.50	  340.36
    118.8700	 1281.00	 1401.74	-1926.24	  340.37
    118.9700	 1114.00	 1269.85	-1961.35	  340.39
    119.0700	 1071.00	 1157.22	-1891.72	  340.40
    119.1700	  955.00	 1061.67	-1912.17	  340.43
    119.2700	  902.00	  981.04	-1884.54	  340.46
    119.3700	  838.00	  913.35	-1880.85	  340.49
    119.4700	  771.00	  856.70	-1891.20	  340.53
    119.5700	  763.00	  809.43	-1851.93	  340.58
    119.6700	  703.00	  770.04	-1872.54	  340.63
    119.7700	  667.00	  737.22	-1875.72	  340.68
    119.8700	  648.00	  709.87	-1867.37	  340.74
    119.9700	  590.00	  687.05	-1902.55	  340.81
    120.0700	  600.00	  667.99	-1873.49	  340.88
    120.1700	  591.00	  652.04	-1866.54	  340.96
    120.2700	  560.00	  638.68	-1884.18	  341.04
    120.3700	  599.00	  627.48	-1833.98	  341.13
    120.4700	  577.00	  618.10	-1846.60	  341.23
    120.5700	  611.00	  610.28	-1804.78	  341.33
    120.6700	  589.00	  603.79	-1820.29	  341.43
    120.7700	  587.00	  598.47	-1816.97	  341.55
    120.8700	  524.00	  594.17	-1875.67	  341.67
    120.9700	  558.00	  590.80	-1838.30	  341.79
    121.0700	  545.00	  588.27	-1848.77	  341.92
    121.1700	  576.00	  586.51	-1816.01	  342.06
    121.2700	  577.00	  585.47	-1813.97	  342.20
    121.3700	  533.00	  585.10	-1857.60	  342.35
    121.4700	  518.00	  585.35	-1872.85	  342.51
    121.5700	  588.00	  586.19	-1803.69	  342.67
    121.6700	  628.00	  587.56	-1765.06	  342.84
    121.7700	  598.00	  589.41	-1796.91	  343.01
    121.8700	  580.00	  591.68	-1817.18	  343.19
    121.9700	  581.00	  594.28	-1818.78	  343.38
    122.0700	  588.00	  597.17	-1814.67	  343.57
    122.1700	  553.00	  600.26	-1852.76	  343.78
    122.2700	  607.00	  603.44	-1801.94	  343.98
    122.3700	  634.00	  606.62	-1778.12	  344.20
    122.4700	  631.00	  609.68	-1784.18	  344.42
    122.5700	  670.00	  612.54	-1748.04	  344.65
    122.6700	  633.00	  615.07	-1787.57	  344.89
    122.7700	  643.00	  617.18	-1779.68	  345.13
    122.8700	  673.00	  618.77	-1751.27	  345.38
    122.9700	  657.00	  619.79	-1768.29	  345.64
    123.0700	  602.00	  620.18	-1823.68	  345.90
    123.1700	  646.00	  619.94	-1779.44	  346.17
    123.2700	  624.00	  619.06	-1800.56	  346.45
    123.3700	  618.00	  617.58	-1805.08	  346.74
    123.4700	  642.00	  615.56	-1779.06	  347.03
    123.5700	  627.00	  613.05	-1791.55	  347.34
    123.6700	  662.00	  610.14	-1753.64	  347.64
    123.7700	  601.00	  606.89	-1811.39	  347.96
    123.8700	  625.00	  603.39	-1783.89	  348.29
    123.9700	  606.00	  599.71	-1799.21	  348.62
    124.0700	  623.00	  595.92	-1778.42	  348.96
    124.1700	  586.00	  592.09	-1811.59	  349.31
    124.2700	  583.00	  588.27	-1810.77	  349.66
    124.3700	  586.00	  584.53	-1804.03	  350.03
    124.4700	  581.00	  580.89	-1805.39	  350.40
    124.5700	  613.00	  577.39	-1769.89	  350.78
    124.6700	  586.00	  574.07	-1793.57	  351.17
    124.7700	  585.00	  570.94	-1791.44	  351.57
    124.8700	  570.00	  568.02	-1803.52	  351.97
    124.9700	  583.00	  465.84	-1688.34	  352.39
    125.0700	  565.00	  466.26	-1805.50	  352.81
    125.1700	  599.00	  466.70	-1805.50	  353.24
    125.2700	  577.00	  467.14	-1805.50	  353.68
    125.3700	  570.00	  467.58	-1805.50	  354.13
    125.4700	  552.00	  468.04	-1805.50	  354.59
    125.5700	  579.00	  468.51	-1805.50	  355.06
    125.6700	  574.00	  468.98	-1805.50	  355.53
    125.7700	  535.00	  469.47	-1805.50	  356.02
    125.8700	  539.00	  469.96	-1805.50	  356.51
    125.9700	  533.00	  470.46	-1805.50	  357.01
    126.0700	  532.00	  470.98	-1805.50	  357.52
    126.1700	  592.00	  471.50	-1805.50	  358.04
    126.2700	  574.00	  472.03	-1805.50	  358.57
    126.3700	  594.00	  472.57	-1805.50	  359.11
    126.4700	  542.00	  473.12	-1805.50	  359.66
    126.5700	  597.00	  473.67	-1805.50	  360.22
    126.6700	  560.00	  474.24	-1805.50	  360.79
    126.7700	  585.00	  474.82	-1805.50	  361.37
    126.8700	  619.00	  475.41	-1805.50	  361.96
    126.9700	  572.00	  476.01	-1805.50	  362.55
    127.0700	  628.00	  476.61	-1805.50	  363.16
    127.1700	  628.00	  477.23	-1805.50	  363.78
    127.2700	  580.00	  477.86	-1805.50	  364.41
    127.3700	  615.00	  478.50	-1805.50	  365.04
    127.4700	  640.00	  479.14	-1805.50	  365.69
    127.5700	  642.00	  479.80	-1805.50	  366.35
    127.6700	  642.00	  480.47	-1805.50	  367.02
    127.7700	  681.00	  481.15	-1805.50	  367.70
    127.8700	  710.00	  481.84	-1805.50	  368.38
    127.9700	  690.00	  482.54	-1805.50	  369.08
    128.0700	  740.00	  483.25	-1805.50	  369.79
    128.1700	  727.00	  483.97	-1805.50	  370.52
    128.2700	  707.00	  484.70	-1805.50	  371.25
    128.3700	  769.00	  485.44	-1805.50	  371.99
    128.4700	  790.00	  486.20	-1805.50	  372.74
    128.5700	    0.00	  486.96	-1805.50	  373.51
    128.6700	    0.00	  487.74	-1805.50	  374.28
     12.3196	        	        	        	        	       0	(  0  0  2)	  0  1
     24.9183	        	        	        	        	       0	(  0  0  4)	  0  1
     28.3496	        	        	        	        	       0	(  1  0  0)	  0  1
     29.0481	        	        	        	        	       0	(  1  0  1)	  0  1
     31.0577	        	        	        	        	       0	(  1  0  2)	  0  1
     34.1712	        	        	        	        	       0	(  1  0  3)	  0  1
     37.8342	        	        	        	        	       0	(  0  0  6)	  0  1
     38.1546	        	        	        	        	       0	(  1  0  4)	  0  1
     42.8121	        	        	        	        	       0	(  1  0  5)	  0  1
     48.0042	        	        	        	        	       0	(  1  0  6)	  0  1
     50.3037	        	        	        	        	       0	(  1  1  0)	  0  1
     51.2744	        	        	        	        	       0	(  0  0  8)	  0  1
     52.0299	        	        	        	        	       0	(  1  1  2)	  0  1
     53.6435	        	        	        	        	       0	(  1  0  7)	  0  1
     56.9868	        	        	        	        	       0	(  1  1  4)	  0  1
     58.8081	        	        	        	        	       0	(  2  0  0)	  0  1
     59.2004	        	        	        	        	       0	(  2  0  1)	  0  1
     59.6837	        	        	        	        	       0	(  1  0  8)	  0  1
     60.3680	        	        	        	        	       0	(  2  0  2)	  0  1
     62.2849	        	        	        	        	       0	(  2  0  3)	  0  1
     64.6956	        	        	        	        	       0	(  1  1  6)	  0  1
     64.9140	        	        	        	        	       0	(  2  0  4)	  0  1
     65.5254	        	        	        	        	       0	(  0  0 10)	  0  1
     66.1108	        	        	        	        	       0	(  1  0  9)	  0  1
     68.2146	        	        	        	        	       0	(  2  0  5)	  0  1
     72.1498	        	        	        	        	       0	(  2  0  6)	  0  1
     72.9391	        	        	        	        	       0	(  1  0 10)	  0  1
     74.7524	        	        	        	        	       0	(  1  1  8)	  0  1
     76.6930	        	        	        	        	       0	(  2  0  7)	  0  1
     80.2108	        	        	        	        	       0	(  1  0 11)	  0  1
     81.0339	        	        	        	        	       0	(  0  0 12)	  0  1
     81.0723	        	        	        	        	       0	(  2  1  0)	  0  1
     81.4129	        	        	        	        	       0	(  2  1  1)	  0  1
     81.8340	        	        	        	        	       0	(  2  0  8)	  0  1
     82.4330	        	        	        	        	       0	(  2  1  2)	  0  1
     84.1281	        	        	        	        	       0	(  2  1  3)	  0  1
     86.4930	        	        	        	        	       0	(  2  1  4)	  0  1
     87.0495	        	        	        	        	       0	(  1  1 10)	  0  1
     87.5847	        	        	        	        	       0	(  2  0  9)	  0  1
     88.0017	        	        	        	        	       0	(  1  0 12)	  0  1
     89.5259	        	        	        	        	       0	(  2  1  5)	  0  1
     93.2322	        	        	        	        	       0	(  2  1  6)	  0  1
     93.9873	        	        	        	        	       0	(  2  0 10)	  0  1
     94.9798	        	        	        	        	       0	(  3  0  0)	  0  1
     95.3180	        	        	        	        	       0	(  3  0  1)	  0  1
     96.3337	        	        	        	        	       0	(  3  0  2)	  0  1
     96.4354	        	        	        	        	       0	(  1  0 13)	  0  1
     97.6319	        	        	        	        	       0	(  2  1  7)	  0  1
     98.0314	        	        	        	        	       0	(  3  0  3)	  0  1
     98.6145	        	        	        	        	       0	(  0  0 14)	  0  1
    100.4207	        	        	        	        	       0	(  3  0  4)	  0  1
    101.1280	        	        	        	        	       0	(  2  0 11)	  0  1
    101.9576	        	        	        	        	       0	(  1  1 12)	  0  1
    102.7682	        	        	        	        	       0	(  2  1  8)	  0  1
    103.5208	        	        	        	        	       0	(  3  0  5)	  0  1
    105.7148	        	        	        	        	       0	(  1  0 14)	  0  1
    107.3671	        	        	        	        	       0	(  3  0  6)	  0  1
    108.7228	        	        	        	        	       0	(  2  1  9)	  0  1
    109.1638	        	        	        	        	       0	(  2  0 12)	  0  1
    112.0220	        	        	        	        	       0	(  3  0  7)	  0  1
    115.6434	        	        	        	        	       0	(  2  1 10)	  0  1
    116.1962	        	        	        	        	       0	(  1  0 15)	  0  1
    116.7471	        	        	        	        	       0	(  2  2  0)	  0  1
    117.5950	        	        	        	        	       0	(  3  0  8)	  0  1
    118.2676	        	        	        	        	       0	(  2  2  2)	  0  1
    118.3825	        	        	        	        	       0	(  2  0 13)	  0  1
    120.1802	        	        	        	        	       0	(  0  0 16)	  0  1
    120.8702	        	        	        	        	       0	(  1  1 14)	  0  1
    122.9711	        	        	        	        	       0	(  2  2  4)	  0  1
    123.8042	        	        	        	        	       0	(  2  1 11)	  0  1
    124.2825	        	        	        	        	       0	(  3  0  9)	  0  1
    124.8354	        	        	        	        	       0	(  3  1  0)	  0  1
    125.2474	        	        	        	        	       0	(  3  1  1)	  0  1
    126.4962	        	        	        	        	       0	(  3  1  2)	  0  1
    128.6025	        	        	        	        	       0	(  1  0 16)	  0  1
    128.6241	        	        	        	        	       0	(  3  1  3)	  0  1
    129.3675	        	        	        	        	       0	(  2  0 14)	  0  1
    131.4503	        	        	        	        	       0	(  2  2  6)	  0  1
    131.7153	        	        	        	        	       0	(  3  1  4)	  0  1
    132.4657	        	        	        	        	       0	(  3  0 10)	  0  1
    133.7718	        	        	        	        	       0	(  2  1 12)	  0  1
    135.9261	        	        	        	        	       0	(  3  1  5)	  0  1
    141.5604	        	        	        	        	       0	(  3  1  6)	  0  1
    143.0238	        	        	        	        	       0	(  3  0 11)	  0  1
    143.6246	        	        	        	        	       0	(  2  0 15)	  0  1
    144.9191	        	        	        	        	       0	(  1  0 17)	  0  1
    145.7882	        	        	        	        	       0	(  2  2  8)	  0  1
    147.0483	        	        	        	        	       0	(  2  1 13)	  0  1
    149.3080	        	        	        	        	       0	(  3  1  7)	  0  1
    150.0615	        	        	        	        	       0	(  1  1 16)	  0  1
    154.6061	        	        	        	        	       0	(  0  0 18)	  0  1
    159.1674	        	        	        	        	       0	(  3  0 12)	  0  1
    159.2748	        	        	        	        	       0	(  4  0  0)	  0  1
    160.2545	        	        	        	        	       0	(  4  0  1)	  0  1
    161.5362	        	        	        	        	       0	(  3  1  8)	  0  1
    163.5278	        	        	        	        	       0	(  4  0  2)	  0  1
    171.2448	        	        	        	        	       0	(  2  0 16)	  0  1
    171.3577	        	        	        	        	       0	(  4  0  3)	  0  1
    177.3696	        	        	        	        	       0	(  2  1 14)	  0  1
