MSG Master    CELL:    5.91186   5.91186  23.24551   90.0000   90.0000  120.0000   SPGR: P 63/m m c             TEMP:    953.15
  1   1280     2.52000     0.00000    -0.13231     0.00000     0.00000    0
    99     0     2
       0.00000      10.00000
     125.00000     130.00000
 2Theta	Yobs	Ycal	Yobs-Ycal	Backg	Posr	(hkl)	K
      0.7700	    0.00	  495.66	-1717.49	  383.27
      0.8700	    0.00	  496.95	-1717.49	  384.56
      0.9700	   48.00	  498.22	-1717.49	  385.83
      1.0700	   36.00	  499.48	-1717.49	  387.09
      1.1700	   30.00	  500.72	-1717.49	  388.33
      1.2700	   41.00	  501.95	-1717.49	  389.56
      1.3700	   40.00	  503.17	-1717.49	  390.78
      1.4700	   89.00	  504.36	-1717.49	  391.97
      1.5700	  305.00	  505.55	-1717.49	  393.16
      1.6700	  471.00	  506.71	-1717.49	  394.33
      1.7700	  594.00	  507.87	-1717.49	  395.48
      1.8700	  665.00	  509.01	-1717.49	  396.62
      1.9700	  699.00	  510.13	-1717.49	  397.74
      2.0700	  726.00	  511.24	-1717.49	  398.85
      2.1700	  801.00	  512.34	-1717.49	  399.95
      2.2700	  793.00	  513.42	-1717.49	  401.03
      2.3700	  738.00	  514.48	-1717.49	  402.09
      2.4700	  662.00	  515.54	-1717.49	  403.15
      2.5700	  703.00	  516.58	-1717.49	  404.19
      2.6700	  698.00	  517.60	-1717.49	  405.21
      2.7700	  621.00	  518.61	-1717.49	  406.22
      2.8700	  617.00	  519.61	-1717.49	  407.22
      2.9700	  644.00	  520.59	-1717.49	  408.20
      3.0700	  582.00	  521.56	-1717.49	  409.17
      3.1700	  612.00	  522.52	-1717.49	  410.13
      3.2700	  604.00	  523.46	-1717.49	  411.07
      3.3700	  758.00	  524.39	-1717.49	  412.00
      3.4700	  839.00	  525.31	-1717.49	  412.92
      3.5700	  888.00	  526.21	-1717.49	  413.82
      3.6700	  948.00	  527.10	-1717.49	  414.71
      3.7700	 1017.00	  527.98	-1717.49	  415.59
      3.8700	 1072.00	  528.84	-1717.49	  416.45
      3.9700	 1110.00	  529.69	-1717.49	  417.30
      4.0700	 1132.00	  530.53	-1717.49	  418.14
      4.1700	 1104.00	  531.36	-1717.49	  418.97
      4.2700	 1166.00	  532.17	-1717.49	  419.78
      4.3700	 1204.00	  532.97	-1717.49	  420.59
      4.4700	 1097.00	  533.76	-1717.49	  421.37
      4.5700	 1149.00	  534.54	-1717.49	  422.15
      4.6700	 1040.00	  535.31	-1717.49	  422.92
      4.7700	 1069.00	  536.06	-1717.49	  423.67
      4.8700	 1005.00	  536.80	-1717.49	  424.41
      4.9700	 1003.00	  537.53	-1717.49	  425.14
      5.0700	  999.00	  538.24	-1717.49	  425.86
      5.1700	  998.00	  538.95	-1717.49	  426.56
      5.2700	  998.00	  539.64	-1717.49	  427.25
      5.3700	  954.00	  540.33	-1717.49	  427.94
      5.4700	  891.00	  541.00	-1717.49	  428.61
      5.5700	  850.00	  541.65	-1717.49	  429.27
      5.6700	  892.00	  542.30	-1717.49	  429.91
      5.7700	  882.00	  542.94	-1717.49	  430.55
      5.8700	  837.00	  543.56	-1717.49	  431.17
      5.9700	  798.00	  544.18	-1717.49	  431.79
      6.0700	  823.00	  544.78	-1717.49	  432.39
      6.1700	  812.00	  545.37	-1717.49	  432.98
      6.2700	  815.00	  545.96	-1717.49	  433.57
      6.3700	  771.00	  546.53	-1717.49	  434.14
      6.4700	  737.00	  547.09	-1717.49	  434.70
      6.5700	  761.00	  547.64	-1717.49	  435.25
      6.6700	  759.00	  548.17	-1717.49	  435.78
      6.7700	  736.00	  548.70	-1717.49	  436.31
      6.8700	  773.00	  549.22	-1717.49	  436.83
      6.9700	  735.00	  549.73	-1717.49	  437.34
      7.0700	  691.00	  550.23	-1717.49	  437.84
      7.1700	  675.00	  550.71	-1717.49	  438.32
      7.2700	  681.00	  551.19	-1717.49	  438.80
      7.3700	  667.00	  551.66	-1717.49	  439.27
      7.4700	  695.00	  552.12	-1717.49	  439.73
      7.5700	  641.00	  552.56	-1717.49	  440.17
      7.6700	  692.00	  553.00	-1717.49	  440.61
      7.7700	  636.00	  553.43	-1717.49	  441.04
      7.8700	  660.00	  553.85	-1717.49	  441.46
      7.9700	  657.00	  554.26	-1717.49	  441.87
      8.0700	  640.00	  554.66	-1717.49	  442.27
      8.1700	  652.00	  555.05	-1717.49	  442.66
      8.2700	  631.00	  555.43	-1717.49	  443.04
      8.3700	  589.00	  555.80	-1717.49	  443.41
      8.4700	  622.00	  556.16	-1717.49	  443.77
      8.5700	  582.00	  556.52	-1717.49	  444.13
      8.6700	  643.00	  556.86	-1717.49	  444.47
      8.7700	  606.00	  557.20	-1717.49	  444.81
      8.8700	  590.00	  557.52	-1717.49	  445.13
      8.9700	  607.00	  557.84	-1717.49	  445.45
      9.0700	  593.00	  558.15	-1717.49	  445.76
      9.1700	  640.00	  558.45	-1717.49	  446.06
      9.2700	  579.00	  558.74	-1717.49	  446.36
      9.3700	  592.00	  559.03	-1717.49	  446.64
      9.4700	  606.00	  559.30	-1717.49	  446.91
      9.5700	  563.00	  559.57	-1717.49	  447.18
      9.6700	  580.00	  559.83	-1717.49	  447.44
      9.7700	  624.00	  560.08	-1717.49	  447.69
      9.8700	  556.00	  560.32	-1717.49	  447.93
      9.9700	  634.00	  560.56	-1717.49	  448.17
     10.0700	  605.00	  562.36	-1674.85	  448.39
     10.1700	  577.00	  562.74	-1703.23	  448.61
     10.2700	  647.00	  563.15	-1633.64	  448.82
     10.3700	  623.00	  563.61	-1658.09	  449.02
     10.4700	  581.00	  564.15	-1700.64	  449.22
     10.5700	  588.00	  564.84	-1694.32	  449.41
     10.6700	  570.00	  565.75	-1713.23	  449.59
     10.7700	  573.00	  566.98	-1711.47	  449.76
     10.8700	  586.00	  568.61	-1700.10	  449.92
     10.9700	  562.00	  570.65	-1726.13	  450.08
     11.0700	  553.00	  573.08	-1737.57	  450.23
     11.1700	  622.00	  575.92	-1671.41	  450.37
     11.2700	  544.00	  579.21	-1752.70	  450.51
     11.3700	  596.00	  583.03	-1704.52	  450.64
     11.4700	  616.00	  587.52	-1689.01	  450.76
     11.5700	  572.00	  592.91	-1738.39	  450.87
     11.6700	  617.00	  599.53	-1700.02	  450.98
     11.7700	  622.00	  607.88	-1703.37	  451.08
     11.8700	  618.00	  618.38	-1717.87	  451.17
     11.9700	  645.00	  630.80	-1703.28	  451.26
     12.0700	  664.00	  643.25	-1696.74	  451.34
     12.1700	  670.00	  651.30	-1698.79	  451.41
     12.2700	  654.00	  648.59	-1712.08	  451.48
     12.3700	  626.00	  632.89	-1724.37	  451.54
     12.4700	  633.00	  612.04	-1696.53	  451.59
     12.5700	  625.00	  594.55	-1687.04	  451.64
     12.6700	  621.00	  582.91	-1679.39	  451.68
     12.7700	  544.00	  576.17	-1749.66	  451.72
     12.8700	  536.00	  572.52	-1754.01	  451.75
     12.9700	  573.00	  570.50	-1714.98	  451.77
     13.0700	  571.00	  569.25	-1715.73	  451.79
     13.1700	  545.00	  568.39	-1740.87	  451.80
     13.2700	  533.00	  567.75	-1752.23	  451.80
     13.3700	  579.00	  567.25	-1705.74	  451.80
     13.4700	  550.00	  566.86	-1734.34	  451.79
     13.5700	  556.00	  566.53	-1728.02	  451.78
     13.6700	  560.00	  566.26	-1723.75	  451.76
     13.7700	  537.00	  566.03	-1746.52	  451.74
     13.8700	  548.00	  565.83	-1735.31	  451.71
     13.9700	  576.00	  565.65	-1707.13	  451.67
     14.0700	  569.00	  565.48	-1713.97	  451.63
     14.1700	  546.00	  565.33	-1736.82	  451.59
     14.2700	  570.00	  565.19	-1712.67	  451.53
     14.3700	  547.00	  565.05	-1735.54	  451.48
     14.4700	  542.00	  564.95	-1740.44	  451.42
     14.5700	  595.00	  564.82	-1687.31	  451.35
     14.6700	  539.00	  564.70	-1743.18	  451.28
     14.7700	  540.00	  564.57	-1742.06	  451.20
     14.8700	  553.00	  564.45	-1728.93	  451.12
     14.9700	  527.00	  564.32	-1754.81	  451.03
     15.0700	  536.00	  564.20	-1745.68	  450.94
     15.1700	  562.00	  564.07	-1719.55	  450.84
     15.2700	  535.00	  563.94	-1746.42	  450.74
     15.3700	  560.00	  563.81	-1721.29	  450.63
     15.4700	  566.00	  563.67	-1715.16	  450.52
     15.5700	  558.00	  563.53	-1723.02	  450.40
     15.6700	  548.00	  563.40	-1732.88	  450.28
     15.7700	  523.00	  563.25	-1757.74	  450.16
     15.8700	  590.00	  563.11	-1690.59	  450.03
     15.9700	  526.00	  562.96	-1754.44	  449.89
     16.0700	  609.00	  562.81	-1671.29	  449.75
     16.1700	  578.00	  562.65	-1702.14	  449.61
     16.2700	  529.00	  562.49	-1750.98	  449.46
     16.3700	  539.00	  562.33	-1740.82	  449.31
     16.4700	  526.00	  562.17	-1753.65	  449.16
     16.5700	  503.00	  562.00	-1776.49	  449.00
     16.6700	  536.00	  561.83	-1743.31	  448.83
     16.7700	  539.00	  561.65	-1740.14	  448.67
     16.8700	  558.00	  561.47	-1720.96	  448.49
     16.9700	  534.00	  561.29	-1744.78	  448.32
     17.0700	  547.00	  561.11	-1731.59	  448.14
     17.1700	  542.00	  560.92	-1736.41	  447.95
     17.2700	  528.00	  560.73	-1750.21	  447.77
     17.3700	  534.00	  560.53	-1744.02	  447.58
     17.4700	  560.00	  560.33	-1717.82	  447.38
     17.5700	  575.00	  560.13	-1702.62	  447.18
     17.6700	  545.00	  559.93	-1732.41	  446.98
     17.7700	  579.00	  559.83	-1698.32	  446.78
     17.8700	  568.00	  559.62	-1709.11	  446.57
     17.9700	  547.00	  559.41	-1729.90	  446.36
     18.0700	  558.00	  559.19	-1718.68	  446.14
     18.1700	  511.00	  558.98	-1765.46	  445.92
     18.2700	  562.00	  558.76	-1714.24	  445.70
     18.3700	  562.00	  558.62	-1714.11	  445.47
     18.4700	  566.00	  558.40	-1709.88	  445.25
     18.5700	  541.00	  558.17	-1734.66	  445.01
     18.6700	  558.00	  557.94	-1717.43	  444.78
     18.7700	  542.00	  557.71	-1733.19	  444.54
     18.8700	  515.00	  557.47	-1759.96	  444.30
     18.9700	  576.00	  557.23	-1698.72	  444.06
     19.0700	  539.00	  556.99	-1735.48	  443.81
     19.1700	  533.00	  556.75	-1741.24	  443.56
     19.2700	  567.00	  556.51	-1706.99	  443.31
     19.3700	  558.00	  556.26	-1715.74	  443.05
     19.4700	  538.00	  556.01	-1735.49	  442.79
     19.5700	  541.00	  555.76	-1732.24	  442.53
     19.6700	  549.00	  555.50	-1723.99	  442.27
     19.7700	  582.00	  555.25	-1690.73	  442.00
     19.8700	  551.00	  554.99	-1721.47	  441.73
     19.9700	  538.00	  554.73	-1734.21	  441.46
     20.0700	  551.00	  554.50	-1720.99	  441.19
     20.1700	  571.00	  554.24	-1700.72	  440.91
     20.2700	  571.00	  553.97	-1700.46	  440.63
     20.3700	  572.00	  553.71	-1699.19	  440.35
     20.4700	  561.00	  553.44	-1709.93	  440.07
     20.5700	  589.00	  553.17	-1681.66	  439.78
     20.6700	  558.00	  552.90	-1712.39	  439.50
     20.7700	  582.00	  552.63	-1688.12	  439.20
     20.8700	  571.00	  552.36	-1698.84	  438.91
     20.9700	  550.00	  552.09	-1719.57	  438.62
     21.0700	  562.00	  551.81	-1707.30	  438.32
     21.1700	  573.00	  551.54	-1696.02	  438.02
     21.2700	  552.00	  551.26	-1716.75	  437.72
     21.3700	  563.00	  550.99	-1705.48	  437.42
     21.4700	  505.00	  550.72	-1763.20	  437.12
     21.5700	  542.00	  550.44	-1725.93	  436.81
     21.6700	  550.00	  550.17	-1717.65	  436.50
     21.7700	  554.00	  549.90	-1713.38	  436.19
     21.8700	  531.00	  549.63	-1736.11	  435.88
     21.9700	  566.00	  549.36	-1700.84	  435.57
     22.0700	  557.00	  549.09	-1709.58	  435.25
     22.1700	  577.00	  548.83	-1689.31	  434.93
     22.2700	  552.00	  548.57	-1714.05	  434.62
     22.3700	  561.00	  548.27	-1704.75	  434.30
     22.4700	  539.00	  548.02	-1726.50	  433.97
     22.5700	  564.00	  547.77	-1701.26	  433.65
     22.6700	  517.00	  547.69	-1748.18	  433.33
     22.7700	  519.00	  547.47	-1745.95	  433.00
     22.8700	  540.00	  547.26	-1724.74	  432.67
     22.9700	  530.00	  547.06	-1734.55	  432.34
     23.0700	  530.00	  546.88	-1734.37	  432.01
     23.1700	  547.00	  546.73	-1717.21	  431.68
     23.2700	  557.00	  546.61	-1707.09	  431.35
     23.3700	  526.00	  546.52	-1738.01	  431.02
     23.4700	  570.00	  546.49	-1693.97	  430.68
     23.5700	  524.00	  546.53	-1740.01	  430.35
     23.6700	  567.00	  546.67	-1697.15	  430.01
     23.7700	  541.00	  546.97	-1723.45	  429.67
     23.8700	  536.00	  547.55	-1729.03	  429.33
     23.9700	  538.00	  548.60	-1728.09	  428.99
     24.0700	  525.00	  550.49	-1742.98	  428.65
     24.1700	  568.00	  553.73	-1703.22	  428.31
     24.2700	  565.00	  558.99	-1711.48	  427.96
     24.3700	  553.00	  566.92	-1731.41	  427.62
     24.4700	  563.00	  577.92	-1732.40	  427.27
     24.5700	  573.00	  591.58	-1736.06	  426.93
     24.6700	  595.00	  605.85	-1728.34	  426.58
     24.7700	  616.00	  616.27	-1717.75	  426.23
     24.8700	  619.00	  616.57	-1715.06	  425.88
     24.9700	  627.00	  604.27	-1694.76	  425.53
     25.0700	  620.00	  585.96	-1683.45	  425.19
     25.1700	  633.00	  569.53	-1654.02	  424.83
     25.2700	  573.00	  557.93	-1702.42	  424.48
     25.3700	  546.00	  550.85	-1722.34	  424.13
     25.4700	  553.00	  546.87	-1711.35	  423.78
     25.5700	  569.00	  544.61	-1693.10	  423.43
     25.6700	  570.00	  543.23	-1690.71	  423.07
     25.7700	  582.00	  542.28	-1677.77	  422.72
     25.8700	  583.00	  541.58	-1676.07	  422.37
     25.9700	  571.00	  541.06	-1687.55	  422.01
     26.0700	  617.00	  540.67	-1641.15	  421.66
     26.1700	  603.00	  540.39	-1654.87	  421.30
     26.2700	  565.00	  540.21	-1692.69	  420.95
     26.3700	  585.00	  540.13	-1672.61	  420.59
     26.4700	  546.00	  540.15	-1711.63	  420.24
     26.5700	  524.00	  540.28	-1733.76	  419.88
     26.6700	  489.00	  540.54	-1769.02	  419.52
     26.7700	  547.00	  540.95	-1711.43	  419.17
     26.8700	  542.00	  541.54	-1717.03	  418.81
     26.9700	  573.00	  542.37	-1686.86	  418.45
     27.0700	  579.00	  543.52	-1682.00	  418.10
     27.1700	  538.00	  545.10	-1724.58	  417.74
     27.2700	  571.00	  547.35	-1693.84	  417.38
     27.3700	  575.00	  550.72	-1693.20	  417.02
     27.4700	  598.00	  556.07	-1675.55	  416.67
     27.5700	  588.00	  564.95	-1694.43	  416.31
     27.6700	  591.00	  579.85	-1706.34	  415.95
     27.7700	  561.00	  604.15	-1760.63	  415.60
     27.8700	  615.00	  641.06	-1743.54	  415.24
     27.9700	  647.00	  691.52	-1762.01	  414.88
     28.0700	  780.00	  751.32	-1688.81	  414.53
     28.1700	  837.00	  808.33	-1688.81	  414.17
     28.2700	  928.00	  842.05	-1631.53	  413.81
     28.3700	  907.00	  834.15	-1644.64	  413.46
     28.4700	  834.00	  794.75	-1678.23	  413.10
     28.5700	  743.00	  757.91	-1732.39	  412.75
     28.6700	  708.00	  745.44	-1754.92	  412.39
     28.7700	  749.00	  758.17	-1726.66	  412.04
     28.8700	  781.00	  781.78	-1718.27	  411.68
     28.9700	  849.00	  792.57	-1661.06	  411.33
     29.0700	  790.00	  769.51	-1696.99	  410.98
     29.1700	  728.00	  716.52	-1706.01	  410.62
     29.2700	  665.00	  658.25	-1710.73	  410.27
     29.3700	  565.00	  611.56	-1764.04	  409.92
     29.4700	  577.00	  580.31	-1720.80	  409.57
     29.5700	  583.00	  561.75	-1696.23	  409.21
     29.6700	  568.00	  551.35	-1700.83	  408.86
     29.7700	  599.00	  545.46	-1663.94	  408.51
     29.8700	  617.00	  541.85	-1642.33	  408.16
     29.9700	  589.00	  539.55	-1668.03	  407.81
     30.0700	  541.00	  538.21	-1714.70	  407.47
     30.1700	  617.00	  537.85	-1638.34	  407.12
     30.2700	  558.00	  538.82	-1698.31	  406.77
     30.3700	  561.00	  541.81	-1698.29	  406.42
     30.4700	  645.00	  547.89	-1620.38	  406.08
     30.5700	  594.00	  558.20	-1681.69	  405.73
     30.6700	  570.00	  573.13	-1720.62	  405.39
     30.7700	  594.00	  591.25	-1714.74	  405.05
     30.8700	  591.00	  608.45	-1734.94	  404.70
     30.9700	  584.00	  617.84	-1751.32	  404.36
     31.0700	  593.00	  612.77	-1737.25	  404.02
     31.1700	  590.00	  594.61	-1722.10	  403.68
     31.2700	  594.00	  572.71	-1696.20	  403.34
     31.3700	  594.00	  554.27	-1677.76	  403.00
     31.4700	  558.00	  541.46	-1700.95	  402.66
     31.5700	  518.00	  533.64	-1733.12	  402.33
     31.6700	  552.00	  529.19	-1694.68	  401.99
     31.7700	  518.00	  526.67	-1726.16	  401.66
     31.8700	  545.00	  525.15	-1697.64	  401.32
     31.9700	  551.00	  524.15	-1690.64	  400.99
     32.0700	  526.00	  523.47	-1714.96	  400.66
     32.1700	  493.00	  523.03	-1747.51	  400.33
     32.2700	  538.00	  522.79	-1702.27	  400.00
     32.3700	  548.00	  522.73	-1692.22	  399.67
     32.4700	  529.00	  522.87	-1711.36	  399.34
     32.5700	  542.00	  523.22	-1698.71	  399.01
     32.6700	  539.00	  523.82	-1702.31	  398.69
     32.7700	  511.00	  524.72	-1731.20	  398.36
     32.8700	  508.00	  526.00	-1735.48	  398.04
     32.9700	  530.00	  527.79	-1715.28	  397.72
     33.0700	  562.00	  530.35	-1685.84	  397.39
     33.1700	  559.00	  534.17	-1692.65	  397.07
     33.2700	  521.00	  540.22	-1736.71	  396.76
     33.3700	  562.00	  550.49	-1705.98	  396.44
     33.4700	  541.00	  568.42	-1744.91	  396.12
     33.5700	  651.00	  599.16	-1665.64	  395.81
     33.6700	  581.00	  648.45	-1784.94	  395.49
     33.7700	  748.00	  719.20	-1688.68	  395.18
     33.8700	  852.00	  806.21	-1671.70	  394.87
     33.9700	  902.00	  891.78	-1707.27	  394.56
     34.0700	 1030.00	  945.65	-1633.14	  394.25
     34.1700	 1044.00	  936.72	-1610.21	  393.94
     34.2700	  887.00	  864.85	-1695.33	  393.63
     34.3700	  757.00	  767.65	-1728.13	  393.33
     34.4700	  676.00	  679.98	-1721.47	  393.03
     34.5700	  581.00	  615.75	-1752.23	  392.72
     34.6700	  590.00	  574.79	-1702.27	  392.42
     34.7700	  546.00	  551.01	-1722.49	  392.12
     34.8700	  518.00	  537.63	-1737.12	  391.83
     34.9700	  521.00	  529.76	-1726.25	  391.53
     35.0700	  525.00	  524.64	-1717.13	  391.23
     35.1700	  505.00	  520.96	-1733.45	  390.94
     35.2700	  539.00	  518.12	-1696.61	  390.65
     35.3700	  497.00	  515.81	-1736.30	  390.36
     35.4700	  493.00	  513.94	-1738.42	  390.07
     35.5700	  519.00	  512.37	-1710.85	  389.78
     35.6700	  495.00	  511.03	-1733.51	  389.49
     35.7700	  480.00	  510.34	-1747.83	  389.21
     35.8700	  506.00	  509.34	-1720.82	  388.93
     35.9700	  508.00	  508.45	-1717.94	  388.64
     36.0700	  503.00	  507.66	-1722.15	  388.36
     36.1700	  507.00	  506.95	-1717.44	  388.09
     36.2700	  512.00	  506.32	-1711.80	  387.81
     36.3700	  470.00	  505.75	-1753.24	  387.53
     36.4700	  521.00	  505.24	-1701.72	  387.26
     36.5700	  496.00	  504.77	-1726.26	  386.99
     36.6700	  458.00	  504.37	-1763.85	  386.72
     36.7700	  497.00	  504.03	-1724.51	  386.45
     36.8700	  516.00	  503.77	-1705.26	  386.18
     36.9700	  528.00	  503.67	-1693.15	  385.91
     37.0700	  491.00	  503.80	-1730.29	  385.65
     37.1700	  503.00	  504.34	-1718.83	  385.39
     37.2700	  500.00	  505.49	-1722.97	  385.13
     37.3700	  521.00	  507.41	-1703.90	  384.87
     37.4700	  480.00	  510.09	-1747.58	  384.61
     37.5700	  473.00	  513.10	-1757.59	  384.35
     37.6700	  500.00	  515.58	-1733.07	  384.10
     37.7700	  547.00	  516.34	-1686.83	  383.85
     37.8700	  529.00	  514.73	-1703.22	  383.60
     37.9700	  542.00	  511.43	-1686.92	  383.35
     38.0700	  465.00	  507.77	-1760.26	  383.10
     38.1700	  469.00	  504.75	-1753.24	  382.85
     38.2700	  485.00	  502.31	-1734.80	  382.61
     38.3700	  490.00	  500.60	-1728.08	  382.37
     38.4700	  473.00	  499.45	-1743.93	  382.13
     38.5700	  532.00	  498.66	-1684.15	  381.89
     38.6700	  514.00	  498.09	-1701.57	  381.65
     38.7700	  503.00	  497.64	-1712.13	  381.42
     38.8700	  497.00	  497.26	-1717.75	  381.18
     38.9700	  511.00	  496.82	-1703.31	  380.95
     39.0700	  477.00	  496.52	-1737.01	  380.72
     39.1700	  485.00	  496.24	-1728.73	  380.50
     39.2700	  489.00	  495.98	-1724.47	  380.27
     39.3700	  477.00	  495.74	-1736.22	  380.04
     39.4700	  493.00	  495.50	-1719.99	  379.82
     39.5700	  475.00	  495.28	-1737.77	  379.60
     39.6700	  487.00	  495.08	-1725.56	  379.38
     39.7700	  507.00	  494.79	-1705.28	  379.17
     39.8700	  527.00	  494.61	-1685.09	  378.95
     39.9700	  476.00	  494.43	-1735.92	  378.74
     40.0700	  496.00	  494.27	-1715.76	  378.53
     40.1700	  504.00	  494.12	-1707.61	  378.32
     40.2700	  490.00	  493.99	-1721.47	  378.11
     40.3700	  486.00	  493.87	-1725.35	  377.90
     40.4700	  456.00	  493.76	-1755.24	  377.70
     40.5700	  473.00	  493.67	-1738.15	  377.50
     40.6700	  466.00	  494.10	-1745.58	  377.30
     40.7700	  483.00	  494.06	-1728.54	  377.10
     40.8700	  511.00	  494.04	-1700.53	  376.90
     40.9700	  501.00	  494.06	-1710.54	  376.71
     41.0700	  462.00	  494.11	-1749.59	  376.51
     41.1700	  487.00	  494.21	-1724.69	  376.32
     41.2700	  530.00	  494.36	-1681.85	  376.13
     41.3700	  498.00	  494.59	-1714.08	  375.95
     41.4700	  485.00	  494.91	-1727.40	  375.76
     41.5700	  524.00	  495.36	-1688.84	  375.58
     41.6700	  505.00	  495.99	-1708.48	  375.40
     41.7700	  482.00	  496.94	-1732.43	  375.22
     41.8700	  492.00	  498.46	-1723.94	  375.04
     41.9700	  495.00	  501.02	-1723.51	  374.86
     42.0700	  466.00	  505.50	-1756.98	  374.69
     42.1700	  508.00	  513.06	-1722.55	  374.52
     42.2700	  541.00	  525.10	-1701.59	  374.35
     42.3700	  544.00	  542.58	-1716.07	  374.18
     42.4700	  575.00	  564.71	-1707.20	  374.01
     42.5700	  561.00	  588.41	-1744.89	  373.85
     42.6700	  560.00	  607.25	-1764.73	  373.69
     42.7700	  559.00	  613.49	-1771.98	  373.53
     42.8700	  567.00	  603.40	-1753.89	  373.37
     42.9700	  580.00	  581.81	-1719.29	  373.21
     43.0700	  528.00	  557.31	-1746.80	  373.06
     43.1700	  507.00	  536.05	-1746.53	  372.90
     43.2700	  489.00	  519.95	-1748.44	  372.75
     43.3700	  500.00	  509.21	-1726.69	  372.60
     43.4700	  456.00	  502.62	-1764.11	  372.46
     43.5700	  479.00	  498.77	-1737.26	  372.31
     43.6700	  499.00	  496.50	-1714.99	  372.17
     43.7700	  482.00	  495.07	-1730.56	  372.03
     43.8700	  491.00	  494.09	-1720.58	  371.89
     43.9700	  479.00	  493.37	-1731.85	  371.75
     44.0700	  540.00	  492.81	-1670.29	  371.62
     44.1700	  488.00	  492.36	-1721.85	  371.48
     44.2700	  503.00	  492.05	-1706.54	  371.35
     44.3700	  456.00	  491.77	-1753.25	  371.22
     44.4700	  520.00	  491.54	-1689.02	  371.10
     44.5700	  496.00	  491.56	-1713.05	  370.97
     44.6700	  520.00	  491.43	-1688.91	  370.85
     44.7700	  517.00	  491.33	-1691.82	  370.72
     44.8700	  461.00	  491.27	-1747.75	  370.60
     44.9700	  515.00	  491.23	-1693.72	  370.49
     45.0700	  495.00	  491.23	-1713.71	  370.37
     45.1700	  487.00	  491.25	-1721.73	  370.26
     45.2700	  500.00	  491.30	-1708.78	  370.14
     45.3700	  506.00	  491.37	-1702.86	  370.03
     45.4700	  500.00	  491.48	-1708.96	  369.93
     45.5700	  452.00	  491.61	-1757.09	  369.82
     45.6700	  471.00	  491.62	-1738.11	  369.71
     45.7700	  476.00	  491.82	-1733.31	  369.61
     45.8700	  550.00	  492.05	-1659.54	  369.51
     45.9700	  467.00	  492.32	-1742.80	  369.41
     46.0700	  478.00	  492.63	-1732.11	  369.32
     46.1700	  505.00	  493.05	-1705.53	  369.22
     46.2700	  485.00	  493.46	-1725.95	  369.13
     46.3700	  536.00	  493.96	-1675.45	  369.04
     46.4700	  530.00	  494.51	-1681.99	  368.95
     46.5700	  519.00	  495.14	-1693.63	  368.86
     46.6700	  510.00	  495.89	-1703.38	  368.77
     46.7700	  507.00	  496.78	-1707.26	  368.69
     46.8700	  507.00	  497.88	-1708.36	  368.61
     46.9700	  506.00	  499.32	-1710.81	  368.53
     47.0700	  524.00	  501.35	-1694.84	  368.45
     47.1700	  519.00	  504.41	-1702.90	  368.38
     47.2700	  517.00	  509.17	-1709.65	  368.30
     47.3700	  551.00	  516.45	-1682.94	  368.23
     47.4700	  493.00	  527.05	-1751.54	  368.16
     47.5700	  537.00	  541.27	-1721.76	  368.09
     47.6700	  562.00	  558.36	-1713.84	  368.02
     47.7700	  566.00	  575.93	-1727.42	  367.96
     47.8700	  553.00	  589.83	-1754.32	  367.89
     47.9700	  590.00	  595.28	-1722.76	  367.83
     48.0700	  631.00	  590.30	-1676.78	  367.77
     48.1700	  585.00	  577.90	-1710.39	  367.72
     48.2700	  564.00	  563.29	-1716.78	  367.66
     48.3700	  529.00	  550.37	-1738.86	  367.61
     48.4700	  558.00	  541.06	-1700.54	  367.55
     48.5700	  544.00	  536.21	-1709.70	  367.50
     48.6700	  495.00	  534.67	-1757.15	  367.45
     48.7700	  509.00	  536.12	-1744.60	  367.41
     48.8700	  535.00	  539.98	-1722.46	  367.36
     48.9700	  496.00	  546.02	-1767.50	  367.32
     49.0700	  518.00	  554.48	-1753.97	  367.28
     49.1700	  540.00	  566.39	-1743.88	  367.24
     49.2700	  568.00	  584.03	-1733.52	  367.20
     49.3700	  553.00	  611.94	-1776.43	  367.17
     49.4700	  611.00	  658.08	-1764.57	  367.13
     49.5700	  702.00	  734.63	-1750.12	  367.10
     49.6700	  790.00	  857.10	-1784.59	  367.07
     49.7700	  938.00	 1040.27	-1819.76	  367.04
     49.8700	 1257.00	 1290.80	-1751.28	  367.01
     49.9700	 1583.00	 1597.46	-1731.94	  366.99
     50.0700	 1938.00	 1921.22	-1700.70	  366.96
     50.1700	 2281.00	 2190.20	-1626.69	  366.94
     50.2700	 2389.00	 2313.99	-1642.47	  366.92
     50.3700	 2272.00	 2237.73	-1683.22	  366.90
     50.4700	 1999.00	 1994.71	-1713.20	  366.88
     50.5700	 1673.00	 1676.54	-1721.02	  366.87
     50.6700	 1294.00	 1364.82	-1788.31	  366.85
     50.7700	 1026.00	 1106.17	-1797.66	  366.84
     50.8700	  808.00	  916.61	-1826.09	  366.83
     50.9700	  713.00	  791.51	-1795.99	  366.82
     51.0700	  660.00	  715.32	-1772.80	  366.82
     51.1700	  632.00	  670.06	-1755.54	  366.81
     51.2700	  597.00	  640.11	-1760.60	  366.81
     51.3700	  631.00	  616.85	-1703.33	  366.81
     51.4700	  588.00	  597.02	-1726.51	  366.81
     51.5700	  562.00	  580.18	-1735.67	  366.81
     51.6700	  587.00	  566.51	-1696.99	  366.81
     51.7700	  541.00	  556.02	-1732.50	  366.81
     51.8700	  531.00	  548.47	-1734.96	  366.82
     51.9700	  554.00	  543.42	-1706.90	  366.83
     52.0700	  513.00	  540.35	-1744.84	  366.84
     52.1700	  564.00	  538.89	-1692.37	  366.85
     52.2700	  541.00	  538.80	-1715.28	  366.86
     52.3700	  595.00	  540.13	-1662.61	  366.88
     52.4700	  545.00	  543.25	-1715.73	  366.89
     52.5700	  592.00	  549.09	-1674.58	  366.91
     52.6700	  603.00	  559.41	-1673.90	  366.93
     52.7700	  600.00	  577.15	-1694.63	  366.95
     52.8700	  655.00	  606.54	-1669.02	  366.97
     52.9700	  717.00	  652.60	-1653.09	  366.99
     53.0700	  768.00	  719.82	-1669.30	  367.02
     53.1700	  832.00	  809.80	-1695.28	  367.04
     53.2700	  962.00	  918.55	-1674.04	  367.07
     53.3700	 1039.00	 1033.75	-1712.23	  367.10
     53.4700	 1123.00	 1132.97	-1727.46	  367.13
     53.5700	 1160.00	 1187.09	-1744.58	  367.16
     53.6700	 1128.00	 1174.98	-1764.47	  367.20
     53.7700	 1056.00	 1101.35	-1762.83	  367.23
     53.8700	 1013.00	  992.94	-1697.43	  367.27
     53.9700	  856.00	  878.14	-1739.62	  367.31
     54.0700	  784.00	  775.76	-1709.24	  367.35
     54.1700	  661.00	  694.62	-1751.10	  367.39
     54.2700	  625.00	  636.28	-1728.77	  367.43
     54.3700	  553.00	  597.72	-1762.20	  367.47
     54.4700	  611.00	  573.97	-1680.45	  367.52
     54.5700	  579.00	  560.15	-1698.63	  367.56
     54.6700	  596.00	  552.46	-1673.95	  367.61
     54.7700	  572.00	  548.44	-1693.93	  367.66
     54.8700	  586.00	  546.65	-1678.13	  367.71
     54.9700	  543.00	  546.35	-1720.83	  367.76
     55.0700	  564.00	  547.21	-1700.69	  367.82
     55.1700	  540.00	  549.11	-1726.59	  367.87
     55.2700	  589.00	  552.05	-1680.54	  367.93
     55.3700	  589.00	  556.12	-1684.60	  367.98
     55.4700	  561.00	  561.51	-1717.99	  368.04
     55.5700	  571.00	  568.58	-1715.06	  368.10
     55.6700	  605.00	  578.02	-1690.50	  368.16
     55.7700	  602.00	  591.16	-1706.64	  368.23
     55.8700	  588.00	  610.49	-1739.97	  368.29
     55.9700	  620.00	  640.58	-1738.06	  368.35
     56.0700	  629.00	  688.76	-1777.25	  368.42
     56.1700	  750.00	  765.70	-1733.18	  368.49
     56.2700	  824.00	  884.64	-1778.13	  368.56
     56.3700	 1022.00	 1058.65	-1754.14	  368.63
     56.4700	 1185.00	 1295.67	-1828.16	  368.70
     56.5700	 1521.00	 1592.10	-1788.58	  368.77
     56.6700	 1860.00	 1926.07	-1783.56	  368.84
     56.7700	 2239.00	 2252.25	-1730.73	  368.92
     56.8700	 2433.00	 2500.98	-1785.46	  368.99
     56.9700	 2587.00	 2596.86	-1727.34	  369.07
     57.0700	 2469.00	 2503.99	-1752.47	  369.15
     57.1700	 2261.00	 2257.07	-1713.55	  369.22
     57.2700	 1967.00	 1932.44	-1682.92	  369.30
     57.3700	 1553.00	 1600.68	-1765.17	  369.39
     57.4700	 1268.00	 1307.34	-1756.83	  369.47
     57.5700	 1020.00	 1074.20	-1771.69	  369.55
     57.6700	  852.00	  905.14	-1770.63	  369.63
     57.7700	  760.00	  792.61	-1750.09	  369.72
     57.8700	  773.00	  724.38	-1668.87	  369.81
     57.9700	  653.00	  688.53	-1753.02	  369.89
     58.0700	  697.00	  676.26	-1696.75	  369.98
     58.1700	  711.00	  682.52	-1689.01	  370.07
     58.2700	  796.00	  705.19	-1626.68	  370.16
     58.3700	  761.00	  743.71	-1700.19	  370.25
     58.4700	  818.00	  797.48	-1696.97	  370.35
     58.5700	  895.00	  864.39	-1686.88	  370.44
     58.6700	  968.00	  939.48	-1688.97	  370.53
     58.7700	 1123.00	 1014.95	-1609.43	  370.63
     58.8700	 1169.00	 1082.84	-1631.33	  370.73
     58.9700	 1215.00	 1138.31	-1640.80	  370.82
     59.0700	 1355.00	 1178.10	-1540.59	  370.92
     59.1700	 1412.00	 1197.63	-1503.11	  371.02
     59.2700	 1328.00	 1194.36	-1583.84	  371.12
     59.3700	 1308.00	 1173.97	-1583.46	  371.22
     59.4700	 1259.00	 1148.31	-1606.79	  371.32
     59.5700	 1222.00	 1128.07	-1623.55	  371.42
     59.6700	 1168.00	 1120.40	-1669.89	  371.53
     59.7700	 1137.00	 1131.70	-1712.19	  371.63
     59.8700	 1243.00	 1168.35	-1642.84	  371.74
     59.9700	 1283.00	 1232.44	-1666.93	  371.84
     60.0700	 1290.00	 1317.06	-1744.55	  371.95
     60.1700	 1568.00	 1404.53	-1554.02	  372.06
     60.2700	 1559.00	 1467.66	-1626.14	  372.16
     60.3700	 1513.00	 1478.15	-1682.64	  372.27
     60.4700	 1478.00	 1423.00	-1662.49	  372.38
     60.5700	 1378.00	 1313.96	-1653.44	  372.49
     60.6700	 1269.00	 1177.31	-1625.79	  372.60
     60.7700	 1077.00	 1038.20	-1678.69	  372.71
     60.8700	  867.00	  913.91	-1764.40	  372.83
     60.9700	  774.00	  813.82	-1757.31	  372.94
     61.0700	  758.00	  741.17	-1700.65	  373.05
     61.1700	  681.00	  695.20	-1731.69	  373.17
     61.2700	  672.00	  673.67	-1719.16	  373.28
     61.3700	  649.00	  674.83	-1743.31	  373.40
     61.4700	  693.00	  698.51	-1722.99	  373.52
     61.5700	  713.00	  746.12	-1750.61	  373.63
     61.6700	  829.00	  819.35	-1707.83	  373.75
     61.7700	  884.00	  918.19	-1751.67	  373.87
     61.8700	  955.00	 1038.74	-1801.22	  373.99
     61.9700	 1122.00	 1171.12	-1766.61	  374.11
     62.0700	 1227.00	 1298.10	-1788.59	  374.23
     62.1700	 1301.00	 1395.26	-1811.74	  374.35
     62.2700	 1318.00	 1436.78	-1836.26	  374.47
     62.3700	 1323.00	 1408.81	-1803.30	  374.59
     62.4700	 1281.00	 1319.89	-1756.37	  374.71
     62.5700	 1166.00	 1194.38	-1745.86	  374.83
     62.6700	 1004.00	 1057.89	-1771.37	  374.96
     62.7700	  875.00	  929.37	-1771.85	  375.08
     62.8700	  752.00	  819.97	-1785.45	  375.20
     62.9700	  718.00	  734.24	-1733.73	  375.33
     63.0700	  651.00	  671.79	-1738.27	  375.45
     63.1700	  612.00	  629.18	-1734.67	  375.58
     63.2700	  563.00	  601.86	-1756.35	  375.70
     63.3700	  549.00	  585.50	-1753.99	  375.83
     63.4700	  596.00	  576.85	-1698.34	  375.96
     63.5700	  597.00	  573.92	-1694.41	  376.08
     63.6700	  547.00	  576.05	-1746.54	  376.21
     63.7700	  617.00	  583.68	-1684.17	  376.34
     63.8700	  622.00	  597.98	-1693.47	  376.47
     63.9700	  612.00	  620.59	-1726.07	  376.59
     64.0700	  624.00	  653.00	-1746.49	  376.72
     64.1700	  767.00	  695.97	-1646.45	  376.85
     64.2700	  813.00	  748.75	-1653.24	  376.98
     64.3700	  880.00	  808.49	-1645.98	  377.11
     64.4700	  885.00	  869.42	-1701.90	  377.24
     64.5700	  991.00	  923.12	-1649.60	  377.37
     64.6700	 1011.00	  959.87	-1666.36	  377.50
     64.7700	 1035.00	  972.42	-1654.91	  377.63
     64.8700	 1045.00	  958.95	-1631.44	  377.76
     64.9700	  941.00	  924.79	-1701.27	  377.89
     65.0700	  934.00	  877.21	-1660.69	  378.02
     65.1700	  874.00	  824.64	-1668.13	  378.15
     65.2700	  774.00	  773.84	-1717.32	  378.28
     65.3700	  698.00	  728.64	-1748.12	  378.41
     65.4700	  659.00	  690.36	-1748.85	  378.54
     65.5700	  685.00	  658.45	-1690.94	  378.68
     65.6700	  611.00	  632.42	-1738.91	  378.81
     65.7700	  585.00	  611.69	-1744.18	  378.94
     65.8700	  593.00	  595.70	-1720.19	  379.07
     65.9700	  562.00	  583.84	-1739.32	  379.20
     66.0700	  556.00	  575.49	-1736.98	  379.34
     66.1700	  580.00	  570.15	-1707.64	  379.47
     66.2700	  520.00	  567.36	-1764.84	  379.60
     66.3700	  564.00	  566.78	-1720.27	  379.73
     66.4700	  510.00	  568.17	-1775.65	  379.86
     66.5700	  535.00	  571.44	-1753.92	  380.00
     66.6700	  567.00	  576.89	-1727.38	  380.13
     66.7700	  610.00	  584.90	-1692.39	  380.26
     66.8700	  578.00	  596.95	-1736.43	  380.39
     66.9700	  617.00	  614.89	-1715.37	  380.52
     67.0700	  656.00	  642.28	-1703.77	  380.66
     67.1700	  689.00	  684.08	-1712.56	  380.79
     67.2700	  698.00	  746.74	-1766.23	  380.92
     67.3700	  837.00	  837.70	-1718.19	  381.05
     67.4700	 1011.00	  964.09	-1670.57	  381.18
     67.5700	 1093.00	 1130.79	-1755.28	  381.31
     67.6700	 1378.00	 1337.76	-1677.25	  381.45
     67.7700	 1620.00	 1577.97	-1675.45	  381.58
     67.8700	 1866.00	 1834.95	-1686.44	  381.71
     67.9700	 2139.00	 2081.67	-1660.15	  381.84
     68.0700	 2319.00	 2280.87	-1679.36	  381.97
     68.1700	 2341.00	 2391.75	-1768.23	  382.10
     68.2700	 2340.00	 2386.08	-1763.57	  382.23
     68.3700	 2239.00	 2265.40	-1743.89	  382.36
     68.4700	 2130.00	 2060.03	-1647.51	  382.49
     68.5700	 1802.00	 1811.18	-1726.67	  382.62
     68.6700	 1536.00	 1555.22	-1736.71	  382.75
     68.7700	 1266.00	 1318.11	-1769.59	  382.88
     68.8700	 1127.00	 1115.30	-1705.79	  383.00
     68.9700	  934.00	  953.15	-1736.63	  383.13
     69.0700	  836.00	  831.02	-1712.51	  383.26
     69.1700	  731.00	  743.50	-1729.98	  383.39
     69.2700	  685.00	  683.69	-1716.18	  383.52
     69.3700	  643.00	  644.09	-1718.58	  383.64
     69.4700	  603.00	  618.29	-1732.77	  383.77
     69.5700	  591.00	  601.53	-1728.01	  383.90
     69.6700	  614.00	  590.44	-1693.93	  384.02
     69.7700	  604.00	  582.94	-1696.43	  384.15
     69.8700	  581.00	  577.76	-1714.25	  384.27
     69.9700	  550.00	  574.20	-1741.68	  384.40
     70.0700	  575.00	  571.86	-1714.35	  384.52
     70.1700	  567.00	  570.57	-1721.05	  384.65
     70.2700	  578.00	  570.25	-1709.74	  384.77
     70.3700	  572.00	  570.95	-1716.44	  384.89
     70.4700	  603.00	  572.83	-1687.32	  385.01
     70.5700	  579.00	  576.24	-1714.72	  385.14
     70.6700	  586.00	  581.80	-1713.29	  385.26
     70.7700	  568.00	  590.59	-1740.07	  385.38
     70.8700	  564.00	  604.30	-1757.79	  385.50
     70.9700	  598.00	  625.45	-1744.94	  385.62
     71.0700	  613.00	  658.28	-1762.76	  385.74
     71.1700	  678.00	  705.25	-1744.73	  385.86
     71.2700	  737.00	  771.80	-1752.29	  385.97
     71.3700	  846.00	  862.14	-1733.63	  386.09
     71.4700	 1001.00	  978.85	-1695.34	  386.21
     71.5700	 1071.00	 1121.66	-1768.14	  386.33
     71.6700	 1282.00	 1286.03	-1721.52	  386.44
     71.7700	 1386.00	 1462.17	-1793.66	  386.56
     71.8700	 1512.00	 1634.41	-1839.90	  386.67
     71.9700	 1746.00	 1781.15	-1752.64	  386.78
     72.0700	 1831.00	 1877.67	-1764.16	  386.90
     72.1700	 1924.00	 1903.39	-1696.88	  387.01
     72.2700	 1852.00	 1852.17	-1717.66	  387.12
     72.3700	 1786.00	 1735.97	-1667.45	  387.23
     72.4700	 1641.00	 1577.94	-1654.43	  387.34
     72.5700	 1391.00	 1402.26	-1728.75	  387.45
     72.6700	 1230.00	 1228.58	-1716.06	  387.56
     72.7700	 1045.00	 1070.48	-1742.97	  387.67
     72.8700	 1005.00	  935.73	-1648.22	  387.78
     72.9700	  908.00	  827.25	-1636.73	  387.88
     73.0700	  801.00	  744.15	-1660.64	  387.99
     73.1700	  713.00	  683.24	-1687.72	  388.10
     73.2700	  688.00	  640.17	-1669.65	  388.20
     73.3700	  691.00	  609.99	-1636.48	  388.30
     73.4700	  622.00	  589.83	-1685.32	  388.41
     73.5700	  603.00	  576.14	-1690.63	  388.51
     73.6700	  589.00	  566.74	-1695.23	  388.61
     73.7700	  599.00	  560.20	-1678.68	  388.71
     73.8700	  583.00	  555.60	-1690.08	  388.81
     73.9700	  518.00	  552.39	-1751.88	  388.91
     74.0700	  601.00	  550.24	-1666.73	  389.00
     74.1700	  533.00	  548.93	-1733.41	  389.10
     74.2700	  612.00	  548.25	-1653.73	  389.20
     74.3700	  594.00	  548.02	-1671.50	  389.29
     74.4700	  563.00	  548.02	-1702.50	  389.38
     74.5700	  611.00	  548.00	-1654.48	  389.48
     74.6700	  688.00	  547.71	-1577.19	  389.57
     74.7700	  638.00	  546.95	-1626.44	  389.66
     74.8700	  653.00	  545.68	-1610.17	  389.75
     74.9700	  602.00	  544.04	-1659.52	  389.84
     75.0700	  641.00	  542.26	-1618.75	  389.93
     75.1700	  585.00	  540.67	-1673.16	  390.02
     75.2700	  560.00	  539.59	-1697.07	  390.10
     75.3700	  584.00	  539.35	-1672.84	  390.19
     75.4700	  578.00	  540.33	-1679.82	  390.27
     75.5700	  539.00	  542.88	-1721.37	  390.35
     75.6700	  539.00	  547.54	-1726.03	  390.44
     75.7700	  569.00	  554.68	-1703.17	  390.52
     75.8700	  596.00	  564.64	-1686.13	  390.60
     75.9700	  591.00	  577.60	-1704.08	  390.67
     76.0700	  611.00	  593.33	-1699.82	  390.75
     76.1700	  643.00	  611.53	-1686.02	  390.83
     76.2700	  630.00	  631.14	-1718.62	  390.90
     76.3700	  636.00	  650.64	-1732.12	  390.98
     76.4700	  727.00	  668.02	-1658.50	  391.05
     76.5700	  626.00	  680.89	-1772.37	  391.12
     76.6700	  691.00	  687.00	-1713.49	  391.20
     76.7700	  638.00	  685.04	-1764.53	  391.27
     76.8700	  663.00	  675.45	-1729.94	  391.33
     76.9700	  678.00	  659.97	-1699.46	  391.40
     77.0700	  632.00	  640.99	-1726.47	  391.47
     77.1700	  589.00	  620.75	-1749.24	  391.53
     77.2700	  589.00	  601.06	-1729.54	  391.60
     77.3700	  593.00	  583.16	-1707.64	  391.66
     77.4700	  523.00	  567.79	-1762.28	  391.72
     77.5700	  532.00	  555.04	-1740.53	  391.78
     77.6700	  538.00	  545.26	-1724.75	  391.84
     77.7700	  551.00	  537.94	-1704.42	  391.90
     77.8700	  488.00	  532.64	-1762.13	  391.95
     77.9700	  514.00	  528.93	-1732.42	  392.01
     78.0700	  522.00	  526.38	-1721.87	  392.06
     78.1700	  507.00	  524.65	-1735.14	  392.12
     78.2700	  519.00	  523.49	-1721.97	  392.17
     78.3700	  520.00	  522.70	-1720.18	  392.22
     78.4700	  527.00	  522.17	-1712.66	  392.27
     78.5700	  476.00	  521.83	-1763.31	  392.31
     78.6700	  497.00	  521.63	-1742.11	  392.36
     78.7700	  542.00	  521.55	-1697.04	  392.41
     78.8700	  540.00	  521.61	-1699.10	  392.45
     78.9700	  574.00	  521.80	-1665.29	  392.49
     79.0700	  570.00	  522.15	-1669.63	  392.53
     79.1700	  496.00	  522.68	-1744.17	  392.57
     79.2700	  512.00	  523.43	-1728.91	  392.61
     79.3700	  474.00	  524.43	-1767.91	  392.65
     79.4700	  519.00	  525.73	-1724.21	  392.68
     79.5700	  527.00	  527.37	-1717.86	  392.72
     79.6700	  529.00	  529.42	-1717.91	  392.75
     79.7700	  554.00	  531.95	-1695.44	  392.78
     79.8700	  509.00	  535.07	-1743.55	  392.81
     79.9700	  580.00	  538.89	-1676.37	  392.84
     80.0700	  531.00	  543.37	-1729.85	  392.87
     80.1700	  542.00	  549.11	-1724.59	  392.89
     80.2700	  548.00	  556.16	-1725.64	  392.92
     80.3700	  530.00	  564.80	-1752.28	  392.94
     80.4700	  540.00	  575.30	-1752.78	  392.96
     80.5700	  574.00	  587.81	-1731.30	  392.98
     80.6700	  623.00	  602.31	-1696.80	  393.00
     80.7700	  594.00	  618.49	-1741.98	  393.02
     80.8700	  614.00	  635.74	-1739.23	  393.03
     80.9700	  673.00	  653.15	-1697.64	  393.04
     81.0700	  679.00	  669.61	-1708.10	  393.06
     81.1700	  699.00	  683.99	-1702.48	  393.07
     81.2700	  717.00	  695.36	-1695.85	  393.08
     81.3700	  707.00	  703.01	-1713.50	  393.09
     81.4700	  740.00	  706.50	-1683.98	  393.09
     81.5700	  792.00	  705.69	-1631.17	  393.10
     81.6700	  717.00	  700.74	-1701.23	  393.10
     81.7700	  726.00	  692.04	-1683.52	  393.10
     81.8700	  692.00	  680.11	-1705.60	  393.10
     81.9700	  713.00	  665.72	-1670.21	  393.10
     82.0700	  702.00	  649.86	-1665.35	  393.10
     82.1700	  712.00	  633.56	-1639.05	  393.10
     82.2700	  668.00	  617.70	-1667.18	  393.09
     82.3700	  569.00	  602.85	-1751.34	  393.08
     82.4700	  598.00	  589.38	-1708.86	  393.07
     82.5700	  534.00	  577.46	-1760.94	  393.06
     82.6700	  565.00	  567.21	-1719.70	  393.05
     82.7700	  586.00	  558.70	-1690.19	  393.04
     82.8700	  566.00	  551.93	-1703.42	  393.02
     82.9700	  513.00	  546.88	-1751.37	  393.01
     83.0700	  545.00	  543.48	-1715.97	  392.99
     83.1700	  506.00	  541.65	-1753.13	  392.97
     83.2700	  559.00	  541.20	-1699.68	  392.95
     83.3700	  536.00	  542.13	-1723.62	  392.92
     83.4700	  522.00	  544.20	-1739.68	  392.90
     83.5700	  509.00	  547.15	-1755.63	  392.87
     83.6700	  478.00	  550.75	-1790.23	  392.84
     83.7700	  504.00	  554.60	-1768.09	  392.81
     83.8700	  524.00	  558.30	-1751.78	  392.78
     83.9700	  514.00	  561.34	-1764.83	  392.75
     84.0700	  602.00	  563.27	-1678.76	  392.72
     84.1700	  526.00	  563.71	-1755.20	  392.68
     84.2700	  542.00	  562.53	-1738.01	  392.64
     84.3700	  569.00	  559.84	-1708.32	  392.60
     84.4700	  507.00	  556.02	-1766.50	  392.56
     84.5700	  471.00	  551.48	-1797.97	  392.52
     84.6700	  535.00	  546.65	-1729.13	  392.47
     84.7700	  585.00	  541.87	-1674.35	  392.43
     84.8700	  536.00	  537.41	-1718.89	  392.38
     84.9700	  544.00	  533.44	-1706.93	  392.33
     85.0700	  525.00	  530.07	-1722.56	  392.28
     85.1700	  545.00	  527.34	-1699.82	  392.23
     85.2700	  526.00	  525.21	-1716.70	  392.17
     85.3700	  496.00	  523.65	-1745.14	  392.12
     85.4700	  508.00	  522.58	-1732.06	  392.06
     85.5700	  516.00	  521.93	-1723.41	  392.00
     85.6700	  544.00	  521.65	-1695.13	  391.94
     85.7700	  494.00	  521.71	-1745.19	  391.88
     85.8700	  537.00	  522.10	-1702.59	  391.81
     85.9700	  556.00	  522.87	-1684.36	  391.75
     86.0700	  545.00	  524.07	-1696.56	  391.68
     86.1700	  543.00	  525.82	-1700.30	  391.61
     86.2700	  515.00	  528.23	-1730.71	  391.54
     86.3700	  527.00	  531.45	-1721.94	  391.47
     86.4700	  539.00	  535.65	-1714.14	  391.39
     86.5700	  506.00	  540.97	-1752.45	  391.32
     86.6700	  506.00	  547.48	-1758.97	  391.24
     86.7700	  568.00	  555.22	-1704.71	  391.16
     86.8700	  535.00	  564.11	-1746.60	  391.08
     86.9700	  573.00	  573.94	-1718.42	  391.00
     87.0700	  581.00	  584.34	-1720.83	  390.91
     87.1700	  574.00	  594.80	-1738.29	  390.82
     87.2700	  673.00	  604.65	-1649.14	  390.74
     87.3700	  598.00	  613.09	-1732.58	  390.65
     87.4700	  631.00	  619.27	-1705.76	  390.56
     87.5700	  628.00	  622.49	-1711.97	  390.46
     87.6700	  639.00	  622.34	-1700.83	  390.37
     87.7700	  649.00	  618.95	-1687.44	  390.27
     87.8700	  615.00	  612.48	-1714.96	  390.17
     87.9700	  648.00	  604.55	-1674.03	  390.07
     88.0700	  563.00	  595.67	-1750.16	  389.97
     88.1700	  597.00	  586.70	-1707.19	  389.87
     88.2700	  574.00	  578.38	-1721.87	  389.77
     88.3700	  588.00	  571.29	-1700.78	  389.66
     88.4700	  595.00	  565.86	-1688.35	  389.55
     88.5700	  617.00	  562.35	-1662.83	  389.44
     88.6700	  540.00	  560.85	-1738.33	  389.33
     88.7700	  567.00	  561.29	-1711.77	  389.22
     88.8700	  579.00	  563.46	-1701.94	  389.10
     88.9700	  560.00	  567.03	-1724.51	  388.99
     89.0700	  600.00	  571.55	-1689.04	  388.87
     89.1700	  605.00	  576.51	-1688.99	  388.75
     89.2700	  624.00	  581.29	-1674.77	  388.63
     89.3700	  610.00	  585.26	-1692.75	  388.50
     89.4700	  587.00	  587.84	-1718.33	  388.38
     89.5700	  597.00	  588.57	-1709.05	  388.25
     89.6700	  597.00	  587.25	-1707.73	  388.12
     89.7700	  538.00	  583.98	-1763.47	  388.00
     89.8700	  581.00	  579.14	-1715.62	  387.86
     89.9700	  564.00	  573.19	-1726.68	  387.73
     90.0700	  574.00	  566.65	-1710.14	  387.60
     90.1700	  534.00	  559.96	-1743.45	  387.46
     90.2700	  555.00	  553.49	-1715.98	  387.32
     90.3700	  537.00	  547.52	-1728.01	  387.18
     90.4700	  527.00	  542.24	-1732.72	  387.04
     90.5700	  489.00	  537.74	-1766.23	  386.90
     90.6700	  542.00	  534.07	-1709.56	  386.75
     90.7700	  482.00	  531.21	-1766.69	  386.61
     90.8700	  537.00	  529.09	-1709.57	  386.46
     90.9700	  475.00	  527.63	-1770.12	  386.31
     91.0700	  495.00	  526.76	-1749.25	  386.16
     91.1700	  506.00	  526.42	-1737.90	  386.01
     91.2700	  502.00	  526.56	-1742.04	  385.85
     91.3700	  476.00	  527.16	-1768.65	  385.70
     91.4700	  502.00	  528.27	-1743.75	  385.54
     91.5700	  496.00	  529.94	-1751.42	  385.38
     91.6700	  515.00	  532.27	-1734.76	  385.22
     91.7700	  538.00	  535.42	-1714.90	  385.06
     91.8700	  535.00	  539.53	-1722.02	  384.90
     91.9700	  553.00	  544.81	-1709.30	  384.73
     92.0700	  495.00	  551.44	-1773.93	  384.57
     92.1700	  524.00	  559.59	-1753.08	  384.40
     92.2700	  537.00	  569.40	-1749.89	  384.23
     92.3700	  554.00	  580.94	-1744.43	  384.06
     92.4700	  584.00	  594.21	-1727.70	  383.89
     92.5700	  594.00	  609.09	-1732.58	  383.71
     92.6700	  610.00	  625.37	-1732.85	  383.54
     92.7700	  614.00	  642.66	-1746.15	  383.36
     92.8700	  694.00	  660.49	-1683.98	  383.18
     92.9700	  658.00	  678.24	-1737.72	  383.00
     93.0700	  685.00	  695.20	-1727.69	  382.82
     93.1700	  696.00	  710.46	-1731.95	  382.63
     93.2700	  735.00	  724.10	-1706.58	  382.45
     93.3700	  768.00	  735.69	-1685.18	  382.26
     93.4700	  719.00	  745.47	-1743.95	  382.08
     93.5700	  747.00	  753.89	-1724.38	  381.89
     93.6700	  825.00	  761.50	-1653.99	  381.70
     93.7700	  772.00	  768.81	-1714.29	  381.51
     93.8700	  763.00	  776.20	-1730.69	  381.31
     93.9700	  817.00	  784.06	-1684.54	  381.12
     94.0700	  832.00	  792.74	-1678.23	  380.92
     94.1700	  838.00	  802.64	-1682.13	  380.72
     94.2700	  859.00	  814.08	-1672.56	  380.53
     94.3700	  844.00	  827.11	-1700.60	  380.33
     94.4700	  886.00	  841.45	-1672.94	  380.12
     94.5700	  899.00	  856.37	-1674.85	  379.92
     94.6700	  916.00	  870.71	-1672.20	  379.72
     94.7700	  939.00	  883.01	-1661.49	  379.51
     94.8700	  920.00	  891.57	-1689.06	  379.31
     94.9700	  826.00	  894.82	-1786.31	  379.10
     95.0700	  904.00	  891.61	-1705.09	  378.89
     95.1700	  873.00	  881.58	-1726.07	  378.68
     95.2700	  818.00	  865.31	-1764.80	  378.47
     95.3700	  866.00	  844.09	-1695.58	  378.25
     95.4700	  774.00	  819.69	-1763.17	  378.04
     95.5700	  803.00	  794.00	-1708.48	  377.82
     95.6700	  761.00	  768.89	-1725.37	  377.61
     95.7700	  746.00	  746.08	-1717.56	  377.39
     95.8700	  720.00	  727.14	-1724.62	  377.17
     95.9700	  692.00	  713.46	-1738.95	  376.95
     96.0700	  724.00	  706.28	-1699.77	  376.73
     96.1700	  726.00	  706.64	-1698.13	  376.50
     96.2700	  688.00	  715.42	-1744.91	  376.28
     96.3700	  744.00	  733.29	-1706.77	  376.05
     96.4700	  774.00	  760.68	-1704.17	  375.83
     96.5700	  790.00	  797.76	-1725.24	  375.60
     96.6700	  793.00	  844.31	-1768.80	  375.37
     96.7700	  898.00	  899.75	-1719.24	  375.14
     96.8700	  943.00	  962.98	-1737.47	  374.91
     96.9700	 1051.00	 1032.34	-1698.82	  374.68
     97.0700	 1062.00	 1105.57	-1761.06	  374.45
     97.1700	 1170.00	 1179.82	-1727.30	  374.21
     97.2700	 1241.00	 1251.63	-1728.12	  373.98
     97.3700	 1300.00	 1317.08	-1734.56	  373.74
     97.4700	 1430.00	 1371.92	-1659.41	  373.50
     97.5700	 1374.00	 1412.12	-1755.61	  373.27
     97.6700	 1428.00	 1434.46	-1723.95	  373.03
     97.7700	 1421.00	 1437.27	-1733.76	  372.79
     97.8700	 1392.00	 1420.78	-1746.26	  372.55
     97.9700	 1378.00	 1387.00	-1726.48	  372.30
     98.0700	 1378.00	 1339.23	-1678.71	  372.06
     98.1700	 1248.00	 1281.37	-1750.86	  371.82
     98.2700	 1155.00	 1217.45	-1779.94	  371.57
     98.3700	 1126.00	 1151.24	-1742.73	  371.33
     98.4700	 1098.00	 1086.20	-1705.68	  371.08
     98.5700	 1034.00	 1025.29	-1708.78	  370.83
     98.6700	  952.00	  971.06	-1736.54	  370.59
     98.7700	  883.00	  925.55	-1760.04	  370.34
     98.8700	  859.00	  890.42	-1748.91	  370.09
     98.9700	  898.00	  866.95	-1686.44	  369.84
     99.0700	  820.00	  856.09	-1753.57	  369.59
     99.1700	  896.00	  858.47	-1679.96	  369.34
     99.2700	  882.00	  874.49	-1709.97	  369.08
     99.3700	  884.00	  904.24	-1737.73	  368.83
     99.4700	  946.00	  947.68	-1719.17	  368.58
     99.5700	 1007.00	 1004.36	-1714.85	  368.32
     99.6700	 1083.00	 1073.54	-1708.03	  368.07
     99.7700	 1216.00	 1154.08	-1655.57	  367.81
     99.8700	 1244.00	 1244.36	-1717.85	  367.56
     99.9700	 1339.00	 1342.18	-1720.66	  367.30
    100.0700	 1474.00	 1444.73	-1688.21	  367.04
    100.1700	 1554.00	 1548.60	-1712.09	  366.78
    100.2700	 1653.00	 1649.90	-1714.39	  366.52
    100.3700	 1693.00	 1744.50	-1768.98	  366.27
    100.4700	 1858.00	 1828.41	-1687.90	  366.01
    100.5700	 1894.00	 1898.31	-1721.80	  365.75
    100.6700	 2023.00	 1951.76	-1646.25	  365.49
    100.7700	 2089.00	 1987.19	-1615.68	  365.23
    100.8700	 2073.00	 2003.64	-1648.13	  364.96
    100.9700	 1947.00	 2000.64	-1771.13	  364.70
    101.0700	 2035.00	 1978.24	-1660.73	  364.44
    101.1700	 1885.00	 1937.37	-1769.85	  364.18
    101.2700	 1823.00	 1880.06	-1774.55	  363.92
    101.3700	 1810.00	 1809.61	-1717.10	  363.65
    101.4700	 1835.00	 1730.26	-1612.74	  363.39
    101.5700	 1615.00	 1646.58	-1749.07	  363.13
    101.6700	 1533.00	 1562.96	-1747.45	  362.86
    101.7700	 1528.00	 1483.12	-1672.60	  362.60
    101.8700	 1472.00	 1409.95	-1655.44	  362.33
    101.9700	 1352.00	 1345.41	-1710.90	  362.07
    102.0700	 1322.00	 1290.52	-1686.01	  361.80
    102.1700	 1232.00	 1245.38	-1730.86	  361.54
    102.2700	 1123.00	 1209.28	-1803.77	  361.27
    102.3700	 1284.00	 1180.85	-1614.34	  361.01
    102.4700	 1154.00	 1158.11	-1721.60	  360.75
    102.5700	 1117.00	 1138.71	-1739.20	  360.48
    102.6700	 1146.00	 1120.17	-1691.66	  360.22
    102.7700	 1055.00	 1100.21	-1762.69	  359.95
    102.8700	 1058.00	 1077.06	-1736.55	  359.69
    102.9700	 1056.00	 1049.72	-1711.21	  359.42
    103.0700	  986.00	 1017.99	-1749.47	  359.16
    103.1700	  966.00	  982.33	-1733.82	  358.89
    103.2700	  962.00	  943.68	-1699.17	  358.63
    103.3700	  904.00	  903.17	-1716.65	  358.36
    103.4700	  797.00	  861.99	-1782.47	  358.10
    103.5700	  835.00	  821.26	-1703.75	  357.83
    103.6700	  809.00	  781.98	-1690.46	  357.57
    103.7700	  774.00	  744.95	-1688.43	  357.31
    103.8700	  729.00	  710.80	-1699.29	  357.04
    103.9700	  706.00	  679.98	-1691.47	  356.78
    104.0700	  642.00	  652.73	-1728.22	  356.52
    104.1700	  653.00	  629.13	-1693.62	  356.26
    104.2700	  573.00	  609.10	-1753.58	  356.00
    104.3700	  606.00	  592.43	-1703.92	  355.73
    104.4700	  586.00	  578.86	-1710.34	  355.47
    104.5700	  623.00	  568.04	-1662.52	  355.21
    104.6700	  562.00	  559.63	-1715.11	  354.95
    104.7700	  546.00	  553.27	-1724.75	  354.69
    104.8700	  553.00	  548.64	-1713.12	  354.43
    104.9700	  583.00	  545.44	-1679.92	  354.18
    105.0700	  528.00	  543.42	-1732.91	  353.92
    105.1700	  573.00	  542.39	-1686.87	  353.66
    105.2700	  522.00	  542.16	-1737.65	  353.41
    105.3700	  540.00	  542.62	-1720.10	  353.15
    105.4700	  508.00	  543.69	-1753.18	  352.90
    105.5700	  541.00	  545.34	-1721.82	  352.64
    105.6700	  498.00	  547.53	-1767.02	  352.39
    105.7700	  536.00	  550.31	-1731.80	  352.14
    105.8700	  575.00	  553.72	-1696.20	  351.88
    105.9700	  523.00	  557.84	-1752.32	  351.63
    106.0700	  602.00	  562.74	-1678.23	  351.38
    106.1700	  583.00	  568.50	-1702.98	  351.14
    106.2700	  593.00	  575.14	-1699.63	  350.89
    106.3700	  560.00	  582.67	-1740.16	  350.64
    106.4700	  583.00	  591.03	-1725.51	  350.39
    106.5700	  646.00	  600.13	-1671.62	  350.15
    106.6700	  605.00	  609.81	-1722.30	  349.91
    106.7700	  624.00	  619.85	-1713.34	  349.66
    106.8700	  605.00	  629.99	-1742.48	  349.42
    106.9700	  641.00	  639.91	-1716.40	  349.18
    107.0700	  640.00	  649.27	-1726.76	  348.94
    107.1700	  644.00	  657.71	-1731.20	  348.71
    107.2700	  661.00	  664.89	-1721.38	  348.47
    107.3700	  682.00	  670.57	-1706.05	  348.24
    107.4700	  716.00	  674.58	-1676.07	  348.00
    107.5700	  651.00	  676.96	-1743.44	  347.77
    107.6700	  671.00	  677.87	-1724.35	  347.54
    107.7700	  645.00	  677.62	-1750.10	  347.31
    107.8700	  666.00	  676.59	-1728.07	  347.08
    107.9700	  648.00	  675.18	-1744.66	  346.86
    108.0700	  640.00	  673.75	-1751.24	  346.63
    108.1700	  695.00	  672.62	-1695.11	  346.41
    108.2700	  666.00	  671.99	-1723.47	  346.19
    108.3700	  673.00	  671.97	-1716.45	  345.97
    108.4700	  615.00	  672.56	-1775.04	  345.75
    108.5700	  667.00	  673.67	-1724.15	  345.53
    108.6700	  663.00	  675.10	-1729.58	  345.32
    108.7700	  665.00	  676.55	-1729.04	  345.11
    108.8700	  657.00	  677.69	-1738.17	  344.90
    108.9700	  674.00	  678.10	-1721.59	  344.69
    109.0700	  691.00	  677.43	-1703.91	  344.48
    109.1700	  698.00	  675.35	-1694.83	  344.28
    109.2700	  680.00	  671.67	-1709.16	  344.07
    109.3700	  696.00	  666.34	-1687.83	  343.87
    109.4700	  617.00	  659.45	-1759.93	  343.67
    109.5700	  622.00	  651.20	-1746.69	  343.48
    109.6700	  660.00	  641.88	-1699.37	  343.28
    109.7700	  642.00	  631.83	-1707.32	  343.09
    109.8700	  645.00	  621.37	-1693.86	  342.90
    109.9700	  634.00	  610.81	-1694.30	  342.71
    110.0700	  618.00	  600.43	-1699.91	  342.53
    110.1700	  670.00	  590.46	-1637.95	  342.34
    110.2700	  605.00	  581.12	-1693.61	  342.16
    110.3700	  602.00	  572.56	-1688.04	  341.99
    110.4700	  585.00	  564.88	-1697.37	  341.81
    110.5700	  580.00	  558.16	-1695.65	  341.64
    110.6700	  562.00	  552.43	-1707.91	  341.47
    110.7700	  545.00	  547.67	-1720.16	  341.30
    110.8700	  536.00	  543.87	-1725.36	  341.13
    110.9700	  539.00	  540.96	-1719.45	  340.97
    111.0700	  535.00	  538.88	-1721.37	  340.81
    111.1700	  521.00	  537.54	-1734.03	  340.65
    111.2700	  551.00	  536.87	-1703.35	  340.50
    111.3700	  565.00	  536.78	-1689.27	  340.35
    111.4700	  524.00	  537.20	-1730.68	  340.20
    111.5700	  563.00	  538.05	-1692.54	  340.06
    111.6700	  573.00	  539.28	-1683.77	  339.91
    111.7700	  532.00	  540.84	-1726.32	  339.77
    111.8700	  531.00	  542.67	-1729.16	  339.64
    111.9700	  524.00	  544.76	-1738.25	  339.50
    112.0700	  539.00	  547.08	-1725.57	  339.37
    112.1700	  576.00	  549.62	-1691.11	  339.25
    112.2700	  566.00	  552.38	-1703.87	  339.12
    112.3700	  522.00	  555.38	-1750.86	  339.00
    112.4700	  523.00	  558.62	-1753.11	  338.89
    112.5700	  615.00	  562.15	-1664.64	  338.77
    112.6700	  598.00	  566.01	-1685.50	  338.66
    112.7700	  545.00	  570.26	-1742.74	  338.56
    112.8700	  586.00	  574.95	-1706.44	  338.45
    112.9700	  627.00	  580.20	-1670.68	  338.35
    113.0700	  588.00	  586.10	-1715.59	  338.26
    113.1700	  572.00	  592.82	-1738.31	  338.17
    113.2700	  617.00	  600.55	-1701.04	  338.08
    113.3700	  609.00	  609.53	-1718.02	  337.99
    113.4700	  668.00	  620.09	-1669.58	  337.91
    113.5700	  654.00	  632.62	-1696.10	  337.84
    113.6700	  640.00	  647.62	-1725.11	  337.76
    113.7700	  686.00	  665.73	-1697.22	  337.69
    113.8700	  707.00	  687.72	-1698.20	  337.63
    113.9700	  736.00	  714.51	-1696.00	  337.57
    114.0700	  785.00	  747.23	-1679.71	  337.51
    114.1700	  805.00	  787.17	-1699.66	  337.46
    114.2700	  907.00	  835.86	-1646.34	  337.41
    114.3700	  930.00	  895.00	-1682.49	  337.37
    114.4700	 1010.00	  966.51	-1673.99	  337.33
    114.5700	 1048.00	 1052.42	-1721.91	  337.29
    114.6700	 1193.00	 1154.89	-1679.38	  337.26
    114.7700	 1330.00	 1276.13	-1663.61	  337.23
    114.8700	 1511.00	 1418.35	-1624.83	  337.21
    114.9700	 1726.00	 1583.54	-1575.03	  337.19
    115.0700	 1894.00	 1773.46	-1596.94	  337.18
    115.1700	 2092.00	 1989.40	-1614.89	  337.17
    115.2700	 2307.00	 2232.20	-1642.68	  337.17
    115.3700	 2523.00	 2501.99	-1696.47	  337.17
    115.4700	 2842.00	 2798.01	-1673.49	  337.18
    115.5700	 3210.00	 3118.59	-1626.08	  337.19
    115.6700	 3551.00	 3460.96	-1627.44	  337.20
    115.7700	 3686.00	 3821.33	-1852.82	  337.22
    115.8700	 4027.00	 4194.79	-1885.27	  337.25
    115.9700	 4447.00	 4575.13	-1845.62	  337.28
    116.0700	 4914.00	 4955.10	-1758.59	  337.32
    116.1700	 5197.00	 5326.31	-1846.79	  337.36
    116.2700	 5630.00	 5679.54	-1767.02	  337.41
    116.3700	 5931.00	 6004.86	-1791.34	  337.46
    116.4700	 6123.00	 6291.84	-1886.32	  337.52
    116.5700	 6533.00	 6530.25	-1714.74	  337.58
    116.6700	 6642.00	 6710.73	-1786.21	  337.65
    116.7700	 6660.00	 6825.65	-1883.14	  337.72
    116.8700	 6785.00	 6869.94	-1802.43	  337.80
    116.9700	 6799.00	 6841.73	-1760.21	  337.89
    117.0700	 6717.00	 6742.61	-1743.10	  337.98
    117.1700	 6562.00	 6577.48	-1732.97	  338.07
    117.2700	 6337.00	 6353.78	-1734.27	  338.18
    117.3700	 6136.00	 6080.68	-1662.16	  338.28
    117.4700	 5609.00	 5768.32	-1876.81	  338.40
    117.5700	 5356.00	 5426.99	-1788.48	  338.52
    117.6700	 4963.00	 5066.69	-1821.17	  338.65
    117.7700	 4844.00	 4696.54	-1570.03	  338.78
    117.8700	 4363.00	 4324.75	-1679.23	  338.92
    117.9700	 4113.00	 3958.55	-1563.04	  339.06
    118.0700	 3673.00	 3603.99	-1648.48	  339.21
    118.1700	 3425.00	 3266.02	-1558.51	  339.37
    118.2700	 3102.00	 2948.33	-1563.81	  339.54
    118.3700	 2644.00	 2653.53	-1727.02	  339.71
    118.4700	 2482.00	 2383.37	-1618.85	  339.88
    118.5700	 2170.00	 2138.61	-1686.09	  340.07
    118.6700	 1936.00	 1919.29	-1700.77	  340.26
    118.7700	 1638.00	 1724.74	-1804.22	  340.46
    118.8700	 1542.00	 1553.79	-1729.27	  340.66
    118.9700	 1342.00	 1404.93	-1780.42	  340.87
    119.0700	 1213.00	 1276.37	-1780.86	  341.09
    119.1700	 1224.00	 1166.16	-1659.65	  341.31
    119.2700	 1062.00	 1072.28	-1727.77	  341.55
    119.3700	 1023.00	  992.73	-1687.22	  341.79
    119.4700	  889.00	  925.63	-1754.12	  342.03
    119.5700	  819.00	  869.22	-1767.70	  342.29
    119.6700	  794.00	  821.90	-1745.39	  342.55
    119.7700	  811.00	  782.26	-1688.74	  342.81
    119.8700	  750.00	  749.04	-1716.53	  343.09
    119.9700	  708.00	  721.21	-1730.69	  343.37
    120.0700	  647.00	  697.85	-1768.34	  343.66
    120.1700	  658.00	  678.22	-1737.71	  343.96
    120.2700	  625.00	  661.71	-1754.20	  344.27
    120.3700	  655.00	  647.80	-1710.29	  344.58
    120.4700	  611.00	  636.09	-1742.58	  344.90
    120.5700	  599.00	  626.25	-1744.73	  345.23
    120.6700	  584.00	  618.01	-1751.49	  345.57
    120.7700	  615.00	  611.15	-1713.64	  345.92
    120.8700	  548.00	  605.52	-1775.00	  346.27
    120.9700	  587.00	  600.97	-1731.45	  346.63
    121.0700	  577.00	  597.39	-1737.88	  347.00
    121.1700	  543.00	  594.70	-1769.19	  347.38
    121.2700	  588.00	  592.82	-1722.31	  347.77
    121.3700	  562.00	  591.69	-1747.18	  348.16
    121.4700	  525.00	  591.25	-1783.73	  348.57
    121.5700	  578.00	  591.44	-1730.93	  348.98
    121.6700	  555.00	  592.21	-1754.70	  349.40
    121.7700	  590.00	  593.52	-1721.00	  349.83
    121.8700	  576.00	  595.29	-1736.78	  350.27
    121.9700	  559.00	  597.47	-1755.96	  350.72
    122.0700	  588.00	  599.99	-1729.48	  351.17
    122.1700	  650.00	  602.77	-1670.26	  351.64
    122.2700	  642.00	  605.74	-1681.23	  352.12
    122.3700	  653.00	  608.81	-1673.30	  352.60
    122.4700	  619.00	  611.89	-1710.37	  353.09
    122.5700	  577.00	  614.87	-1755.36	  353.59
    122.6700	  635.00	  617.67	-1700.15	  354.11
    122.7700	  636.00	  620.18	-1701.67	  354.63
    122.8700	  617.00	  622.32	-1722.81	  355.16
    122.9700	  599.00	  624.01	-1742.49	  355.70
    123.0700	  625.00	  625.16	-1717.64	  356.25
    123.1700	  669.00	  625.78	-1674.27	  356.81
    123.2700	  634.00	  625.83	-1709.32	  357.38
    123.3700	  681.00	  625.33	-1661.81	  357.96
    123.4700	  646.00	  624.29	-1695.78	  358.55
    123.5700	  672.00	  622.77	-1668.26	  359.15
    123.6700	  620.00	  620.83	-1718.31	  359.76
    123.7700	  602.00	  618.52	-1734.01	  360.38
    123.8700	  664.00	  615.92	-1669.41	  361.01
    123.9700	  644.00	  613.10	-1686.59	  361.65
    124.0700	  634.00	  610.13	-1693.62	  362.30
    124.1700	  590.00	  607.07	-1734.56	  362.96
    124.2700	  577.00	  603.96	-1744.45	  363.63
    124.3700	  564.00	  600.90	-1754.38	  364.32
    124.4700	  643.00	  597.91	-1672.39	  365.01
    124.5700	  623.00	  595.03	-1689.51	  365.72
    124.6700	  581.00	  592.30	-1728.78	  366.43
    124.7700	  583.00	  589.74	-1724.23	  367.16
    124.8700	  593.00	  587.39	-1711.87	  367.89
    124.9700	  573.00	  481.03	-1625.52	  368.64
    125.0700	  593.00	  481.79	-1717.49	  369.40
    125.1700	  594.00	  482.56	-1717.49	  370.17
    125.2700	  535.00	  483.35	-1717.49	  370.96
    125.3700	  557.00	  484.14	-1717.49	  371.75
    125.4700	  618.00	  484.95	-1717.49	  372.56
    125.5700	  569.00	  485.76	-1717.49	  373.38
    125.6700	  536.00	  486.59	-1717.49	  374.20
    125.7700	  548.00	  487.44	-1717.49	  375.05
    125.8700	  525.00	  488.29	-1717.49	  375.90
    125.9700	  513.00	  489.15	-1717.49	  376.76
    126.0700	  558.00	  490.03	-1717.49	  377.64
    126.1700	  562.00	  490.92	-1717.49	  378.53
    126.2700	  550.00	  491.82	-1717.49	  379.43
    126.3700	  566.00	  492.73	-1717.49	  380.35
    126.4700	  538.00	  493.66	-1717.49	  381.27
    126.5700	  571.00	  494.60	-1717.49	  382.21
    126.6700	  539.00	  495.55	-1717.49	  383.16
    126.7700	  608.00	  496.51	-1717.49	  384.12
    126.8700	  617.00	  497.49	-1717.49	  385.10
    126.9700	  582.00	  498.48	-1717.49	  386.09
    127.0700	  609.00	  499.48	-1717.49	  387.09
    127.1700	  600.00	  500.50	-1717.49	  388.11
    127.2700	  595.00	  501.53	-1717.49	  389.14
    127.3700	  592.00	  502.57	-1717.49	  390.18
    127.4700	  622.00	  503.62	-1717.49	  391.23
    127.5700	  651.00	  504.69	-1717.49	  392.30
    127.6700	  651.00	  505.77	-1717.49	  393.38
    127.7700	  647.00	  506.87	-1717.49	  394.48
    127.8700	  629.00	  507.98	-1717.49	  395.59
    127.9700	  649.00	  509.10	-1717.49	  396.71
    128.0700	  637.00	  510.24	-1717.49	  397.85
    128.1700	  742.00	  511.39	-1717.49	  399.00
    128.2700	  710.00	  512.55	-1717.49	  400.16
    128.3700	  718.00	  513.73	-1717.49	  401.34
    128.4700	  770.00	  514.92	-1717.49	  402.54
    128.5700	    0.00	  516.13	-1717.49	  403.74
    128.6700	    0.00	  517.35	-1717.49	  404.96
     12.3148	        	        	        	        	       0	(  0  0  2)	  0  1
     24.9118	        	        	        	        	       0	(  0  0  4)	  0  1
     28.3617	        	        	        	        	       0	(  1  0  0)	  0  1
     29.0596	        	        	        	        	       0	(  1  0  1)	  0  1
     31.0678	        	        	        	        	       0	(  1  0  2)	  0  1
     34.1795	        	        	        	        	       0	(  1  0  3)	  0  1
     37.8259	        	        	        	        	       0	(  0  0  6)	  0  1
     38.1609	        	        	        	        	       0	(  1  0  4)	  0  1
     42.8164	        	        	        	        	       0	(  1  0  5)	  0  1
     48.0066	        	        	        	        	       0	(  1  0  6)	  0  1
     50.3288	        	        	        	        	       0	(  1  1  0)	  0  1
     51.2641	        	        	        	        	       0	(  0  0  8)	  0  1
     52.0539	        	        	        	        	       0	(  1  1  2)	  0  1
     53.6441	        	        	        	        	       0	(  1  0  7)	  0  1
     57.0080	        	        	        	        	       0	(  1  1  4)	  0  1
     58.8389	        	        	        	        	       0	(  2  0  0)	  0  1
     59.2310	        	        	        	        	       0	(  2  0  1)	  0  1
     59.6825	        	        	        	        	       0	(  1  0  8)	  0  1
     60.3979	        	        	        	        	       0	(  2  0  2)	  0  1
     62.3137	        	        	        	        	       0	(  2  0  3)	  0  1
     64.7131	        	        	        	        	       0	(  1  1  6)	  0  1
     64.9414	        	        	        	        	       0	(  2  0  4)	  0  1
     65.5127	        	        	        	        	       0	(  0  0 10)	  0  1
     66.1080	        	        	        	        	       0	(  1  0  9)	  0  1
     68.2405	        	        	        	        	       0	(  2  0  5)	  0  1
     72.1740	        	        	        	        	       0	(  2  0  6)	  0  1
     72.9345	        	        	        	        	       0	(  1  0 10)	  0  1
     74.7662	        	        	        	        	       0	(  1  1  8)	  0  1
     76.7154	        	        	        	        	       0	(  2  0  7)	  0  1
     80.2044	        	        	        	        	       0	(  1  0 11)	  0  1
     81.0182	        	        	        	        	       0	(  0  0 12)	  0  1
     81.1207	        	        	        	        	       0	(  2  1  0)	  0  1
     81.4612	        	        	        	        	       0	(  2  1  1)	  0  1
     81.8547	        	        	        	        	       0	(  2  0  8)	  0  1
     82.4809	        	        	        	        	       0	(  2  1  2)	  0  1
     84.1754	        	        	        	        	       0	(  2  1  3)	  0  1
     86.5396	        	        	        	        	       0	(  2  1  4)	  0  1
     87.0596	        	        	        	        	       0	(  1  1 10)	  0  1
     87.6037	        	        	        	        	       0	(  2  0  9)	  0  1
     87.9934	        	        	        	        	       0	(  1  0 12)	  0  1
     89.5716	        	        	        	        	       0	(  2  1  5)	  0  1
     93.2770	        	        	        	        	       0	(  2  1  6)	  0  1
     94.0047	        	        	        	        	       0	(  2  0 10)	  0  1
     95.0425	        	        	        	        	       0	(  3  0  0)	  0  1
     95.3806	        	        	        	        	       0	(  3  0  1)	  0  1
     96.3963	        	        	        	        	       0	(  3  0  2)	  0  1
     96.4249	        	        	        	        	       0	(  1  0 13)	  0  1
     97.6760	        	        	        	        	       0	(  2  1  7)	  0  1
     98.0938	        	        	        	        	       0	(  3  0  3)	  0  1
     98.5942	        	        	        	        	       0	(  0  0 14)	  0  1
    100.4829	        	        	        	        	       0	(  3  0  4)	  0  1
    101.1440	        	        	        	        	       0	(  2  0 11)	  0  1
    101.9642	        	        	        	        	       0	(  1  1 12)	  0  1
    102.8118	        	        	        	        	       0	(  2  1  8)	  0  1
    103.5830	        	        	        	        	       0	(  3  0  5)	  0  1
    105.7017	        	        	        	        	       0	(  1  0 14)	  0  1
    107.4295	        	        	        	        	       0	(  3  0  6)	  0  1
    108.7663	        	        	        	        	       0	(  2  1  9)	  0  1
    109.1784	        	        	        	        	       0	(  2  0 12)	  0  1
    112.0852	        	        	        	        	       0	(  3  0  7)	  0  1
    115.6874	        	        	        	        	       0	(  2  1 10)	  0  1
    116.1797	        	        	        	        	       0	(  1  0 15)	  0  1
    116.8421	        	        	        	        	       0	(  2  2  0)	  0  1
    117.6599	        	        	        	        	       0	(  3  0  8)	  0  1
    118.3637	        	        	        	        	       0	(  2  2  2)	  0  1
    118.3961	        	        	        	        	       0	(  2  0 13)	  0  1
    120.1516	        	        	        	        	       0	(  0  0 16)	  0  1
    120.8730	        	        	        	        	       0	(  1  1 14)	  0  1
    123.0709	        	        	        	        	       0	(  2  2  4)	  0  1
    123.8501	        	        	        	        	       0	(  2  1 11)	  0  1
    124.3505	        	        	        	        	       0	(  3  0  9)	  0  1
    124.9481	        	        	        	        	       0	(  3  1  0)	  0  1
    125.3605	        	        	        	        	       0	(  3  1  1)	  0  1
    126.6109	        	        	        	        	       0	(  3  1  2)	  0  1
    128.5806	        	        	        	        	       0	(  1  0 16)	  0  1
    128.7417	        	        	        	        	       0	(  3  1  3)	  0  1
    129.3804	        	        	        	        	       0	(  2  0 14)	  0  1
    131.5602	        	        	        	        	       0	(  2  2  6)	  0  1
    131.8378	        	        	        	        	       0	(  3  1  4)	  0  1
    132.5401	        	        	        	        	       0	(  3  0 10)	  0  1
    133.8224	        	        	        	        	       0	(  2  1 12)	  0  1
    136.0567	        	        	        	        	       0	(  3  1  5)	  0  1
    141.7056	        	        	        	        	       0	(  3  1  6)	  0  1
    143.1129	        	        	        	        	       0	(  3  0 11)	  0  1
    143.6382	        	        	        	        	       0	(  2  0 15)	  0  1
    144.8855	        	        	        	        	       0	(  1  0 17)	  0  1
    145.9319	        	        	        	        	       0	(  2  2  8)	  0  1
    147.1128	        	        	        	        	       0	(  2  1 13)	  0  1
    149.4837	        	        	        	        	       0	(  3  1  7)	  0  1
    150.0583	        	        	        	        	       0	(  1  1 16)	  0  1
    154.5381	        	        	        	        	       0	(  0  0 18)	  0  1
    159.3159	        	        	        	        	       0	(  3  0 12)	  0  1
    159.6064	        	        	        	        	       0	(  4  0  0)	  0  1
    160.6021	        	        	        	        	       0	(  4  0  1)	  0  1
    161.8195	        	        	        	        	       0	(  3  1  8)	  0  1
    163.9440	        	        	        	        	       0	(  4  0  2)	  0  1
    171.2907	        	        	        	        	       0	(  2  0 16)	  0  1
    172.1785	        	        	        	        	       0	(  4  0  3)	  0  1
    178.3468	        	        	        	        	       0	(  2  1 14)	  0  1
