MSG Master    CELL:    5.91915   5.91915  23.27557   90.0000   90.0000  120.0000   SPGR: P 63/m m c             TEMP:   1074.85
  1   1280     2.52000     0.00000    -0.12439     0.00000     0.00000    0
    99     0     2
       0.00000      10.00000
     125.00000     130.00000
 2Theta	Yobs	Ycal	Yobs-Ycal	Backg	Posr	(hkl)	K
      0.7700	    0.00	  555.13	-1741.75	  437.94
      0.8700	    0.00	  555.82	-1741.75	  438.62
      0.9700	   54.00	  556.49	-1741.75	  439.29
      1.0700	   44.00	  557.15	-1741.75	  439.96
      1.1700	   42.00	  557.80	-1741.75	  440.60
      1.2700	   36.00	  558.44	-1741.75	  441.24
      1.3700	   51.00	  559.06	-1741.75	  441.87
      1.4700	  104.00	  559.68	-1741.75	  442.49
      1.5700	  309.00	  560.29	-1741.75	  443.09
      1.6700	  434.00	  560.88	-1741.75	  443.69
      1.7700	  574.00	  561.47	-1741.75	  444.28
      1.8700	  641.00	  562.04	-1741.75	  444.85
      1.9700	  717.00	  562.61	-1741.75	  445.41
      2.0700	  783.00	  563.16	-1741.75	  445.97
      2.1700	  767.00	  563.71	-1741.75	  446.51
      2.2700	  791.00	  564.24	-1741.75	  447.05
      2.3700	  775.00	  564.76	-1741.75	  447.57
      2.4700	  745.00	  565.28	-1741.75	  448.08
      2.5700	  676.00	  565.78	-1741.75	  448.59
      2.6700	  667.00	  566.28	-1741.75	  449.08
      2.7700	  657.00	  566.76	-1741.75	  449.57
      2.8700	  647.00	  567.23	-1741.75	  450.04
      2.9700	  584.00	  567.70	-1741.75	  450.51
      3.0700	  603.00	  568.15	-1741.75	  450.96
      3.1700	  600.00	  568.60	-1741.75	  451.41
      3.2700	  623.00	  569.04	-1741.75	  451.84
      3.3700	  631.00	  569.46	-1741.75	  452.27
      3.4700	  756.00	  569.88	-1741.75	  452.69
      3.5700	  743.00	  570.29	-1741.75	  453.10
      3.6700	  865.00	  570.69	-1741.75	  453.50
      3.7700	  912.00	  571.08	-1741.75	  453.89
      3.8700	  969.00	  571.46	-1741.75	  454.27
      3.9700	 1024.00	  571.83	-1741.75	  454.64
      4.0700	 1065.00	  572.20	-1741.75	  455.00
      4.1700	 1085.00	  572.55	-1741.75	  455.36
      4.2700	 1117.00	  572.90	-1741.75	  455.70
      4.3700	 1088.00	  573.23	-1741.75	  456.04
      4.4700	 1078.00	  573.56	-1741.75	  456.37
      4.5700	 1027.00	  573.88	-1741.75	  456.69
      4.6700	  983.00	  574.20	-1741.75	  457.00
      4.7700	  993.00	  574.50	-1741.75	  457.30
      4.8700	  965.00	  574.79	-1741.75	  457.60
      4.9700	  908.00	  575.08	-1741.75	  457.89
      5.0700	  932.00	  575.36	-1741.75	  458.17
      5.1700	  904.00	  575.63	-1741.75	  458.44
      5.2700	  877.00	  575.89	-1741.75	  458.70
      5.3700	  845.00	  576.15	-1741.75	  458.95
      5.4700	  828.00	  576.39	-1741.75	  459.20
      5.5700	  874.00	  576.63	-1741.75	  459.44
      5.6700	  798.00	  576.86	-1741.75	  459.67
      5.7700	  870.00	  577.09	-1741.75	  459.89
      5.8700	  865.00	  577.30	-1741.75	  460.11
      5.9700	  803.00	  577.51	-1741.75	  460.32
      6.0700	  823.00	  577.71	-1741.75	  460.52
      6.1700	  818.00	  577.90	-1741.75	  460.71
      6.2700	  766.00	  578.09	-1741.75	  460.89
      6.3700	  757.00	  578.27	-1741.75	  461.07
      6.4700	  773.00	  578.44	-1741.75	  461.24
      6.5700	  730.00	  578.60	-1741.75	  461.41
      6.6700	  752.00	  578.76	-1741.75	  461.56
      6.7700	  766.00	  578.91	-1741.75	  461.71
      6.8700	  714.00	  579.05	-1741.75	  461.85
      6.9700	  786.00	  579.18	-1741.75	  461.99
      7.0700	  720.00	  579.31	-1741.75	  462.12
      7.1700	  726.00	  579.43	-1741.75	  462.24
      7.2700	  687.00	  579.55	-1741.75	  462.36
      7.3700	  674.00	  579.66	-1741.75	  462.46
      7.4700	  622.00	  579.76	-1741.75	  462.56
      7.5700	  615.00	  579.85	-1741.75	  462.66
      7.6700	  669.00	  579.94	-1741.75	  462.75
      7.7700	  632.00	  580.02	-1741.75	  462.83
      7.8700	  594.00	  580.10	-1741.75	  462.90
      7.9700	  629.00	  580.17	-1741.75	  462.97
      8.0700	  612.00	  580.23	-1741.75	  463.04
      8.1700	  638.00	  580.29	-1741.75	  463.09
      8.2700	  613.00	  580.34	-1741.75	  463.14
      8.3700	  622.00	  580.38	-1741.75	  463.19
      8.4700	  620.00	  580.42	-1741.75	  463.22
      8.5700	  629.00	  580.45	-1741.75	  463.26
      8.6700	  637.00	  580.48	-1741.75	  463.28
      8.7700	  597.00	  580.50	-1741.75	  463.30
      8.8700	  642.00	  580.51	-1741.75	  463.32
      8.9700	  650.00	  580.52	-1741.75	  463.32
      9.0700	  608.00	  580.52	-1741.75	  463.33
      9.1700	  605.00	  580.52	-1741.75	  463.32
      9.2700	  638.00	  580.51	-1741.75	  463.31
      9.3700	  599.00	  580.49	-1741.75	  463.30
      9.4700	  619.00	  580.47	-1741.75	  463.28
      9.5700	  601.00	  580.45	-1741.75	  463.25
      9.6700	  579.00	  580.42	-1741.75	  463.22
      9.7700	  578.00	  580.38	-1741.75	  463.19
      9.8700	  562.00	  580.34	-1741.75	  463.15
      9.9700	  643.00	  580.29	-1741.75	  463.10
     10.0700	  599.00	  581.07	-1723.82	  463.05
     10.1700	  593.00	  581.10	-1729.85	  462.99
     10.2700	  615.00	  581.14	-1707.89	  462.93
     10.3700	  579.00	  581.22	-1743.97	  462.86
     10.4700	  632.00	  581.35	-1691.10	  462.79
     10.5700	  596.00	  581.58	-1727.33	  462.71
     10.6700	  590.00	  582.02	-1733.77	  462.63
     10.7700	  564.00	  582.76	-1760.51	  462.54
     10.8700	  586.00	  583.87	-1739.62	  462.45
     10.9700	  601.00	  585.35	-1726.10	  462.35
     11.0700	  582.00	  587.16	-1746.91	  462.25
     11.1700	  574.00	  589.31	-1757.06	  462.15
     11.2700	  568.00	  591.82	-1765.57	  462.04
     11.3700	  589.00	  594.77	-1747.52	  461.92
     11.4700	  600.00	  598.28	-1740.03	  461.80
     11.5700	  560.00	  602.57	-1784.32	  461.68
     11.6700	  612.00	  607.95	-1737.70	  461.55
     11.7700	  654.00	  615.01	-1702.76	  461.42
     11.8700	  634.00	  624.60	-1732.35	  461.28
     11.9700	  685.00	  637.22	-1693.97	  461.14
     12.0700	  664.00	  651.29	-1729.04	  461.00
     12.1700	  670.00	  661.07	-1732.82	  460.85
     12.2700	  646.00	  657.68	-1753.43	  460.69
     12.3700	  690.00	  638.48	-1690.23	  460.54
     12.4700	  649.00	  614.99	-1707.74	  460.37
     12.5700	  629.00	  597.59	-1710.34	  460.21
     12.6700	  623.00	  587.89	-1706.64	  460.04
     12.7700	  595.00	  583.34	-1730.09	  459.87
     12.8700	  591.00	  581.21	-1731.96	  459.69
     12.9700	  601.00	  580.01	-1720.76	  459.51
     13.0700	  551.00	  579.18	-1769.93	  459.32
     13.1700	  570.00	  578.53	-1750.28	  459.14
     13.2700	  565.00	  578.00	-1754.75	  458.94
     13.3700	  570.00	  577.54	-1749.29	  458.75
     13.4700	  565.00	  577.14	-1753.89	  458.55
     13.5700	  556.00	  576.77	-1762.52	  458.35
     13.6700	  577.00	  576.43	-1741.18	  458.14
     13.7700	  573.00	  576.11	-1744.86	  457.93
     13.8700	  578.00	  575.81	-1739.56	  457.72
     13.9700	  553.00	  575.51	-1764.26	  457.51
     14.0700	  582.00	  575.23	-1734.98	  457.29
     14.1700	  593.00	  574.95	-1723.70	  457.06
     14.2700	  559.00	  574.68	-1757.43	  456.84
     14.3700	  562.00	  574.41	-1754.16	  456.61
     14.4700	  557.00	  574.14	-1758.89	  456.38
     14.5700	  535.00	  573.87	-1780.62	  456.14
     14.6700	  574.00	  573.61	-1741.36	  455.91
     14.7700	  535.00	  573.34	-1780.09	  455.67
     14.8700	  567.00	  573.07	-1747.82	  455.42
     14.9700	  583.00	  572.81	-1731.56	  455.18
     15.0700	  532.00	  572.54	-1782.29	  454.93
     15.1700	  560.00	  572.27	-1754.02	  454.68
     15.2700	  560.00	  572.00	-1753.75	  454.42
     15.3700	  572.00	  571.73	-1741.48	  454.16
     15.4700	  547.00	  571.46	-1766.21	  453.90
     15.5700	  553.00	  571.19	-1759.94	  453.64
     15.6700	  560.00	  570.91	-1752.66	  453.38
     15.7700	  577.00	  570.63	-1735.38	  453.11
     15.8700	  535.00	  570.35	-1777.10	  452.84
     15.9700	  578.00	  570.10	-1733.85	  452.56
     16.0700	  532.00	  569.82	-1779.57	  452.29
     16.1700	  551.00	  569.53	-1760.28	  452.01
     16.2700	  576.00	  569.25	-1735.00	  451.73
     16.3700	  595.00	  568.96	-1715.71	  451.45
     16.4700	  550.00	  568.67	-1760.42	  451.17
     16.5700	  580.00	  568.38	-1730.13	  450.88
     16.6700	  533.00	  568.09	-1776.84	  450.59
     16.7700	  510.00	  567.79	-1799.54	  450.30
     16.8700	  504.00	  567.49	-1805.24	  450.01
     16.9700	  575.00	  567.20	-1733.95	  449.71
     17.0700	  591.00	  566.90	-1717.65	  449.41
     17.1700	  581.00	  566.59	-1727.34	  449.11
     17.2700	  576.00	  566.29	-1732.04	  448.81
     17.3700	  546.00	  565.99	-1761.74	  448.51
     17.4700	  599.00	  565.68	-1708.43	  448.20
     17.5700	  562.00	  565.37	-1745.12	  447.90
     17.6700	  564.00	  565.06	-1742.81	  447.59
     17.7700	  549.00	  564.75	-1757.50	  447.28
     17.8700	  552.00	  564.44	-1754.19	  446.97
     17.9700	  595.00	  564.22	-1710.97	  446.65
     18.0700	  551.00	  563.91	-1754.66	  446.34
     18.1700	  565.00	  563.59	-1740.34	  446.02
     18.2700	  541.00	  563.28	-1764.03	  445.70
     18.3700	  558.00	  562.96	-1746.71	  445.38
     18.4700	  528.00	  562.64	-1776.39	  445.06
     18.5700	  538.00	  562.32	-1766.07	  444.74
     18.6700	  563.00	  561.99	-1740.74	  444.41
     18.7700	  555.00	  561.67	-1748.42	  444.08
     18.8700	  525.00	  561.43	-1778.18	  443.76
     18.9700	  559.00	  561.11	-1743.86	  443.43
     19.0700	  559.00	  560.78	-1743.53	  443.10
     19.1700	  593.00	  560.46	-1709.21	  442.77
     19.2700	  545.00	  560.13	-1756.88	  442.43
     19.3700	  568.00	  559.80	-1733.55	  442.10
     19.4700	  570.00	  559.47	-1731.22	  441.76
     19.5700	  573.00	  559.14	-1727.89	  441.43
     19.6700	  579.00	  558.81	-1721.56	  441.09
     19.7700	  591.00	  558.48	-1709.23	  440.75
     19.8700	  541.00	  558.15	-1758.90	  440.41
     19.9700	  559.00	  557.82	-1740.57	  440.07
     20.0700	  579.00	  557.49	-1720.24	  439.73
     20.1700	  566.00	  557.15	-1732.90	  439.38
     20.2700	  600.00	  556.82	-1698.57	  439.04
     20.3700	  612.00	  556.49	-1686.24	  438.70
     20.4700	  563.00	  556.15	-1734.90	  438.35
     20.5700	  545.00	  555.82	-1752.57	  438.00
     20.6700	  581.00	  555.48	-1716.23	  437.66
     20.7700	  544.00	  555.15	-1752.90	  437.31
     20.8700	  531.00	  554.82	-1765.57	  436.96
     20.9700	  531.00	  554.49	-1765.24	  436.61
     21.0700	  563.00	  554.16	-1732.91	  436.26
     21.1700	  560.00	  553.82	-1735.57	  435.91
     21.2700	  554.00	  553.49	-1741.24	  435.56
     21.3700	  532.00	  553.16	-1762.91	  435.21
     21.4700	  567.00	  552.83	-1727.58	  434.85
     21.5700	  529.00	  552.50	-1765.25	  434.50
     21.6700	  556.00	  552.17	-1737.92	  434.15
     21.7700	  552.00	  551.85	-1741.60	  433.79
     21.8700	  536.00	  551.52	-1757.27	  433.44
     21.9700	  527.00	  551.20	-1765.95	  433.08
     22.0700	  568.00	  550.88	-1724.63	  432.73
     22.1700	  535.00	  550.56	-1757.31	  432.37
     22.2700	  551.00	  550.24	-1740.99	  432.01
     22.3700	  553.00	  549.93	-1738.68	  431.66
     22.4700	  543.00	  549.62	-1748.37	  431.30
     22.5700	  519.00	  549.32	-1772.07	  430.94
     22.6700	  531.00	  549.02	-1759.77	  430.59
     22.7700	  513.00	  548.73	-1777.48	  430.23
     22.8700	  545.00	  548.45	-1745.20	  429.87
     22.9700	  506.00	  548.18	-1783.93	  429.51
     23.0700	  545.00	  547.92	-1744.67	  429.15
     23.1700	  558.00	  547.68	-1731.43	  428.79
     23.2700	  542.00	  547.46	-1747.21	  428.44
     23.3700	  545.00	  547.26	-1744.01	  428.08
     23.4700	  563.00	  547.10	-1725.85	  427.72
     23.5700	  504.00	  546.99	-1784.74	  427.36
     23.6700	  521.00	  547.07	-1767.82	  427.00
     23.7700	  560.00	  547.14	-1728.89	  426.64
     23.8700	  539.00	  547.42	-1750.17	  426.28
     23.9700	  572.00	  548.13	-1717.88	  425.93
     24.0700	  540.00	  549.66	-1751.41	  425.57
     24.1700	  562.00	  552.62	-1732.37	  425.21
     24.2700	  568.00	  557.79	-1731.54	  424.85
     24.3700	  589.00	  566.05	-1718.80	  424.49
     24.4700	  596.00	  578.26	-1724.01	  424.13
     24.5700	  615.00	  594.48	-1721.23	  423.78
     24.6700	  608.00	  612.02	-1745.77	  423.42
     24.7700	  584.00	  623.82	-1781.57	  423.06
     24.8700	  666.00	  620.64	-1696.39	  422.71
     24.9700	  611.00	  601.61	-1732.36	  422.35
     25.0700	  567.00	  578.72	-1753.47	  421.99
     25.1700	  572.00	  561.46	-1731.21	  421.64
     25.2700	  550.00	  551.51	-1743.26	  421.28
     25.3700	  552.00	  546.69	-1736.44	  420.93
     25.4700	  574.00	  544.42	-1712.17	  420.57
     25.5700	  570.00	  543.19	-1714.94	  420.22
     25.6700	  563.00	  542.38	-1721.13	  419.86
     25.7700	  509.00	  541.79	-1774.54	  419.51
     25.8700	  580.00	  541.33	-1703.08	  419.16
     25.9700	  547.00	  540.97	-1735.72	  418.81
     26.0700	  566.00	  540.71	-1716.46	  418.45
     26.1700	  564.00	  540.52	-1718.27	  418.10
     26.2700	  559.00	  540.41	-1723.16	  417.75
     26.3700	  574.00	  540.37	-1708.12	  417.40
     26.4700	  535.00	  540.42	-1747.17	  417.05
     26.5700	  518.00	  540.57	-1764.32	  416.70
     26.6700	  542.00	  540.82	-1740.57	  416.36
     26.7700	  548.00	  541.22	-1734.97	  416.01
     26.8700	  513.00	  541.79	-1770.54	  415.66
     26.9700	  570.00	  542.59	-1714.34	  415.31
     27.0700	  557.00	  543.68	-1728.43	  414.97
     27.1700	  518.00	  545.22	-1768.97	  414.62
     27.2700	  598.00	  547.43	-1691.18	  414.28
     27.3700	  573.00	  550.82	-1719.57	  413.94
     27.4700	  589.00	  556.35	-1709.10	  413.60
     27.5700	  590.00	  565.76	-1717.51	  413.25
     27.6700	  552.00	  581.77	-1771.52	  412.91
     27.7700	  571.00	  607.90	-1778.65	  412.57
     27.8700	  598.00	  647.22	-1790.97	  412.24
     27.9700	  660.00	  699.88	-1781.63	  411.90
     28.0700	  787.00	  759.94	-1714.69	  411.56
     28.1700	  909.00	  812.60	-1645.35	  411.22
     28.2700	  880.00	  835.46	-1697.21	  410.89
     28.3700	  964.00	  815.01	-1592.76	  410.55
     28.4700	  756.00	  771.94	-1757.69	  410.22
     28.5700	  684.00	  741.36	-1799.11	  409.89
     28.6700	  671.00	  739.60	-1810.35	  409.56
     28.7700	  709.00	  762.25	-1795.00	  409.23
     28.8700	  846.00	  789.87	-1685.62	  408.90
     28.9700	  805.00	  794.85	-1731.60	  408.57
     29.0700	  775.00	  759.25	-1726.00	  408.24
     29.1700	  690.00	  697.77	-1749.52	  407.92
     29.2700	  641.00	  638.62	-1739.37	  407.59
     29.3700	  603.00	  595.59	-1734.34	  407.27
     29.4700	  561.00	  569.33	-1750.08	  406.95
     29.5700	  631.00	  555.01	-1665.76	  406.63
     29.6700	  627.00	  547.40	-1662.15	  406.30
     29.7700	  574.00	  543.09	-1710.84	  405.99
     29.8700	  610.00	  540.41	-1672.16	  405.67
     29.9700	  576.00	  538.70	-1704.45	  405.35
     30.0700	  536.00	  537.82	-1743.57	  405.04
     30.1700	  559.00	  537.91	-1720.66	  404.72
     30.2700	  557.00	  539.50	-1724.25	  404.41
     30.3700	  581.00	  543.60	-1704.35	  404.10
     30.4700	  561.00	  551.77	-1732.52	  403.79
     30.5700	  558.00	  565.61	-1749.36	  403.48
     30.6700	  575.00	  585.53	-1752.28	  403.17
     30.7700	  618.00	  609.08	-1732.83	  402.86
     30.8700	  608.00	  629.63	-1763.38	  402.56
     30.9700	  623.00	  637.09	-1755.84	  402.25
     31.0700	  618.00	  624.35	-1748.10	  401.95
     31.1700	  604.00	  598.01	-1735.76	  401.65
     31.2700	  576.00	  571.30	-1737.05	  401.35
     31.3700	  539.00	  551.38	-1754.13	  401.05
     31.4700	  541.00	  539.12	-1739.87	  400.75
     31.5700	  557.00	  532.47	-1717.22	  400.46
     31.6700	  561.00	  529.01	-1709.76	  400.16
     31.7700	  540.00	  527.08	-1728.83	  399.87
     31.8700	  517.00	  525.87	-1750.62	  399.58
     31.9700	  543.00	  525.03	-1723.78	  399.29
     32.0700	  580.00	  524.43	-1686.18	  399.00
     32.1700	  555.00	  524.01	-1710.76	  398.71
     32.2700	  551.00	  523.76	-1714.51	  398.43
     32.3700	  580.00	  523.66	-1685.41	  398.14
     32.4700	  569.00	  523.72	-1696.47	  397.86
     32.5700	  543.00	  523.95	-1722.70	  397.58
     32.6700	  523.00	  524.39	-1743.14	  397.30
     32.7700	  545.00	  525.07	-1721.82	  397.02
     32.8700	  520.00	  526.06	-1747.81	  396.75
     32.9700	  553.00	  527.49	-1716.24	  396.47
     33.0700	  522.00	  529.57	-1749.32	  396.20
     33.1700	  518.00	  532.76	-1756.51	  395.93
     33.2700	  520.00	  538.11	-1759.86	  395.66
     33.3700	  566.00	  547.87	-1723.62	  395.39
     33.4700	  576.00	  566.29	-1732.04	  395.12
     33.5700	  609.00	  600.05	-1732.80	  394.86
     33.6700	  624.00	  656.70	-1774.45	  394.59
     33.7700	  777.00	  739.44	-1704.19	  394.33
     33.8700	  834.00	  839.29	-1747.04	  394.07
     33.9700	  995.00	  929.80	-1676.55	  393.81
     34.0700	 1024.00	  970.32	-1688.07	  393.56
     34.1700	  972.00	  930.57	-1700.32	  393.30
     34.2700	  934.00	  830.77	-1638.52	  393.05
     34.3700	  727.00	  722.37	-1737.12	  392.79
     34.4700	  627.00	  637.56	-1752.31	  392.54
     34.5700	  583.00	  583.50	-1742.25	  392.29
     34.6700	  577.00	  553.76	-1718.51	  392.05
     34.7700	  550.00	  538.59	-1730.34	  391.80
     34.8700	  536.00	  530.62	-1736.37	  391.56
     34.9700	  557.00	  525.87	-1710.62	  391.32
     35.0700	  475.00	  522.62	-1789.37	  391.08
     35.1700	  541.00	  520.16	-1720.91	  390.84
     35.2700	  494.00	  518.22	-1765.97	  390.60
     35.3700	  577.00	  516.64	-1681.39	  390.37
     35.4700	  535.00	  515.32	-1722.07	  390.13
     35.5700	  473.00	  514.21	-1782.96	  389.90
     35.6700	  552.00	  513.26	-1703.01	  389.67
     35.7700	  528.00	  512.44	-1726.19	  389.44
     35.8700	  513.00	  511.71	-1740.46	  389.22
     35.9700	  508.00	  511.55	-1745.30	  388.99
     36.0700	  499.00	  510.97	-1753.72	  388.77
     36.1700	  547.00	  510.46	-1705.21	  388.55
     36.2700	  479.00	  509.99	-1772.74	  388.33
     36.3700	  519.00	  509.57	-1732.32	  388.11
     36.4700	  467.00	  509.19	-1783.94	  387.90
     36.5700	  523.00	  508.85	-1727.60	  387.69
     36.6700	  482.00	  508.56	-1768.31	  387.47
     36.7700	  526.00	  508.31	-1724.06	  387.26
     36.8700	  532.00	  508.13	-1717.88	  387.06
     36.9700	  512.00	  508.08	-1737.83	  386.85
     37.0700	  499.00	  508.27	-1751.02	  386.65
     37.1700	  531.00	  508.95	-1719.70	  386.44
     37.2700	  520.00	  510.44	-1732.19	  386.24
     37.3700	  547.00	  513.04	-1707.79	  386.04
     37.4700	  521.00	  516.75	-1737.50	  385.85
     37.5700	  515.00	  520.93	-1747.68	  385.65
     37.6700	  483.00	  524.29	-1783.04	  385.46
     37.7700	  542.00	  525.33	-1725.08	  385.27
     37.8700	  507.00	  523.71	-1758.46	  385.08
     37.9700	  488.00	  520.61	-1774.36	  384.89
     38.0700	  496.00	  517.07	-1762.82	  384.70
     38.1700	  510.00	  513.51	-1745.26	  384.52
     38.2700	  506.00	  510.31	-1746.06	  384.34
     38.3700	  513.00	  507.80	-1736.55	  384.16
     38.4700	  562.00	  506.03	-1685.78	  383.98
     38.5700	  507.00	  504.87	-1739.62	  383.80
     38.6700	  508.00	  504.14	-1737.89	  383.63
     38.7700	  497.00	  503.56	-1748.31	  383.46
     38.8700	  491.00	  503.22	-1753.97	  383.29
     38.9700	  464.00	  502.95	-1780.70	  383.12
     39.0700	  494.00	  502.71	-1750.46	  382.95
     39.1700	  516.00	  502.49	-1728.24	  382.79
     39.2700	  481.00	  502.22	-1762.97	  382.62
     39.3700	  467.00	  502.04	-1776.79	  382.46
     39.4700	  534.00	  502.00	-1709.75	  382.30
     39.5700	  491.00	  501.85	-1752.60	  382.14
     39.6700	  498.00	  501.71	-1745.46	  381.99
     39.7700	  545.00	  501.57	-1698.32	  381.84
     39.8700	  526.00	  501.45	-1717.20	  381.68
     39.9700	  513.00	  501.34	-1730.09	  381.53
     40.0700	  450.00	  501.24	-1792.99	  381.39
     40.1700	  485.00	  501.15	-1757.90	  381.24
     40.2700	  502.00	  501.07	-1740.82	  381.10
     40.3700	  524.00	  501.00	-1718.75	  380.95
     40.4700	  485.00	  500.95	-1757.70	  380.81
     40.5700	  445.00	  500.91	-1797.66	  380.68
     40.6700	  496.00	  500.89	-1746.64	  380.54
     40.7700	  505.00	  500.89	-1737.64	  380.41
     40.8700	  539.00	  500.91	-1703.66	  380.27
     40.9700	  489.00	  500.96	-1753.71	  380.14
     41.0700	  492.00	  501.05	-1750.80	  380.01
     41.1700	  456.00	  501.18	-1786.93	  379.89
     41.2700	  500.00	  501.32	-1743.07	  379.76
     41.3700	  490.00	  501.57	-1753.32	  379.64
     41.4700	  495.00	  502.34	-1749.09	  379.52
     41.5700	  520.00	  502.81	-1724.56	  379.40
     41.6700	  556.00	  503.45	-1689.20	  379.28
     41.7700	  549.00	  504.42	-1697.17	  379.17
     41.8700	  498.00	  506.03	-1749.78	  379.05
     41.9700	  486.00	  508.99	-1764.74	  378.94
     42.0700	  535.00	  514.64	-1721.39	  378.83
     42.1700	  555.00	  525.06	-1711.81	  378.73
     42.2700	  557.00	  542.70	-1727.45	  378.62
     42.3700	  548.00	  568.69	-1762.44	  378.52
     42.4700	  569.00	  601.13	-1773.88	  378.41
     42.5700	  578.00	  632.99	-1796.74	  378.31
     42.6700	  581.00	  652.96	-1813.71	  378.22
     42.7700	  537.00	  650.46	-1855.21	  378.12
     42.8700	  553.00	  626.22	-1814.97	  378.03
     42.9700	  552.00	  592.24	-1781.99	  377.93
     43.0700	  513.00	  560.25	-1789.00	  377.84
     43.1700	  507.00	  536.10	-1770.85	  377.75
     43.2700	  515.00	  520.60	-1747.35	  377.67
     43.3700	  520.00	  511.84	-1733.59	  377.58
     43.4700	  492.00	  507.25	-1757.00	  377.50
     43.5700	  502.00	  504.86	-1744.60	  377.42
     43.6700	  488.00	  503.68	-1757.43	  377.34
     43.7700	  500.00	  502.80	-1744.55	  377.26
     43.8700	  482.00	  502.21	-1761.96	  377.19
     43.9700	  522.00	  501.74	-1721.49	  377.11
     44.0700	  470.00	  501.38	-1773.13	  377.04
     44.1700	  494.00	  501.10	-1748.85	  376.97
     44.2700	  479.00	  500.89	-1763.64	  376.90
     44.3700	  472.00	  500.73	-1770.48	  376.84
     44.4700	  493.00	  500.61	-1749.36	  376.77
     44.5700	  489.00	  500.54	-1753.29	  376.71
     44.6700	  498.00	  500.37	-1744.12	  376.65
     44.7700	  447.00	  500.35	-1795.10	  376.59
     44.8700	  522.00	  500.37	-1720.12	  376.54
     44.9700	  518.00	  500.41	-1724.16	  376.48
     45.0700	  494.00	  500.47	-1748.22	  376.43
     45.1700	  497.00	  500.74	-1745.49	  376.38
     45.2700	  508.00	  500.85	-1734.60	  376.33
     45.3700	  508.00	  500.99	-1734.74	  376.28
     45.4700	  529.00	  501.14	-1713.89	  376.23
     45.5700	  526.00	  501.32	-1717.07	  376.19
     45.6700	  490.00	  501.53	-1753.28	  376.15
     45.7700	  535.00	  501.77	-1708.52	  376.11
     45.8700	  509.00	  502.03	-1734.78	  376.07
     45.9700	  498.00	  502.33	-1746.08	  376.03
     46.0700	  499.00	  502.66	-1745.41	  375.99
     46.1700	  527.00	  503.04	-1717.79	  375.96
     46.2700	  533.00	  503.46	-1712.21	  375.93
     46.3700	  470.00	  503.93	-1775.68	  375.90
     46.4700	  518.00	  504.47	-1728.22	  375.87
     46.5700	  491.00	  505.08	-1755.83	  375.85
     46.6700	  501.00	  505.78	-1746.53	  375.82
     46.7700	  543.00	  506.61	-1705.36	  375.80
     46.8700	  528.00	  507.62	-1721.37	  375.78
     46.9700	  553.00	  508.96	-1697.71	  375.76
     47.0700	  524.00	  510.93	-1728.68	  375.74
     47.1700	  486.00	  514.11	-1769.86	  375.73
     47.2700	  537.00	  519.36	-1724.11	  375.71
     47.3700	  498.00	  527.96	-1771.71	  375.70
     47.4700	  510.00	  540.99	-1772.74	  375.69
     47.5700	  584.00	  558.58	-1716.33	  375.68
     47.6700	  602.00	  578.94	-1718.69	  375.67
     47.7700	  543.00	  597.79	-1796.54	  375.67
     47.8700	  640.00	  609.08	-1710.83	  375.66
     47.9700	  577.00	  608.06	-1772.81	  375.66
     48.0700	  584.00	  595.94	-1753.69	  375.66
     48.1700	  599.00	  578.82	-1721.57	  375.66
     48.2700	  558.00	  562.58	-1746.33	  375.66
     48.3700	  528.00	  550.53	-1764.28	  375.67
     48.4700	  512.00	  543.64	-1773.39	  375.67
     48.5700	  558.00	  541.29	-1725.04	  375.68
     48.6700	  504.00	  542.39	-1780.14	  375.69
     48.7700	  533.00	  545.97	-1754.72	  375.70
     48.8700	  523.00	  551.53	-1770.28	  375.72
     48.9700	  502.00	  559.11	-1798.86	  375.73
     49.0700	  540.00	  569.40	-1771.15	  375.75
     49.1700	  590.00	  584.07	-1735.81	  375.76
     49.2700	  614.00	  606.62	-1734.37	  375.78
     49.3700	  676.00	  643.73	-1709.48	  375.80
     49.4700	  663.00	  706.94	-1785.69	  375.83
     49.5700	  765.00	  811.62	-1788.37	  375.85
     49.6700	  925.00	  976.37	-1793.12	  375.88
     49.7700	 1127.00	 1214.78	-1829.53	  375.90
     49.8700	 1473.00	 1525.23	-1793.98	  375.93
     49.9700	 1847.00	 1879.07	-1773.82	  375.96
     50.0700	 2283.00	 2211.30	-1670.05	  375.99
     50.1700	 2503.00	 2425.08	-1663.83	  376.03
     50.2700	 2521.00	 2432.98	-1653.73	  376.06
     50.3700	 2281.00	 2229.22	-1689.97	  376.10
     50.4700	 1846.00	 1899.19	-1794.94	  376.13
     50.5700	 1462.00	 1545.39	-1825.14	  376.17
     50.6700	 1070.00	 1235.93	-1907.68	  376.21
     50.7700	  809.00	 1000.89	-1933.64	  376.26
     50.8700	  730.00	  842.08	-1853.83	  376.30
     50.9700	  664.00	  744.68	-1822.43	  376.35
     51.0700	  649.00	  687.97	-1780.72	  376.39
     51.1700	  626.00	  653.15	-1768.90	  376.44
     51.2700	  621.00	  627.83	-1748.58	  376.49
     51.3700	  582.00	  606.68	-1766.43	  376.54
     51.4700	  587.00	  588.67	-1743.42	  376.59
     51.5700	  572.00	  574.04	-1743.79	  376.65
     51.6700	  543.00	  562.92	-1761.67	  376.70
     51.7700	  546.00	  555.01	-1750.76	  376.76
     51.8700	  602.00	  549.63	-1689.38	  376.82
     51.9700	  555.00	  546.09	-1732.84	  376.88
     52.0700	  547.00	  543.81	-1738.56	  376.94
     52.1700	  550.00	  542.76	-1734.51	  377.00
     52.2700	  557.00	  542.40	-1727.15	  377.06
     52.3700	  544.00	  543.12	-1740.87	  377.13
     52.4700	  564.00	  545.37	-1723.12	  377.19
     52.5700	  580.00	  550.23	-1711.98	  377.26
     52.6700	  558.00	  559.92	-1743.67	  377.33
     52.7700	  616.00	  578.42	-1704.17	  377.40
     52.8700	  681.00	  611.73	-1672.48	  377.47
     52.9700	  657.00	  667.04	-1751.79	  377.54
     53.0700	  800.00	  750.15	-1691.90	  377.62
     53.1700	  932.00	  861.18	-1670.93	  377.69
     53.2700	  993.00	  990.13	-1738.88	  377.77
     53.3700	 1104.00	 1113.92	-1751.67	  377.85
     53.4700	 1109.00	 1198.48	-1831.23	  377.93
     53.5700	 1151.00	 1211.74	-1802.49	  378.01
     53.6700	 1033.00	 1147.36	-1856.11	  378.09
     53.7700	 1002.00	 1031.56	-1771.31	  378.17
     53.8700	  877.00	  900.84	-1765.59	  378.26
     53.9700	  739.00	  782.56	-1785.31	  378.34
     54.0700	  659.00	  690.64	-1773.39	  378.43
     54.1700	  642.00	  627.59	-1727.34	  378.52
     54.2700	  558.00	  588.78	-1772.53	  378.60
     54.3700	  595.00	  566.97	-1713.72	  378.69
     54.4700	  561.00	  555.54	-1736.29	  378.78
     54.5700	  586.00	  549.82	-1705.56	  378.88
     54.6700	  593.00	  547.16	-1695.91	  378.97
     54.7700	  621.00	  546.18	-1666.93	  379.06
     54.8700	  562.00	  546.27	-1726.02	  379.16
     54.9700	  547.00	  547.18	-1741.93	  379.26
     55.0700	  577.00	  548.84	-1713.59	  379.35
     55.1700	  586.00	  551.28	-1707.03	  379.45
     55.2700	  544.00	  554.53	-1752.28	  379.55
     55.3700	  560.00	  558.71	-1740.46	  379.65
     55.4700	  566.00	  564.07	-1739.82	  379.76
     55.5700	  508.00	  571.01	-1804.76	  379.86
     55.6700	  616.00	  580.35	-1706.10	  379.96
     55.7700	  563.00	  593.76	-1772.51	  380.07
     55.8700	  615.00	  614.57	-1741.32	  380.17
     55.9700	  648.00	  649.00	-1742.75	  380.28
     56.0700	  677.00	  707.30	-1772.05	  380.39
     56.1700	  736.00	  804.27	-1810.02	  380.50
     56.2700	  923.00	  957.39	-1776.14	  380.61
     56.3700	 1080.00	 1181.71	-1843.46	  380.72
     56.4700	 1390.00	 1481.64	-1833.39	  380.83
     56.5700	 1721.00	 1841.27	-1862.02	  380.94
     56.6700	 2066.00	 2216.96	-1892.71	  381.06
     56.7700	 2468.00	 2534.84	-1808.59	  381.17
     56.8700	 2603.00	 2704.18	-1842.93	  381.29
     56.9700	 2603.00	 2662.56	-1801.31	  381.40
     57.0700	 2443.00	 2426.03	-1724.78	  381.52
     57.1700	 2111.00	 2076.10	-1706.85	  381.64
     57.2700	 1711.00	 1701.51	-1732.26	  381.76
     57.3700	 1272.00	 1364.90	-1834.65	  381.88
     57.4700	 1059.00	 1098.10	-1780.85	  382.00
     57.5700	  881.00	  908.10	-1768.85	  382.12
     57.6700	  711.00	  785.51	-1816.26	  382.24
     57.7700	  764.00	  714.16	-1691.91	  382.37
     57.8700	  661.00	  678.52	-1759.27	  382.49
     57.9700	  629.00	  667.49	-1780.24	  382.62
     58.0700	  670.00	  675.10	-1746.85	  382.74
     58.1700	  737.00	  699.32	-1704.07	  382.87
     58.2700	  818.00	  740.21	-1663.96	  382.99
     58.3700	  882.00	  798.01	-1657.76	  383.12
     58.4700	  964.00	  871.48	-1649.23	  383.25
     58.5700	 1065.00	  956.30	-1633.05	  383.38
     58.6700	 1298.00	 1044.42	-1488.17	  383.51
     58.7700	 1364.00	 1126.22	-1503.97	  383.64
     58.8700	 1495.00	 1194.83	-1441.58	  383.77
     58.9700	 1564.00	 1246.28	-1424.03	  383.90
     59.0700	 1561.00	 1275.28	-1456.03	  384.04
     59.1700	 1556.00	 1276.90	-1462.65	  384.17
     59.2700	 1524.00	 1254.32	-1472.07	  384.30
     59.3700	 1330.00	 1219.82	-1631.57	  384.44
     59.4700	 1294.00	 1186.34	-1634.09	  384.57
     59.5700	 1172.00	 1162.90	-1732.65	  384.71
     59.6700	 1163.00	 1157.18	-1735.93	  384.85
     59.7700	 1099.00	 1178.05	-1820.80	  384.98
     59.8700	 1175.00	 1231.22	-1797.97	  385.12
     59.9700	 1406.00	 1312.96	-1648.71	  385.26
     60.0700	 1413.00	 1407.14	-1735.89	  385.40
     60.1700	 1584.00	 1485.70	-1643.45	  385.54
     60.2700	 1586.00	 1515.57	-1671.32	  385.68
     60.3700	 1585.00	 1475.53	-1632.28	  385.82
     60.4700	 1420.00	 1371.37	-1693.12	  385.96
     60.5700	 1299.00	 1229.65	-1672.40	  386.10
     60.6700	 1120.00	 1079.59	-1701.34	  386.24
     60.7700	  896.00	  942.62	-1788.37	  386.38
     60.8700	  805.00	  831.08	-1767.83	  386.52
     60.9700	  723.00	  749.36	-1768.11	  386.67
     61.0700	  683.00	  696.58	-1755.33	  386.81
     61.1700	  629.00	  669.60	-1782.35	  386.96
     61.2700	  643.00	  665.74	-1764.49	  387.10
     61.3700	  646.00	  684.52	-1780.27	  387.24
     61.4700	  682.00	  727.88	-1787.63	  387.39
     61.5700	  749.00	  798.94	-1791.69	  387.53
     61.6700	  857.00	  899.62	-1784.37	  387.68
     61.7700	  972.00	 1027.60	-1797.35	  387.83
     61.8700	 1132.00	 1173.70	-1783.45	  387.97
     61.9700	 1292.00	 1320.11	-1769.86	  388.12
     62.0700	 1343.00	 1440.16	-1838.91	  388.27
     62.1700	 1339.00	 1503.35	-1906.10	  388.41
     62.2700	 1501.00	 1489.19	-1729.94	  388.56
     62.3700	 1299.00	 1401.87	-1844.62	  388.71
     62.4700	 1255.00	 1266.99	-1753.74	  388.86
     62.5700	 1040.00	 1114.98	-1816.73	  389.01
     62.6700	  878.00	  969.73	-1833.48	  389.16
     62.7700	  783.00	  845.88	-1804.63	  389.30
     62.8700	  681.00	  749.63	-1810.38	  389.45
     62.9700	  659.00	  680.63	-1763.38	  389.60
     63.0700	  617.00	  634.59	-1759.34	  389.75
     63.1700	  593.00	  605.73	-1754.48	  389.90
     63.2700	  517.00	  588.66	-1813.41	  390.05
     63.3700	  620.00	  579.34	-1701.09	  390.20
     63.4700	  576.00	  575.32	-1741.07	  390.35
     63.5700	  601.00	  575.68	-1716.43	  390.50
     63.6700	  576.00	  580.73	-1746.48	  390.65
     63.7700	  582.00	  591.80	-1751.55	  390.80
     63.8700	  651.00	  610.87	-1701.62	  390.95
     63.9700	  697.00	  640.01	-1684.76	  391.11
     64.0700	  671.00	  680.61	-1751.36	  391.26
     64.1700	  813.00	  732.45	-1661.20	  391.41
     64.2700	  773.00	  792.76	-1761.51	  391.56
     64.3700	  892.00	  855.65	-1705.40	  391.71
     64.4700	  995.00	  912.00	-1658.75	  391.86
     64.5700	 1018.00	  950.62	-1674.37	  392.01
     64.6700	 1024.00	  963.96	-1681.71	  392.16
     64.7700	 1008.00	  949.74	-1683.49	  392.31
     64.8700	  941.00	  912.86	-1713.61	  392.46
     64.9700	  961.00	  862.01	-1642.76	  392.62
     65.0700	  811.00	  806.59	-1737.34	  392.77
     65.1700	  791.00	  754.08	-1704.83	  392.92
     65.2700	  757.00	  708.76	-1693.51	  393.07
     65.3700	  713.00	  671.77	-1700.52	  393.22
     65.4700	  655.00	  642.40	-1729.15	  393.37
     65.5700	  616.00	  619.38	-1745.13	  393.52
     65.6700	  572.00	  601.61	-1771.36	  393.67
     65.7700	  587.00	  588.20	-1742.95	  393.82
     65.8700	  535.00	  578.43	-1785.18	  393.97
     65.9700	  565.00	  571.71	-1748.46	  394.12
     66.0700	  543.00	  567.54	-1766.29	  394.27
     66.1700	  597.00	  565.51	-1710.26	  394.42
     66.2700	  574.00	  565.23	-1732.98	  394.57
     66.3700	  562.00	  566.42	-1746.17	  394.72
     66.4700	  563.00	  568.94	-1747.69	  394.87
     66.5700	  568.00	  572.96	-1746.71	  395.02
     66.6700	  581.00	  578.66	-1739.41	  395.17
     66.7700	  581.00	  587.03	-1747.78	  395.32
     66.8700	  588.00	  599.78	-1753.53	  395.46
     66.9700	  597.00	  619.88	-1764.63	  395.61
     67.0700	  677.00	  651.96	-1716.71	  395.76
     67.1700	  661.00	  702.63	-1783.38	  395.91
     67.2700	  724.00	  780.23	-1797.98	  396.05
     67.3700	  911.00	  893.79	-1724.54	  396.20
     67.4700	  994.00	 1050.43	-1798.18	  396.35
     67.5700	 1361.00	 1252.84	-1633.59	  396.49
     67.6700	 1521.00	 1495.55	-1716.30	  396.64
     67.7700	 1851.00	 1762.28	-1653.03	  396.78
     67.8700	 2021.00	 2025.01	-1745.76	  396.93
     67.9700	 2289.00	 2243.95	-1696.70	  397.07
     68.0700	 2422.00	 2374.44	-1694.19	  397.22
     68.1700	 2452.00	 2383.18	-1672.93	  397.36
     68.2700	 2163.00	 2267.75	-1846.50	  397.51
     68.3700	 2105.00	 2058.35	-1695.10	  397.65
     68.4700	 1879.00	 1799.22	-1661.97	  397.79
     68.5700	 1511.00	 1531.35	-1762.10	  397.93
     68.6700	 1305.00	 1284.70	-1721.45	  398.08
     68.7700	 1021.00	 1077.00	-1797.75	  398.22
     68.8700	  887.00	  914.83	-1769.58	  398.36
     68.9700	  772.00	  796.55	-1766.30	  398.50
     69.0700	  724.00	  715.25	-1733.00	  398.64
     69.1700	  646.00	  662.08	-1757.83	  398.78
     69.2700	  614.00	  628.51	-1756.26	  398.92
     69.3700	  583.00	  607.68	-1766.43	  399.05
     69.4700	  592.00	  594.68	-1744.43	  399.19
     69.5700	  630.00	  586.35	-1698.10	  399.33
     69.6700	  562.00	  580.80	-1760.55	  399.47
     69.7700	  542.00	  577.00	-1776.75	  399.60
     69.8700	  600.00	  574.38	-1716.13	  399.74
     69.9700	  584.00	  572.66	-1730.41	  399.87
     70.0700	  575.00	  571.73	-1738.48	  400.01
     70.1700	  546.00	  571.50	-1767.25	  400.14
     70.2700	  543.00	  572.00	-1770.75	  400.27
     70.3700	  565.00	  573.36	-1750.11	  400.40
     70.4700	  574.00	  575.79	-1743.54	  400.54
     70.5700	  557.00	  579.80	-1764.55	  400.67
     70.6700	  581.00	  586.26	-1747.01	  400.80
     70.7700	  588.00	  596.69	-1750.44	  400.93
     70.8700	  603.00	  613.49	-1752.24	  401.06
     70.9700	  589.00	  640.20	-1792.95	  401.18
     71.0700	  677.00	  681.55	-1746.30	  401.31
     71.1700	  736.00	  743.13	-1748.88	  401.44
     71.2700	  891.00	  830.61	-1681.36	  401.56
     71.3700	  880.00	  948.16	-1809.91	  401.69
     71.4700	 1040.00	 1097.62	-1799.37	  401.81
     71.5700	 1274.00	 1273.16	-1740.91	  401.94
     71.6700	 1410.00	 1464.95	-1796.70	  402.06
     71.7700	 1631.00	 1655.15	-1765.90	  402.18
     71.8700	 1799.00	 1819.17	-1761.92	  402.30
     71.9700	 1890.00	 1928.92	-1780.67	  402.42
     72.0700	 1946.00	 1960.77	-1756.52	  402.54
     72.1700	 1850.00	 1907.17	-1798.92	  402.66
     72.2700	 1835.00	 1781.06	-1687.81	  402.78
     72.3700	 1646.00	 1607.97	-1703.72	  402.90
     72.4700	 1486.00	 1416.43	-1672.18	  403.01
     72.5700	 1419.00	 1228.75	-1551.50	  403.13
     72.6700	 1172.00	 1060.60	-1630.35	  403.24
     72.7700	 1010.00	  920.52	-1652.27	  403.36
     72.8700	  925.00	  810.94	-1627.69	  403.47
     72.9700	  876.00	  729.81	-1595.56	  403.58
     73.0700	  873.00	  672.51	-1541.26	  403.69
     73.1700	  744.00	  633.49	-1631.24	  403.80
     73.2700	  705.00	  607.56	-1644.31	  403.91
     73.3700	  661.00	  590.48	-1671.23	  404.02
     73.4700	  607.00	  579.15	-1713.90	  404.13
     73.5700	  591.00	  571.51	-1722.26	  404.23
     73.6700	  628.00	  566.26	-1680.01	  404.34
     73.7700	  555.00	  562.64	-1749.39	  404.44
     73.8700	  566.00	  560.21	-1735.96	  404.54
     73.9700	  629.00	  558.71	-1671.46	  404.65
     74.0700	  592.00	  557.94	-1707.69	  404.75
     74.1700	  589.00	  557.75	-1710.50	  404.85
     74.2700	  606.00	  557.94	-1693.69	  404.95
     74.3700	  635.00	  558.31	-1665.06	  405.04
     74.4700	  651.00	  558.61	-1649.36	  405.14
     74.5700	  612.00	  558.59	-1688.34	  405.24
     74.6700	  646.00	  558.05	-1653.80	  405.33
     74.7700	  643.00	  556.97	-1655.72	  405.43
     74.8700	  625.00	  555.45	-1672.20	  405.52
     74.9700	  623.00	  553.76	-1672.51	  405.61
     75.0700	  563.00	  552.18	-1730.93	  405.70
     75.1700	  594.00	  551.02	-1698.77	  405.79
     75.2700	  556.00	  550.56	-1736.31	  405.88
     75.3700	  574.00	  551.24	-1718.99	  405.96
     75.4700	  533.00	  553.51	-1762.26	  406.05
     75.5700	  542.00	  557.81	-1757.56	  406.13
     75.6700	  565.00	  564.56	-1741.31	  406.22
     75.7700	  569.00	  574.43	-1747.18	  406.30
     75.8700	  595.00	  587.60	-1734.35	  406.38
     75.9700	  623.00	  604.05	-1722.80	  406.46
     76.0700	  618.00	  623.26	-1747.01	  406.54
     76.1700	  612.00	  644.16	-1773.91	  406.62
     76.2700	  676.00	  665.03	-1730.78	  406.69
     76.3700	  697.00	  683.58	-1728.33	  406.77
     76.4700	  689.00	  697.16	-1749.91	  406.84
     76.5700	  759.00	  703.34	-1686.09	  406.92
     76.6700	  707.00	  700.85	-1735.60	  406.99
     76.7700	  649.00	  690.16	-1782.91	  407.06
     76.8700	  665.00	  673.31	-1750.06	  407.13
     76.9700	  603.00	  652.74	-1791.49	  407.19
     77.0700	  607.00	  631.32	-1766.07	  407.26
     77.1700	  596.00	  610.84	-1756.59	  407.32
     77.2700	  566.00	  592.65	-1768.40	  407.39
     77.3700	  555.00	  577.48	-1764.23	  407.45
     77.4700	  545.00	  565.54	-1762.29	  407.51
     77.5700	  615.00	  556.61	-1683.36	  407.57
     77.6700	  508.00	  550.24	-1783.99	  407.63
     77.7700	  562.00	  545.87	-1725.62	  407.69
     77.8700	  517.00	  542.97	-1767.72	  407.74
     77.9700	  508.00	  541.09	-1774.84	  407.80
     78.0700	  530.00	  539.90	-1751.65	  407.85
     78.1700	  520.00	  539.13	-1760.88	  407.90
     78.2700	  532.00	  538.65	-1748.40	  407.95
     78.3700	  502.00	  538.34	-1778.09	  408.00
     78.4700	  543.00	  538.17	-1736.92	  408.05
     78.5700	  545.00	  538.10	-1734.85	  408.09
     78.6700	  525.00	  538.12	-1754.87	  408.14
     78.7700	  534.00	  538.25	-1746.00	  408.18
     78.8700	  497.00	  538.50	-1783.25	  408.23
     78.9700	  565.00	  538.90	-1715.65	  408.27
     79.0700	  521.00	  539.48	-1760.23	  408.30
     79.1700	  488.00	  540.30	-1794.05	  408.34
     79.2700	  497.00	  541.39	-1786.14	  408.38
     79.3700	  537.00	  542.64	-1747.39	  408.41
     79.4700	  506.00	  544.49	-1780.24	  408.45
     79.5700	  500.00	  546.81	-1788.56	  408.48
     79.6700	  532.00	  549.70	-1759.45	  408.51
     79.7700	  524.00	  553.29	-1771.04	  408.54
     79.8700	  536.00	  557.72	-1763.47	  408.57
     79.9700	  535.00	  563.21	-1769.96	  408.59
     80.0700	  534.00	  569.99	-1777.74	  408.62
     80.1700	  566.00	  578.38	-1754.13	  408.64
     80.2700	  563.00	  588.71	-1767.46	  408.66
     80.3700	  597.00	  601.26	-1746.01	  408.68
     80.4700	  582.00	  616.12	-1775.87	  408.70
     80.5700	  615.00	  633.12	-1759.87	  408.72
     80.6700	  614.00	  651.76	-1779.51	  408.73
     80.7700	  639.00	  671.11	-1773.86	  408.75
     80.8700	  667.00	  689.91	-1764.66	  408.76
     80.9700	  683.00	  706.70	-1765.45	  408.77
     81.0700	  712.00	  720.08	-1749.83	  408.78
     81.1700	  744.00	  729.00	-1726.75	  408.79
     81.2700	  774.00	  732.76	-1700.51	  408.79
     81.3700	  778.00	  731.10	-1694.85	  408.80
     81.4700	  680.00	  724.27	-1786.02	  408.80
     81.5700	  762.00	  712.97	-1692.72	  408.80
     81.6700	  756.00	  698.19	-1683.94	  408.80
     81.7700	  731.00	  680.99	-1691.74	  408.80
     81.8700	  749.00	  662.51	-1655.26	  408.80
     81.9700	  727.00	  643.87	-1658.62	  408.79
     82.0700	  685.00	  626.01	-1682.76	  408.79
     82.1700	  697.00	  609.77	-1654.52	  408.78
     82.2700	  632.00	  595.53	-1705.28	  408.77
     82.3700	  635.00	  583.48	-1690.23	  408.76
     82.4700	  610.00	  573.62	-1705.37	  408.75
     82.5700	  587.00	  565.85	-1720.60	  408.73
     82.6700	  599.00	  560.00	-1702.75	  408.72
     82.7700	  514.00	  555.95	-1783.70	  408.70
     82.8700	  577.00	  553.50	-1718.25	  408.68
     82.9700	  510.00	  552.52	-1784.27	  408.66
     83.0700	  541.00	  552.88	-1753.63	  408.64
     83.1700	  544.00	  554.49	-1752.24	  408.62
     83.2700	  531.00	  557.23	-1767.98	  408.59
     83.3700	  523.00	  560.94	-1779.69	  408.56
     83.4700	  571.00	  565.40	-1736.15	  408.53
     83.5700	  571.00	  570.31	-1741.06	  408.50
     83.6700	  568.00	  575.28	-1749.03	  408.47
     83.7700	  570.00	  579.84	-1751.59	  408.44
     83.8700	  562.00	  583.43	-1763.18	  408.40
     83.9700	  555.00	  585.55	-1772.30	  408.37
     84.0700	  565.00	  585.82	-1762.57	  408.33
     84.1700	  587.00	  584.17	-1738.92	  408.29
     84.2700	  544.00	  580.82	-1778.57	  408.24
     84.3700	  602.00	  576.22	-1715.97	  408.20
     84.4700	  551.00	  570.89	-1761.64	  408.16
     84.5700	  500.00	  565.32	-1807.07	  408.11
     84.6700	  543.00	  559.89	-1758.64	  408.06
     84.7700	  492.00	  554.92	-1804.67	  408.01
     84.8700	  547.00	  550.59	-1745.34	  407.96
     84.9700	  522.00	  547.01	-1766.76	  407.91
     85.0700	  524.00	  544.18	-1761.93	  407.85
     85.1700	  523.00	  542.06	-1760.81	  407.79
     85.2700	  532.00	  540.59	-1750.34	  407.73
     85.3700	  518.00	  539.68	-1763.43	  407.67
     85.4700	  523.00	  539.23	-1757.98	  407.61
     85.5700	  510.00	  539.18	-1770.93	  407.55
     85.6700	  529.00	  539.48	-1752.23	  407.48
     85.7700	  528.00	  540.10	-1753.85	  407.42
     85.8700	  525.00	  541.07	-1757.82	  407.35
     85.9700	  552.00	  542.41	-1732.16	  407.28
     86.0700	  584.00	  544.21	-1701.96	  407.21
     86.1700	  499.00	  546.55	-1789.30	  407.13
     86.2700	  548.00	  549.56	-1743.31	  407.06
     86.3700	  548.00	  553.39	-1747.14	  406.98
     86.4700	  569.00	  558.18	-1730.93	  406.90
     86.5700	  581.00	  564.04	-1724.79	  406.82
     86.6700	  565.00	  571.03	-1747.78	  406.74
     86.7700	  594.00	  579.09	-1726.84	  406.66
     86.8700	  610.00	  587.69	-1719.44	  406.57
     86.9700	  579.00	  597.09	-1759.84	  406.48
     87.0700	  627.00	  606.41	-1721.16	  406.39
     87.1700	  579.00	  614.97	-1777.72	  406.30
     87.2700	  684.00	  621.93	-1679.68	  406.21
     87.3700	  683.00	  626.52	-1685.27	  406.12
     87.4700	  674.00	  628.11	-1695.86	  406.02
     87.5700	  606.00	  626.48	-1762.23	  405.93
     87.6700	  682.00	  621.89	-1681.64	  405.83
     87.7700	  667.00	  615.00	-1689.75	  405.73
     87.8700	  572.00	  606.67	-1776.42	  405.62
     87.9700	  622.00	  597.81	-1717.56	  405.52
     88.0700	  592.00	  589.22	-1738.97	  405.41
     88.1700	  606.00	  581.61	-1717.36	  405.31
     88.2700	  578.00	  575.49	-1739.24	  405.20
     88.3700	  600.00	  571.23	-1712.98	  405.09
     88.4700	  619.00	  568.99	-1691.74	  404.98
     88.5700	  538.00	  568.79	-1772.54	  404.86
     88.6700	  518.00	  570.46	-1794.21	  404.75
     88.7700	  605.00	  573.72	-1710.47	  404.63
     88.8700	  585.00	  578.18	-1734.93	  404.51
     88.9700	  609.00	  583.35	-1716.10	  404.39
     89.0700	  569.00	  588.67	-1761.42	  404.27
     89.1700	  630.00	  593.52	-1705.27	  404.14
     89.2700	  604.00	  597.29	-1735.04	  404.02
     89.3700	  571.00	  599.44	-1770.19	  403.89
     89.4700	  649.00	  599.61	-1692.36	  403.76
     89.5700	  647.00	  597.72	-1692.47	  403.63
     89.6700	  544.00	  593.98	-1791.73	  403.50
     89.7700	  561.00	  588.81	-1769.56	  403.37
     89.8700	  572.00	  582.72	-1752.47	  403.23
     89.9700	  596.00	  576.20	-1721.95	  403.10
     90.0700	  527.00	  569.70	-1784.45	  402.96
     90.1700	  513.00	  563.55	-1792.30	  402.82
     90.2700	  512.00	  558.00	-1787.75	  402.68
     90.3700	  526.00	  553.21	-1768.96	  402.53
     90.4700	  515.00	  549.24	-1775.99	  402.39
     90.5700	  510.00	  546.09	-1777.84	  402.24
     90.6700	  508.00	  543.71	-1777.46	  402.09
     90.7700	  522.00	  542.00	-1761.75	  401.95
     90.8700	  527.00	  540.88	-1755.63	  401.79
     90.9700	  526.00	  540.25	-1756.00	  401.64
     91.0700	  480.00	  540.07	-1801.82	  401.49
     91.1700	  477.00	  540.29	-1805.04	  401.33
     91.2700	  570.00	  540.91	-1712.66	  401.17
     91.3700	  528.00	  541.97	-1755.72	  401.02
     91.4700	  559.00	  543.57	-1726.32	  400.86
     91.5700	  555.00	  545.81	-1732.56	  400.69
     91.6700	  553.00	  548.87	-1737.62	  400.53
     91.7700	  583.00	  552.93	-1711.68	  400.36
     91.8700	  532.00	  558.20	-1767.95	  400.20
     91.9700	  561.00	  564.65	-1745.40	  400.03
     92.0700	  533.00	  572.93	-1781.68	  399.86
     92.1700	  577.00	  582.92	-1747.67	  399.69
     92.2700	  569.00	  594.67	-1767.42	  399.52
     92.3700	  621.00	  608.11	-1728.86	  399.34
     92.4700	  569.00	  623.05	-1795.80	  399.17
     92.5700	  656.00	  639.16	-1724.91	  398.99
     92.6700	  657.00	  655.97	-1740.72	  398.81
     92.7700	  665.00	  672.88	-1749.63	  398.63
     92.8700	  730.00	  689.20	-1700.95	  398.45
     92.9700	  694.00	  704.20	-1751.95	  398.27
     93.0700	  767.00	  717.29	-1692.04	  398.08
     93.1700	  809.00	  728.17	-1660.92	  397.90
     93.2700	  866.00	  736.95	-1612.70	  397.71
     93.3700	  807.00	  744.08	-1678.83	  397.52
     93.4700	  834.00	  750.27	-1658.02	  397.33
     93.5700	  799.00	  756.26	-1699.01	  397.14
     93.6700	  820.00	  762.75	-1684.50	  396.95
     93.7700	  860.00	  770.33	-1652.08	  396.75
     93.8700	  840.00	  779.51	-1681.26	  396.56
     93.9700	  807.00	  790.77	-1725.52	  396.36
     94.0700	  862.00	  804.40	-1684.15	  396.16
     94.1700	  934.00	  820.47	-1628.22	  395.96
     94.2700	  870.00	  838.69	-1710.44	  395.76
     94.3700	  858.00	  858.30	-1742.05	  395.56
     94.4700	  903.00	  878.09	-1716.84	  395.36
     94.5700	  838.00	  896.43	-1800.18	  395.15
     94.6700	  896.00	  911.44	-1757.19	  394.95
     94.7700	  906.00	  921.15	-1756.90	  394.74
     94.8700	  933.00	  923.88	-1732.63	  394.53
     94.9700	  887.00	  918.68	-1773.43	  394.32
     95.0700	  928.00	  905.59	-1719.34	  394.11
     95.1700	  867.00	  885.65	-1760.40	  393.90
     95.2700	  845.00	  860.55	-1757.30	  393.68
     95.3700	  774.00	  832.35	-1800.10	  393.47
     95.4700	  815.00	  803.18	-1729.93	  393.25
     95.5700	  743.00	  775.04	-1773.79	  393.03
     95.6700	  743.00	  749.76	-1748.51	  392.82
     95.7700	  729.00	  729.01	-1741.76	  392.60
     95.8700	  705.00	  714.23	-1750.98	  392.37
     95.9700	  695.00	  706.72	-1753.47	  392.15
     96.0700	  663.00	  707.56	-1786.31	  391.93
     96.1700	  703.00	  717.66	-1756.41	  391.71
     96.2700	  675.00	  737.72	-1804.47	  391.48
     96.3700	  762.00	  768.16	-1747.91	  391.25
     96.4700	  819.00	  809.07	-1731.82	  391.03
     96.5700	  790.00	  860.10	-1811.85	  390.80
     96.6700	  957.00	  920.41	-1705.16	  390.57
     96.7700	  945.00	  988.53	-1785.28	  390.34
     96.8700	  982.00	 1062.29	-1822.04	  390.10
     96.9700	 1107.00	 1138.88	-1773.63	  389.87
     97.0700	 1184.00	 1214.76	-1772.51	  389.64
     97.1700	 1278.00	 1285.89	-1749.64	  389.40
     97.2700	 1355.00	 1347.80	-1734.55	  389.17
     97.3700	 1408.00	 1396.03	-1729.78	  388.93
     97.4700	 1442.00	 1426.71	-1726.46	  388.69
     97.5700	 1394.00	 1437.30	-1785.05	  388.45
     97.6700	 1450.00	 1427.21	-1718.96	  388.21
     97.7700	 1427.00	 1397.83	-1712.58	  387.97
     97.8700	 1402.00	 1352.22	-1691.97	  387.73
     97.9700	 1219.00	 1294.34	-1817.09	  387.49
     98.0700	 1244.00	 1228.52	-1726.27	  387.24
     98.1700	 1122.00	 1158.99	-1778.74	  387.00
     98.2700	 1136.00	 1089.62	-1695.37	  386.76
     98.3700	  967.00	 1023.79	-1798.54	  386.51
     98.4700	  946.00	  964.37	-1760.12	  386.26
     98.5700	  922.00	  913.67	-1733.42	  386.02
     98.6700	  882.00	  873.49	-1733.24	  385.77
     98.7700	  805.00	  845.20	-1781.95	  385.52
     98.8700	  776.00	  829.79	-1795.54	  385.27
     98.9700	  801.00	  827.97	-1768.72	  385.02
     99.0700	  828.00	  840.18	-1753.93	  384.77
     99.1700	  802.00	  866.65	-1806.40	  384.51
     99.2700	  868.00	  907.40	-1781.15	  384.26
     99.3700	  955.00	  962.23	-1748.98	  384.01
     99.4700	 1067.00	 1030.60	-1705.35	  383.75
     99.5700	 1066.00	 1111.61	-1787.36	  383.50
     99.6700	 1144.00	 1203.82	-1801.57	  383.24
     99.7700	 1275.00	 1305.24	-1771.99	  382.99
     99.8700	 1424.00	 1413.20	-1730.95	  382.73
     99.9700	 1537.00	 1524.30	-1729.05	  382.47
    100.0700	 1653.00	 1634.49	-1723.24	  382.22
    100.1700	 1713.00	 1739.27	-1768.02	  381.96
    100.2700	 1829.00	 1834.08	-1746.83	  381.70
    100.3700	 2011.00	 1914.84	-1645.59	  381.44
    100.4700	 2024.00	 1978.34	-1696.09	  381.18
    100.5700	 2073.00	 2022.35	-1691.10	  380.92
    100.6700	 2153.00	 2045.54	-1634.29	  380.66
    100.7700	 2095.00	 2047.24	-1693.99	  380.40
    100.8700	 2034.00	 2027.39	-1735.14	  380.14
    100.9700	 2109.00	 1986.77	-1619.52	  379.88
    101.0700	 1918.00	 1927.34	-1751.09	  379.62
    101.1700	 1845.00	 1852.43	-1749.18	  379.35
    101.2700	 1834.00	 1766.51	-1674.26	  379.09
    101.3700	 1716.00	 1674.57	-1700.32	  378.83
    101.4700	 1584.00	 1581.61	-1739.36	  378.56
    101.5700	 1466.00	 1492.06	-1767.81	  378.30
    101.6700	 1422.00	 1409.49	-1729.24	  378.04
    101.7700	 1357.00	 1336.45	-1721.20	  377.77
    101.8700	 1311.00	 1274.40	-1705.15	  377.51
    101.9700	 1218.00	 1223.78	-1747.53	  377.24
    102.0700	 1222.00	 1184.04	-1703.79	  376.98
    102.1700	 1140.00	 1153.76	-1755.51	  376.72
    102.2700	 1125.00	 1130.85	-1747.60	  376.45
    102.3700	 1135.00	 1112.72	-1719.47	  376.19
    102.4700	 1083.00	 1096.58	-1755.33	  375.92
    102.5700	 1088.00	 1079.79	-1733.54	  375.66
    102.6700	 1108.00	 1060.17	-1693.92	  375.39
    102.7700	 1057.00	 1036.32	-1721.07	  375.13
    102.8700	  927.00	 1007.71	-1822.46	  374.86
    102.9700	  933.00	  974.59	-1783.34	  374.60
    103.0700	  923.00	  937.83	-1756.58	  374.33
    103.1700	  889.00	  898.58	-1751.33	  374.07
    103.2700	  829.00	  858.15	-1770.90	  373.80
    103.3700	  796.00	  817.78	-1763.53	  373.54
    103.4700	  755.00	  778.64	-1765.39	  373.28
    103.5700	  710.00	  741.71	-1773.46	  373.01
    103.6700	  702.00	  707.73	-1747.48	  372.75
    103.7700	  640.00	  677.25	-1779.00	  372.48
    103.8700	  677.00	  650.55	-1715.30	  372.22
    103.9700	  611.00	  627.74	-1758.49	  371.96
    104.0700	  607.00	  608.72	-1743.47	  371.69
    104.1700	  617.00	  593.27	-1718.02	  371.43
    104.2700	  581.00	  581.06	-1741.81	  371.17
    104.3700	  544.00	  571.73	-1769.48	  370.91
    104.4700	  565.00	  564.87	-1741.62	  370.65
    104.5700	  583.00	  560.09	-1718.84	  370.39
    104.6700	  521.00	  557.02	-1777.77	  370.13
    104.7700	  523.00	  555.33	-1774.08	  369.87
    104.8700	  528.00	  554.73	-1768.48	  369.61
    104.9700	  536.00	  554.98	-1760.73	  369.35
    105.0700	  525.00	  555.89	-1772.64	  369.09
    105.1700	  579.00	  557.30	-1720.05	  368.83
    105.2700	  555.00	  559.11	-1745.86	  368.58
    105.3700	  565.00	  561.24	-1737.99	  368.32
    105.4700	  529.00	  563.68	-1776.43	  368.07
    105.5700	  523.00	  566.46	-1785.21	  367.81
    105.6700	  528.00	  569.64	-1783.39	  367.56
    105.7700	  543.00	  573.32	-1772.07	  367.30
    105.8700	  589.00	  577.63	-1730.38	  367.05
    105.9700	  579.00	  582.68	-1745.43	  366.80
    106.0700	  555.00	  588.59	-1775.34	  366.55
    106.1700	  583.00	  595.39	-1754.14	  366.30
    106.2700	  526.00	  603.08	-1818.83	  366.05
    106.3700	  559.00	  611.59	-1794.34	  365.80
    106.4700	  598.00	  620.77	-1764.52	  365.55
    106.5700	  576.00	  630.43	-1796.18	  365.31
    106.6700	  609.00	  640.27	-1773.02	  365.06
    106.7700	  606.00	  649.97	-1785.72	  364.82
    106.8700	  650.00	  659.15	-1750.90	  364.58
    106.9700	  667.00	  667.42	-1742.17	  364.33
    107.0700	  663.00	  674.42	-1753.17	  364.09
    107.1700	  673.00	  679.85	-1748.60	  363.85
    107.2700	  680.00	  683.52	-1745.27	  363.62
    107.3700	  631.00	  685.45	-1796.20	  363.38
    107.4700	  716.00	  685.79	-1711.54	  363.14
    107.5700	  697.00	  684.86	-1729.61	  362.91
    107.6700	  673.00	  683.07	-1751.82	  362.68
    107.7700	  665.00	  680.85	-1757.60	  362.44
    107.8700	  665.00	  678.62	-1755.37	  362.21
    107.9700	  711.00	  676.72	-1707.47	  361.99
    108.0700	  690.00	  675.40	-1727.15	  361.76
    108.1700	  657.00	  674.80	-1759.55	  361.53
    108.2700	  628.00	  674.94	-1788.69	  361.31
    108.3700	  691.00	  675.72	-1726.47	  361.09
    108.4700	  714.00	  676.94	-1704.69	  360.86
    108.5700	  696.00	  678.30	-1724.05	  360.64
    108.6700	  668.00	  679.42	-1753.17	  360.43
    108.7700	  659.00	  679.89	-1762.64	  360.21
    108.8700	  712.00	  679.33	-1709.08	  360.00
    108.9700	  671.00	  677.39	-1748.14	  359.78
    109.0700	  696.00	  673.86	-1719.61	  359.57
    109.1700	  663.00	  668.68	-1747.43	  359.36
    109.2700	  675.00	  661.92	-1728.67	  359.16
    109.3700	  616.00	  653.77	-1779.52	  358.95
    109.4700	  675.00	  644.53	-1711.28	  358.75
    109.5700	  663.00	  634.53	-1713.28	  358.55
    109.6700	  669.00	  624.09	-1696.84	  358.35
    109.7700	  601.00	  613.56	-1754.31	  358.15
    109.8700	  610.00	  603.24	-1734.99	  357.96
    109.9700	  650.00	  593.38	-1685.13	  357.76
    110.0700	  594.00	  584.20	-1731.95	  357.57
    110.1700	  574.00	  575.86	-1743.61	  357.38
    110.2700	  559.00	  568.47	-1751.22	  357.20
    110.3700	  584.00	  562.09	-1719.84	  357.01
    110.4700	  581.00	  556.74	-1717.49	  356.83
    110.5700	  555.00	  552.38	-1739.13	  356.65
    110.6700	  503.00	  548.98	-1787.73	  356.47
    110.7700	  540.00	  546.45	-1748.20	  356.30
    110.8700	  571.00	  544.72	-1715.47	  356.13
    110.9700	  516.00	  543.68	-1769.43	  355.96
    111.0700	  537.00	  543.25	-1748.00	  355.79
    111.1700	  532.00	  543.35	-1753.10	  355.63
    111.2700	  527.00	  543.90	-1758.65	  355.47
    111.3700	  560.00	  544.84	-1726.59	  355.31
    111.4700	  557.00	  546.11	-1730.86	  355.15
    111.5700	  513.00	  547.66	-1776.41	  355.00
    111.6700	  512.00	  549.47	-1779.22	  354.85
    111.7700	  526.00	  551.52	-1767.27	  354.70
    111.8700	  587.00	  553.78	-1708.53	  354.55
    111.9700	  521.00	  556.27	-1777.02	  354.41
    112.0700	  546.00	  558.97	-1754.72	  354.27
    112.1700	  586.00	  561.91	-1717.66	  354.13
    112.2700	  552.00	  565.10	-1754.85	  354.00
    112.3700	  609.00	  568.56	-1701.31	  353.87
    112.4700	  613.00	  572.35	-1701.10	  353.74
    112.5700	  551.00	  576.51	-1767.26	  353.62
    112.6700	  611.00	  581.09	-1711.84	  353.50
    112.7700	  583.00	  586.20	-1744.95	  353.38
    112.8700	  669.00	  591.94	-1664.69	  353.27
    112.9700	  698.00	  598.45	-1642.20	  353.16
    113.0700	  692.00	  605.93	-1655.68	  353.05
    113.1700	  732.00	  614.61	-1624.36	  352.94
    113.2700	  697.00	  624.81	-1669.56	  352.84
    113.3700	  764.00	  636.95	-1614.70	  352.75
    113.4700	  830.00	  651.53	-1563.28	  352.65
    113.5700	  861.00	  669.19	-1549.94	  352.56
    113.6700	  827.00	  690.72	-1605.47	  352.48
    113.7700	  863.00	  717.07	-1595.82	  352.39
    113.8700	  947.00	  749.41	-1544.16	  352.31
    113.9700	  997.00	  789.07	-1533.82	  352.24
    114.0700	 1083.00	  837.66	-1496.41	  352.17
    114.1700	 1092.00	  896.94	-1546.69	  352.10
    114.2700	 1188.00	  968.90	-1522.65	  352.04
    114.3700	 1241.00	 1055.72	-1556.47	  351.98
    114.4700	 1292.00	 1159.66	-1609.41	  351.92
    114.5700	 1430.00	 1283.06	-1594.81	  351.87
    114.6700	 1531.00	 1428.21	-1638.96	  351.82
    114.7700	 1755.00	 1597.20	-1583.95	  351.78
    114.8700	 1870.00	 1791.92	-1663.67	  351.74
    114.9700	 2092.00	 2013.71	-1663.46	  351.70
    115.0700	 2401.00	 2263.44	-1604.19	  351.67
    115.1700	 2536.00	 2541.14	-1746.89	  351.65
    115.2700	 2928.00	 2845.91	-1659.66	  351.62
    115.3700	 3074.00	 3175.98	-1843.73	  351.61
    115.4700	 3310.00	 3528.27	-1960.02	  351.59
    115.5700	 3813.00	 3898.70	-1827.45	  351.59
    115.6700	 3935.00	 4281.82	-2088.57	  351.58
    115.7700	 4425.00	 4670.95	-1987.70	  351.58
    115.8700	 4755.00	 5058.40	-2045.15	  351.59
    115.9700	 5074.00	 5435.16	-2102.91	  351.60
    116.0700	 5636.00	 5791.53	-1897.28	  351.61
    116.1700	 6004.00	 6116.95	-1854.70	  351.63
    116.2700	 6295.00	 6400.60	-1847.35	  351.66
    116.3700	 6555.00	 6632.11	-1818.86	  351.69
    116.4700	 6815.00	 6802.03	-1728.78	  351.72
    116.5700	 6967.00	 6903.01	-1677.76	  351.76
    116.6700	 6950.00	 6930.50	-1722.25	  351.80
    116.7700	 6876.00	 6883.38	-1749.13	  351.85
    116.8700	 6655.00	 6764.14	-1850.89	  351.91
    116.9700	 6687.00	 6578.53	-1633.28	  351.97
    117.0700	 6489.00	 6334.74	-1587.49	  352.03
    117.1700	 6304.00	 6042.67	-1480.42	  352.10
    117.2700	 5767.00	 5712.96	-1687.71	  352.18
    117.3700	 5409.00	 5356.18	-1688.93	  352.26
    117.4700	 4974.00	 4982.60	-1750.35	  352.35
    117.5700	 4509.00	 4601.47	-1834.22	  352.44
    117.6700	 4411.00	 4221.21	-1551.96	  352.54
    117.7700	 3973.00	 3849.07	-1617.82	  352.64
    117.8700	 3611.00	 3490.92	-1621.67	  352.75
    117.9700	 3215.00	 3151.66	-1678.41	  352.87
    118.0700	 2876.00	 2834.72	-1700.47	  352.99
    118.1700	 2545.00	 2542.61	-1739.36	  353.12
    118.2700	 2299.00	 2276.74	-1719.49	  353.25
    118.3700	 1971.00	 2037.51	-1808.26	  353.39
    118.4700	 1795.00	 1824.69	-1771.44	  353.53
    118.5700	 1525.00	 1637.27	-1854.02	  353.69
    118.6700	 1420.00	 1473.85	-1795.60	  353.84
    118.7700	 1243.00	 1332.66	-1831.41	  354.01
    118.8700	 1167.00	 1211.63	-1786.38	  354.18
    118.9700	 1045.00	 1108.69	-1805.44	  354.35
    119.0700	  912.00	 1021.66	-1851.41	  354.54
    119.1700	  858.00	  948.50	-1832.25	  354.72
    119.2700	  843.00	  887.27	-1786.02	  354.92
    119.3700	  819.00	  836.18	-1758.93	  355.12
    119.4700	  768.00	  793.65	-1767.40	  355.33
    119.5700	  689.00	  758.29	-1811.04	  355.55
    119.6700	  686.00	  728.89	-1784.64	  355.77
    119.7700	  619.00	  704.44	-1827.19	  356.00
    119.8700	  619.00	  684.07	-1806.82	  356.23
    119.9700	  581.00	  667.08	-1827.83	  356.48
    120.0700	  629.00	  652.89	-1765.64	  356.73
    120.1700	  614.00	  641.02	-1768.77	  356.98
    120.2700	  601.00	  631.10	-1771.85	  357.25
    120.3700	  570.00	  622.82	-1794.57	  357.52
    120.4700	  552.00	  615.94	-1805.69	  357.80
    120.5700	  608.00	  610.26	-1744.01	  358.08
    120.6700	  514.00	  605.64	-1833.39	  358.37
    120.7700	  600.00	  601.96	-1743.71	  358.67
    120.8700	  590.00	  599.12	-1750.87	  358.98
    120.9700	  579.00	  597.05	-1759.80	  359.30
    121.0700	  548.00	  595.69	-1789.44	  359.62
    121.1700	  591.00	  594.99	-1745.74	  359.95
    121.2700	  569.00	  594.90	-1767.65	  360.29
    121.3700	  552.00	  595.39	-1785.14	  360.64
    121.4700	  593.00	  596.39	-1745.14	  360.99
    121.5700	  584.00	  597.88	-1755.63	  361.35
    121.6700	  587.00	  599.78	-1754.53	  361.72
    121.7700	  594.00	  602.05	-1749.80	  362.10
    121.8700	  570.00	  604.60	-1776.35	  362.48
    121.9700	  575.00	  607.38	-1774.13	  362.88
    122.0700	  607.00	  610.31	-1745.06	  363.28
    122.1700	  590.00	  613.29	-1765.04	  363.69
    122.2700	  613.00	  616.23	-1744.98	  364.11
    122.3700	  625.00	  619.03	-1735.78	  364.54
    122.4700	  682.00	  621.60	-1681.35	  364.97
    122.5700	  626.00	  623.83	-1739.58	  365.42
    122.6700	  616.00	  625.66	-1751.41	  365.87
    122.7700	  663.00	  627.00	-1705.75	  366.33
    122.8700	  620.00	  627.82	-1749.57	  366.81
    122.9700	  677.00	  628.07	-1692.82	  367.28
    123.0700	  663.00	  627.77	-1706.52	  367.77
    123.1700	  662.00	  626.92	-1706.67	  368.27
    123.2700	  655.00	  625.58	-1712.33	  368.78
    123.3700	  598.00	  623.78	-1767.53	  369.29
    123.4700	  648.00	  621.60	-1715.35	  369.82
    123.5700	  621.00	  619.11	-1739.86	  370.35
    123.6700	  636.00	  616.37	-1722.12	  370.89
    123.7700	  661.00	  613.45	-1694.20	  371.45
    123.8700	  604.00	  610.42	-1748.17	  372.01
    123.9700	  655.00	  607.35	-1694.10	  372.58
    124.0700	  634.00	  604.27	-1712.02	  373.16
    124.1700	  586.00	  601.26	-1757.01	  373.75
    124.2700	  595.00	  598.34	-1745.09	  374.35
    124.3700	  583.00	  595.56	-1754.31	  374.96
    124.4700	  613.00	  592.93	-1721.68	  375.58
    124.5700	  573.00	  590.49	-1759.24	  376.21
    124.6700	  616.00	  588.24	-1713.99	  376.86
    124.7700	  625.00	  586.19	-1702.94	  377.51
    124.8700	  602.00	  584.36	-1724.11	  378.17
    124.9700	  569.00	  496.03	-1668.78	  378.84
    125.0700	  586.00	  496.71	-1741.75	  379.52
    125.1700	  586.00	  497.40	-1741.75	  380.21
    125.2700	  552.00	  498.11	-1741.75	  380.91
    125.3700	  566.00	  498.82	-1741.75	  381.62
    125.4700	  592.00	  499.54	-1741.75	  382.35
    125.5700	  586.00	  500.28	-1741.75	  383.08
    125.6700	  605.00	  501.02	-1741.75	  383.83
    125.7700	  591.00	  501.78	-1741.75	  384.58
    125.8700	  555.00	  502.54	-1741.75	  385.35
    125.9700	  597.00	  503.32	-1741.75	  386.13
    126.0700	  616.00	  504.11	-1741.75	  386.91
    126.1700	  567.00	  504.91	-1741.75	  387.71
    126.2700	  602.00	  505.72	-1741.75	  388.52
    126.3700	  597.00	  506.54	-1741.75	  389.35
    126.4700	  576.00	  507.37	-1741.75	  390.18
    126.5700	  616.00	  508.22	-1741.75	  391.02
    126.6700	  657.00	  509.08	-1741.75	  391.88
    126.7700	  639.00	  509.94	-1741.75	  392.75
    126.8700	  598.00	  510.82	-1741.75	  393.63
    126.9700	  607.00	  511.71	-1741.75	  394.52
    127.0700	  639.00	  512.62	-1741.75	  395.42
    127.1700	  686.00	  513.53	-1741.75	  396.34
    127.2700	  629.00	  514.46	-1741.75	  397.27
    127.3700	  633.00	  515.40	-1741.75	  398.21
    127.4700	  629.00	  516.35	-1741.75	  399.16
    127.5700	  730.00	  517.32	-1741.75	  400.12
    127.6700	  661.00	  518.29	-1741.75	  401.10
    127.7700	  697.00	  519.28	-1741.75	  402.09
    127.8700	  742.00	  520.28	-1741.75	  403.09
    127.9700	  748.00	  521.29	-1741.75	  404.10
    128.0700	  753.00	  522.32	-1741.75	  405.13
    128.1700	  795.00	  523.36	-1741.75	  406.17
    128.2700	  746.00	  524.41	-1741.75	  407.22
    128.3700	  735.00	  525.48	-1741.75	  408.28
    128.4700	  783.00	  526.55	-1741.75	  409.36
    128.5700	    0.00	  527.65	-1741.75	  410.45
    128.6700	    0.00	  528.75	-1741.75	  411.56
     12.3066	        	        	        	        	       0	(  0  0  2)	  0  1
     24.8870	        	        	        	        	       0	(  0  0  4)	  0  1
     28.3337	        	        	        	        	       0	(  1  0  0)	  0  1
     29.0306	        	        	        	        	       0	(  1  0  1)	  0  1
     31.0360	        	        	        	        	       0	(  1  0  2)	  0  1
     34.1432	        	        	        	        	       0	(  1  0  3)	  0  1
     37.7831	        	        	        	        	       0	(  0  0  6)	  0  1
     38.1189	        	        	        	        	       0	(  1  0  4)	  0  1
     42.7674	        	        	        	        	       0	(  1  0  5)	  0  1
     47.9496	        	        	        	        	       0	(  1  0  6)	  0  1
     50.2701	        	        	        	        	       0	(  1  1  0)	  0  1
     51.2011	        	        	        	        	       0	(  0  0  8)	  0  1
     51.9924	        	        	        	        	       0	(  1  1  2)	  0  1
     53.5782	        	        	        	        	       0	(  1  0  7)	  0  1
     56.9382	        	        	        	        	       0	(  1  1  4)	  0  1
     58.7669	        	        	        	        	       0	(  2  0  0)	  0  1
     59.1583	        	        	        	        	       0	(  2  0  1)	  0  1
     59.6065	        	        	        	        	       0	(  1  0  8)	  0  1
     60.3232	        	        	        	        	       0	(  2  0  2)	  0  1
     62.2356	        	        	        	        	       0	(  2  0  3)	  0  1
     64.6298	        	        	        	        	       0	(  1  1  6)	  0  1
     64.8586	        	        	        	        	       0	(  2  0  4)	  0  1
     65.4256	        	        	        	        	       0	(  0  0 10)	  0  1
     66.0205	        	        	        	        	       0	(  1  0  9)	  0  1
     68.1514	        	        	        	        	       0	(  2  0  5)	  0  1
     72.0773	        	        	        	        	       0	(  2  0  6)	  0  1
     72.8340	        	        	        	        	       0	(  1  0 10)	  0  1
     74.6635	        	        	        	        	       0	(  1  1  8)	  0  1
     76.6095	        	        	        	        	       0	(  2  0  7)	  0  1
     80.0887	        	        	        	        	       0	(  1  0 11)	  0  1
     80.8999	        	        	        	        	       0	(  0  0 12)	  0  1
     81.0074	        	        	        	        	       0	(  2  1  0)	  0  1
     81.3471	        	        	        	        	       0	(  2  1  1)	  0  1
     81.7375	        	        	        	        	       0	(  2  0  8)	  0  1
     82.3645	        	        	        	        	       0	(  2  1  2)	  0  1
     84.0551	        	        	        	        	       0	(  2  1  3)	  0  1
     86.4136	        	        	        	        	       0	(  2  1  4)	  0  1
     86.9294	        	        	        	        	       0	(  1  1 10)	  0  1
     87.4729	        	        	        	        	       0	(  2  0  9)	  0  1
     87.8594	        	        	        	        	       0	(  1  0 12)	  0  1
     89.4380	        	        	        	        	       0	(  2  1  5)	  0  1
     93.1337	        	        	        	        	       0	(  2  1  6)	  0  1
     93.8572	        	        	        	        	       0	(  2  0 10)	  0  1
     94.8957	        	        	        	        	       0	(  3  0  0)	  0  1
     95.2329	        	        	        	        	       0	(  3  0  1)	  0  1
     96.2457	        	        	        	        	       0	(  3  0  2)	  0  1
     96.2684	        	        	        	        	       0	(  1  0 13)	  0  1
     97.5202	        	        	        	        	       0	(  2  1  7)	  0  1
     97.9382	        	        	        	        	       0	(  3  0  3)	  0  1
     98.4305	        	        	        	        	       0	(  0  0 14)	  0  1
    100.3200	        	        	        	        	       0	(  3  0  4)	  0  1
    100.9753	        	        	        	        	       0	(  2  0 11)	  0  1
    101.7921	        	        	        	        	       0	(  1  1 12)	  0  1
    102.6400	        	        	        	        	       0	(  2  1  8)	  0  1
    103.4101	        	        	        	        	       0	(  3  0  5)	  0  1
    105.5155	        	        	        	        	       0	(  1  0 14)	  0  1
    107.2433	        	        	        	        	       0	(  3  0  6)	  0  1
    108.5736	        	        	        	        	       0	(  2  1  9)	  0  1
    108.9818	        	        	        	        	       0	(  2  0 12)	  0  1
    111.8811	        	        	        	        	       0	(  3  0  7)	  0  1
    115.4662	        	        	        	        	       0	(  2  1 10)	  0  1
    115.9514	        	        	        	        	       0	(  1  0 15)	  0  1
    116.6198	        	        	        	        	       0	(  2  2  0)	  0  1
    117.4313	        	        	        	        	       0	(  3  0  8)	  0  1
    118.1342	        	        	        	        	       0	(  2  2  2)	  0  1
    118.1598	        	        	        	        	       0	(  2  0 13)	  0  1
    119.9032	        	        	        	        	       0	(  0  0 16)	  0  1
    120.6233	        	        	        	        	       0	(  1  1 14)	  0  1
    122.8172	        	        	        	        	       0	(  2  2  4)	  0  1
    123.5877	        	        	        	        	       0	(  2  1 11)	  0  1
    124.0869	        	        	        	        	       0	(  3  0  9)	  0  1
    124.6845	        	        	        	        	       0	(  3  1  0)	  0  1
    125.0946	        	        	        	        	       0	(  3  1  1)	  0  1
    126.3373	        	        	        	        	       0	(  3  1  2)	  0  1
    128.2832	        	        	        	        	       0	(  1  0 16)	  0  1
    128.4544	        	        	        	        	       0	(  3  1  3)	  0  1
    129.0803	        	        	        	        	       0	(  2  0 14)	  0  1
    131.2521	        	        	        	        	       0	(  2  2  6)	  0  1
    131.5286	        	        	        	        	       0	(  3  1  4)	  0  1
    132.2216	        	        	        	        	       0	(  3  0 10)	  0  1
    133.4917	        	        	        	        	       0	(  2  1 12)	  0  1
    135.7131	        	        	        	        	       0	(  3  1  5)	  0  1
    141.3047	        	        	        	        	       0	(  3  1  6)	  0  1
    142.6905	        	        	        	        	       0	(  3  0 11)	  0  1
    143.2030	        	        	        	        	       0	(  2  0 15)	  0  1
    144.4298	        	        	        	        	       0	(  1  0 17)	  0  1
    145.4754	        	        	        	        	       0	(  2  2  8)	  0  1
    146.6320	        	        	        	        	       0	(  2  1 13)	  0  1
    148.9718	        	        	        	        	       0	(  3  1  7)	  0  1
    149.5215	        	        	        	        	       0	(  1  1 16)	  0  1
    153.8980	        	        	        	        	       0	(  0  0 18)	  0  1
    158.5439	        	        	        	        	       0	(  3  0 12)	  0  1
    158.8378	        	        	        	        	       0	(  4  0  0)	  0  1
    159.7940	        	        	        	        	       0	(  4  0  1)	  0  1
    160.9510	        	        	        	        	       0	(  3  1  8)	  0  1
    162.9704	        	        	        	        	       0	(  4  0  2)	  0  1
    169.5334	        	        	        	        	       0	(  2  0 16)	  0  1
    170.3088	        	        	        	        	       0	(  4  0  3)	  0  1
    173.9156	        	        	        	        	       0	(  2  1 14)	  0  1
