MSG Master    CELL:    5.91092   5.91092  23.23886   90.0000   90.0000  120.0000   SPGR: P 63/m m c             TEMP:    933.95
  1   1280     2.52000     0.00000    -0.12773     0.00000     0.00000    0
    98     0     2
       0.00000      10.00000
     125.00000     130.00000
 2Theta	Yobs	Ycal	Yobs-Ycal	Backg	Posr	(hkl)	K
      0.7700	    0.00	  524.30	-1727.50	  412.23
      0.8700	    0.00	  525.23	-1727.50	  413.15
      0.9700	   36.00	  526.14	-1727.50	  414.07
      1.0700	   47.00	  527.04	-1727.50	  414.97
      1.1700	   38.00	  527.93	-1727.50	  415.86
      1.2700	   44.00	  528.80	-1727.50	  416.73
      1.3700	   56.00	  529.67	-1727.50	  417.60
      1.4700	   98.00	  530.52	-1727.50	  418.45
      1.5700	  281.00	  531.36	-1727.50	  419.29
      1.6700	  437.00	  532.19	-1727.50	  420.11
      1.7700	  561.00	  533.00	-1727.50	  420.93
      1.8700	  705.00	  533.80	-1727.50	  421.73
      1.9700	  752.00	  534.60	-1727.50	  422.52
      2.0700	  775.00	  535.37	-1727.50	  423.30
      2.1700	  769.00	  536.14	-1727.50	  424.07
      2.2700	  754.00	  536.90	-1727.50	  424.83
      2.3700	  713.00	  537.64	-1727.50	  425.57
      2.4700	  721.00	  538.38	-1727.50	  426.31
      2.5700	  695.00	  539.10	-1727.50	  427.03
      2.6700	  662.00	  539.81	-1727.50	  427.74
      2.7700	  630.00	  540.51	-1727.50	  428.44
      2.8700	  640.00	  541.20	-1727.50	  429.13
      2.9700	  591.00	  541.87	-1727.50	  429.80
      3.0700	  617.00	  542.54	-1727.50	  430.47
      3.1700	  561.00	  543.20	-1727.50	  431.12
      3.2700	  638.00	  543.84	-1727.50	  431.77
      3.3700	  761.00	  544.47	-1727.50	  432.40
      3.4700	  827.00	  545.10	-1727.50	  433.02
      3.5700	  960.00	  545.71	-1727.50	  433.64
      3.6700	 1003.00	  546.31	-1727.50	  434.24
      3.7700	 1049.00	  546.90	-1727.50	  434.83
      3.8700	 1099.00	  547.48	-1727.50	  435.41
      3.9700	 1167.00	  548.05	-1727.50	  435.98
      4.0700	 1230.00	  548.61	-1727.50	  436.54
      4.1700	 1227.00	  549.16	-1727.50	  437.09
      4.2700	 1186.00	  549.70	-1727.50	  437.63
      4.3700	 1263.00	  550.23	-1727.50	  438.16
      4.4700	 1194.00	  550.75	-1727.50	  438.68
      4.5700	 1145.00	  551.26	-1727.50	  439.19
      4.6700	 1108.00	  551.77	-1727.50	  439.69
      4.7700	 1074.00	  552.26	-1727.50	  440.18
      4.8700	 1030.00	  552.74	-1727.50	  440.67
      4.9700	 1002.00	  553.21	-1727.50	  441.14
      5.0700	 1038.00	  553.67	-1727.50	  441.60
      5.1700	  985.00	  554.12	-1727.50	  442.05
      5.2700	  967.00	  554.57	-1727.50	  442.49
      5.3700	  998.00	  555.00	-1727.50	  442.93
      5.4700	  880.00	  555.42	-1727.50	  443.35
      5.5700	  912.00	  555.84	-1727.50	  443.77
      5.6700	  880.00	  556.25	-1727.50	  444.18
      5.7700	  863.00	  556.64	-1727.50	  444.57
      5.8700	  815.00	  557.03	-1727.50	  444.96
      5.9700	  806.00	  557.41	-1727.50	  445.34
      6.0700	  815.00	  557.78	-1727.50	  445.71
      6.1700	  850.00	  558.14	-1727.50	  446.07
      6.2700	  793.00	  558.50	-1727.50	  446.43
      6.3700	  758.00	  558.84	-1727.50	  446.77
      6.4700	  796.00	  559.18	-1727.50	  447.11
      6.5700	  819.00	  559.51	-1727.50	  447.44
      6.6700	  775.00	  559.83	-1727.50	  447.75
      6.7700	  731.00	  560.14	-1727.50	  448.07
      6.8700	  726.00	  560.44	-1727.50	  448.37
      6.9700	  747.00	  560.73	-1727.50	  448.66
      7.0700	  758.00	  561.02	-1727.50	  448.95
      7.1700	  729.00	  561.30	-1727.50	  449.23
      7.2700	  655.00	  561.57	-1727.50	  449.50
      7.3700	  659.00	  561.83	-1727.50	  449.76
      7.4700	  650.00	  562.08	-1727.50	  450.01
      7.5700	  665.00	  562.33	-1727.50	  450.26
      7.6700	  634.00	  562.57	-1727.50	  450.50
      7.7700	  646.00	  562.80	-1727.50	  450.73
      7.8700	  677.00	  563.02	-1727.50	  450.95
      7.9700	  601.00	  563.24	-1727.50	  451.17
      8.0700	  624.00	  563.45	-1727.50	  451.38
      8.1700	  675.00	  563.65	-1727.50	  451.58
      8.2700	  679.00	  563.84	-1727.50	  451.77
      8.3700	  632.00	  564.03	-1727.50	  451.96
      8.4700	  637.00	  564.21	-1727.50	  452.14
      8.5700	  609.00	  564.38	-1727.50	  452.31
      8.6700	  604.00	  564.54	-1727.50	  452.47
      8.7700	  651.00	  564.70	-1727.50	  452.63
      8.8700	  584.00	  564.85	-1727.50	  452.78
      8.9700	  612.00	  565.00	-1727.50	  452.92
      9.0700	  601.00	  565.13	-1727.50	  453.06
      9.1700	  625.00	  565.26	-1727.50	  453.19
      9.2700	  594.00	  565.39	-1727.50	  453.31
      9.3700	  576.00	  565.50	-1727.50	  453.43
      9.4700	  592.00	  565.61	-1727.50	  453.54
      9.5700	  576.00	  565.71	-1727.50	  453.64
      9.6700	  554.00	  565.81	-1727.50	  453.74
      9.7700	  577.00	  565.90	-1727.50	  453.83
      9.8700	  601.00	  565.98	-1727.50	  453.91
      9.9700	  628.00	  566.06	-1727.50	  453.99
     10.0700	  584.00	  567.77	-1711.27	  454.06
     10.1700	  552.00	  568.01	-1743.51	  454.13
     10.2700	  640.00	  568.29	-1655.79	  454.18
     10.3700	  578.00	  568.63	-1718.13	  454.24
     10.4700	  577.00	  569.05	-1719.55	  454.28
     10.5700	  589.00	  569.63	-1708.13	  454.32
     10.6700	  594.00	  570.44	-1703.94	  454.36
     10.7700	  550.00	  571.57	-1749.07	  454.39
     10.8700	  564.00	  573.12	-1736.62	  454.41
     10.9700	  607.00	  575.09	-1695.59	  454.43
     11.0700	  605.00	  577.48	-1699.98	  454.44
     11.1700	  595.00	  580.30	-1712.80	  454.44
     11.2700	  564.00	  583.60	-1747.10	  454.44
     11.3700	  596.00	  587.45	-1718.95	  454.44
     11.4700	  601.00	  592.00	-1718.50	  454.43
     11.5700	  635.00	  597.46	-1689.96	  454.41
     11.6700	  565.00	  604.19	-1766.69	  454.39
     11.7700	  630.00	  612.63	-1710.13	  454.36
     11.8700	  646.00	  623.13	-1704.63	  454.33
     11.9700	  688.00	  635.44	-1674.94	  454.29
     12.0700	  698.00	  647.76	-1677.26	  454.25
     12.1700	  681.00	  655.96	-1702.46	  454.20
     12.2700	  669.00	  653.99	-1712.49	  454.14
     12.3700	  639.00	  639.16	-1727.66	  454.09
     12.4700	  645.00	  618.36	-1700.86	  454.02
     12.5700	  581.00	  600.14	-1746.64	  453.95
     12.6700	  595.00	  587.48	-1719.98	  453.88
     12.7700	  594.00	  579.79	-1713.29	  453.80
     12.8700	  582.00	  575.42	-1720.92	  453.72
     12.9700	  527.00	  572.90	-1773.40	  453.63
     13.0700	  558.00	  571.31	-1740.81	  453.54
     13.1700	  597.00	  570.20	-1700.70	  453.44
     13.2700	  556.00	  569.35	-1740.85	  453.34
     13.3700	  545.00	  568.67	-1751.17	  453.23
     13.4700	  560.00	  568.11	-1735.61	  453.12
     13.5700	  533.00	  567.64	-1762.14	  453.01
     13.6700	  569.00	  567.23	-1725.73	  452.89
     13.7700	  563.00	  566.87	-1731.37	  452.77
     13.8700	  540.00	  566.54	-1754.04	  452.64
     13.9700	  534.00	  566.24	-1759.74	  452.51
     14.0700	  584.00	  565.96	-1709.46	  452.37
     14.1700	  576.00	  565.73	-1717.23	  452.23
     14.2700	  565.00	  565.48	-1727.98	  452.09
     14.3700	  523.00	  565.24	-1769.74	  451.94
     14.4700	  607.00	  565.01	-1685.51	  451.78
     14.5700	  549.00	  564.78	-1743.28	  451.63
     14.6700	  595.00	  564.56	-1697.06	  451.47
     14.7700	  539.00	  564.34	-1752.84	  451.30
     14.8700	  557.00	  564.12	-1734.62	  451.13
     14.9700	  554.00	  563.91	-1737.41	  450.96
     15.0700	  522.00	  563.69	-1769.19	  450.79
     15.1700	  555.00	  563.48	-1735.98	  450.61
     15.2700	  581.00	  563.27	-1709.77	  450.43
     15.3700	  611.00	  563.05	-1679.55	  450.24
     15.4700	  574.00	  562.83	-1716.33	  450.05
     15.5700	  552.00	  562.62	-1738.12	  449.86
     15.6700	  553.00	  562.40	-1736.90	  449.66
     15.7700	  546.00	  562.18	-1743.68	  449.46
     15.8700	  520.00	  561.96	-1769.46	  449.25
     15.9700	  532.00	  561.73	-1757.23	  449.05
     16.0700	  598.00	  561.51	-1691.01	  448.84
     16.1700	  515.00	  561.28	-1773.78	  448.62
     16.2700	  554.00	  561.05	-1734.55	  448.41
     16.3700	  529.00	  560.82	-1759.32	  448.19
     16.4700	  549.00	  560.58	-1739.08	  447.96
     16.5700	  542.00	  560.35	-1745.85	  447.74
     16.6700	  563.00	  560.11	-1724.61	  447.51
     16.7700	  527.00	  559.87	-1760.37	  447.28
     16.8700	  565.00	  559.63	-1722.13	  447.04
     16.9700	  505.00	  559.38	-1781.88	  446.80
     17.0700	  553.00	  559.14	-1733.64	  446.56
     17.1700	  547.00	  558.89	-1739.39	  446.32
     17.2700	  577.00	  558.63	-1709.13	  446.07
     17.3700	  561.00	  558.38	-1724.88	  445.83
     17.4700	  543.00	  558.12	-1742.62	  445.57
     17.5700	  538.00	  557.87	-1747.37	  445.32
     17.6700	  570.00	  557.61	-1715.11	  445.06
     17.7700	  590.00	  557.45	-1694.95	  444.80
     17.8700	  536.00	  557.19	-1748.69	  444.54
     17.9700	  536.00	  556.92	-1748.42	  444.28
     18.0700	  541.00	  556.65	-1743.15	  444.01
     18.1700	  534.00	  556.38	-1749.88	  443.74
     18.2700	  535.00	  556.21	-1748.71	  443.47
     18.3700	  580.00	  555.94	-1703.44	  443.20
     18.4700	  609.00	  555.66	-1674.16	  442.92
     18.5700	  541.00	  555.39	-1741.89	  442.64
     18.6700	  534.00	  555.11	-1748.61	  442.36
     18.7700	  527.00	  554.84	-1755.34	  442.08
     18.8700	  526.00	  554.56	-1756.06	  441.79
     18.9700	  528.00	  554.27	-1753.77	  441.51
     19.0700	  480.00	  553.99	-1801.49	  441.22
     19.1700	  535.00	  553.71	-1746.21	  440.93
     19.2700	  555.00	  553.42	-1725.92	  440.63
     19.3700	  559.00	  553.13	-1721.63	  440.34
     19.4700	  550.00	  552.85	-1730.35	  440.04
     19.5700	  578.00	  552.56	-1702.06	  439.74
     19.6700	  541.00	  552.26	-1738.76	  439.44
     19.7700	  576.00	  551.97	-1703.47	  439.14
     19.8700	  483.00	  551.68	-1796.18	  438.83
     19.9700	  527.00	  551.42	-1751.92	  438.53
     20.0700	  577.00	  551.12	-1701.62	  438.22
     20.1700	  548.00	  550.83	-1730.33	  437.91
     20.2700	  551.00	  550.53	-1727.03	  437.60
     20.3700	  554.00	  550.23	-1723.73	  437.29
     20.4700	  522.00	  549.93	-1755.43	  436.97
     20.5700	  570.00	  549.64	-1707.14	  436.66
     20.6700	  512.00	  549.34	-1764.84	  436.34
     20.7700	  508.00	  549.04	-1768.54	  436.02
     20.8700	  559.00	  548.74	-1717.24	  435.70
     20.9700	  528.00	  548.44	-1747.94	  435.38
     21.0700	  529.00	  548.14	-1746.64	  435.06
     21.1700	  532.00	  547.84	-1743.34	  434.73
     21.2700	  543.00	  547.54	-1732.04	  434.41
     21.3700	  538.00	  547.25	-1736.75	  434.08
     21.4700	  493.00	  546.95	-1781.45	  433.75
     21.5700	  565.00	  546.65	-1709.15	  433.42
     21.6700	  569.00	  546.36	-1704.86	  433.09
     21.7700	  523.00	  546.07	-1750.57	  432.76
     21.8700	  563.00	  545.78	-1710.28	  432.43
     21.9700	  532.00	  545.49	-1740.99	  432.09
     22.0700	  575.00	  545.21	-1697.71	  431.76
     22.1700	  569.00	  544.88	-1703.38	  431.42
     22.2700	  531.00	  544.60	-1741.10	  431.09
     22.3700	  520.00	  544.33	-1751.83	  430.75
     22.4700	  513.00	  544.07	-1758.57	  430.41
     22.5700	  552.00	  543.97	-1719.47	  430.07
     22.6700	  538.00	  543.73	-1733.23	  429.73
     22.7700	  537.00	  543.50	-1734.00	  429.39
     22.8700	  598.00	  543.28	-1672.78	  429.05
     22.9700	  543.00	  543.07	-1727.57	  428.70
     23.0700	  540.00	  542.89	-1730.39	  428.36
     23.1700	  531.00	  542.74	-1739.24	  428.02
     23.2700	  546.00	  542.62	-1724.12	  427.67
     23.3700	  539.00	  542.53	-1731.03	  427.33
     23.4700	  565.00	  542.51	-1705.01	  426.98
     23.5700	  551.00	  542.56	-1719.06	  426.63
     23.6700	  534.00	  542.72	-1736.22	  426.29
     23.7700	  532.00	  543.04	-1738.54	  425.94
     23.8700	  561.00	  543.65	-1710.15	  425.59
     23.9700	  544.00	  544.73	-1728.23	  425.24
     24.0700	  518.00	  546.62	-1756.12	  424.89
     24.1700	  547.00	  549.81	-1730.31	  424.54
     24.2700	  631.00	  554.95	-1651.45	  424.19
     24.3700	  563.00	  562.66	-1727.16	  423.84
     24.4700	  539.00	  573.29	-1761.79	  423.49
     24.5700	  599.00	  586.47	-1714.97	  423.14
     24.6700	  621.00	  600.40	-1706.90	  422.79
     24.7700	  634.00	  611.10	-1704.60	  422.43
     24.8700	  648.00	  612.77	-1692.27	  422.08
     24.9700	  621.00	  602.26	-1708.76	  421.73
     25.0700	  623.00	  584.86	-1689.36	  421.38
     25.1700	  564.00	  568.33	-1731.83	  421.02
     25.2700	  586.00	  556.12	-1697.62	  420.67
     25.3700	  625.00	  548.33	-1650.83	  420.32
     25.4700	  566.00	  543.76	-1705.26	  419.96
     25.5700	  565.00	  541.13	-1703.63	  419.61
     25.6700	  555.00	  539.51	-1712.01	  419.26
     25.7700	  539.00	  538.43	-1726.93	  418.90
     25.8700	  617.00	  537.64	-1648.14	  418.55
     25.9700	  531.00	  537.05	-1733.55	  418.20
     26.0700	  555.00	  536.60	-1709.10	  417.84
     26.1700	  560.00	  536.28	-1703.78	  417.49
     26.2700	  560.00	  536.06	-1703.56	  417.14
     26.3700	  545.00	  535.94	-1718.44	  416.78
     26.4700	  536.00	  535.93	-1727.43	  416.43
     26.5700	  576.00	  536.03	-1687.53	  416.08
     26.6700	  559.00	  536.25	-1704.75	  415.72
     26.7700	  553.00	  536.62	-1711.12	  415.37
     26.8700	  554.00	  537.16	-1710.66	  415.02
     26.9700	  482.00	  537.94	-1783.44	  414.67
     27.0700	  565.00	  539.01	-1701.51	  414.32
     27.1700	  560.00	  540.49	-1707.99	  413.96
     27.2700	  539.00	  542.58	-1731.08	  413.61
     27.3700	  557.00	  545.71	-1716.21	  413.26
     27.4700	  586.00	  550.63	-1692.13	  412.91
     27.5700	  590.00	  558.77	-1696.27	  412.56
     27.6700	  548.00	  572.44	-1751.94	  412.21
     27.7700	  616.00	  594.81	-1706.31	  411.86
     27.8700	  617.00	  629.07	-1739.57	  411.51
     27.9700	  665.00	  676.45	-1738.95	  411.17
     28.0700	  750.00	  733.55	-1711.05	  410.82
     28.1700	  779.00	  789.54	-1738.04	  410.47
     28.2700	  915.00	  825.45	-1637.95	  410.12
     28.3700	  894.00	  822.66	-1656.16	  409.78
     28.4700	  862.00	  787.80	-1653.30	  409.43
     28.5700	  775.00	  753.16	-1705.66	  409.08
     28.6700	  689.00	  741.55	-1780.05	  408.74
     28.7700	  676.00	  755.12	-1806.62	  408.40
     28.8700	  786.00	  780.61	-1722.11	  408.05
     28.9700	  871.00	  794.77	-1651.27	  407.71
     29.0700	  809.00	  775.31	-1693.81	  407.37
     29.1700	  728.00	  723.38	-1722.88	  407.03
     29.2700	  660.00	  663.46	-1730.96	  406.68
     29.3700	  593.00	  614.19	-1748.69	  406.34
     29.4700	  585.00	  580.60	-1723.10	  406.01
     29.5700	  607.00	  560.40	-1680.90	  405.67
     29.6700	  597.00	  548.98	-1679.48	  405.33
     29.7700	  584.00	  542.50	-1686.00	  404.99
     29.8700	  594.00	  538.58	-1672.08	  404.65
     29.9700	  531.00	  536.09	-1732.59	  404.32
     30.0700	  573.00	  534.60	-1689.10	  403.98
     30.1700	  545.00	  534.08	-1716.58	  403.65
     30.2700	  540.00	  534.82	-1722.32	  403.32
     30.3700	  581.00	  537.42	-1683.92	  402.99
     30.4700	  537.00	  542.86	-1733.36	  402.65
     30.5700	  569.00	  552.19	-1710.69	  402.32
     30.6700	  554.00	  565.83	-1739.33	  401.99
     30.7700	  596.00	  582.62	-1714.12	  401.67
     30.8700	  606.00	  599.00	-1720.50	  401.34
     30.9700	  607.00	  608.79	-1729.29	  401.01
     31.0700	  625.00	  605.55	-1708.05	  400.69
     31.1700	  548.00	  589.53	-1769.03	  400.36
     31.2700	  545.00	  569.01	-1751.51	  400.04
     31.3700	  547.00	  551.16	-1731.66	  399.72
     31.4700	  551.00	  538.45	-1714.95	  399.40
     31.5700	  520.00	  530.51	-1738.01	  399.08
     31.6700	  535.00	  525.93	-1718.43	  398.76
     31.7700	  524.00	  523.34	-1726.84	  398.44
     31.8700	  541.00	  521.78	-1708.28	  398.12
     31.9700	  552.00	  520.79	-1696.29	  397.80
     32.0700	  541.00	  520.13	-1706.63	  397.49
     32.1700	  567.00	  519.71	-1680.21	  397.18
     32.2700	  540.00	  519.50	-1707.00	  396.86
     32.3700	  574.00	  519.49	-1672.99	  396.55
     32.4700	  562.00	  519.67	-1685.17	  396.24
     32.5700	  554.00	  520.07	-1693.57	  395.93
     32.6700	  560.00	  520.72	-1688.22	  395.63
     32.7700	  549.00	  521.67	-1700.17	  395.32
     32.8700	  517.00	  523.01	-1733.51	  395.01
     32.9700	  546.00	  524.88	-1706.38	  394.71
     33.0700	  567.00	  527.51	-1688.01	  394.41
     33.1700	  560.00	  531.38	-1698.88	  394.11
     33.2700	  514.00	  537.45	-1750.95	  393.81
     33.3700	  514.00	  547.57	-1761.07	  393.51
     33.4700	  541.00	  564.99	-1751.49	  393.21
     33.5700	  630.00	  594.58	-1692.08	  392.91
     33.6700	  614.00	  641.81	-1755.31	  392.62
     33.7700	  692.00	  709.83	-1745.33	  392.33
     33.8700	  790.00	  794.46	-1731.96	  392.03
     33.9700	  960.00	  879.94	-1647.44	  391.74
     34.0700	 1069.00	  938.09	-1596.59	  391.45
     34.1700	  970.00	  937.62	-1695.12	  391.16
     34.2700	  920.00	  873.33	-1680.83	  390.88
     34.3700	  788.00	  778.84	-1718.34	  390.59
     34.4700	  674.00	  690.07	-1743.57	  390.31
     34.5700	  661.00	  622.97	-1689.47	  390.03
     34.6700	  567.00	  578.92	-1739.42	  389.75
     34.7700	  562.00	  552.68	-1718.18	  389.47
     34.8700	  556.00	  537.70	-1709.20	  389.19
     34.9700	  533.00	  528.90	-1723.40	  388.91
     35.0700	  477.00	  523.26	-1773.76	  388.64
     35.1700	  495.00	  519.23	-1751.73	  388.36
     35.2700	  523.00	  516.19	-1720.69	  388.09
     35.3700	  502.00	  513.76	-1739.26	  387.82
     35.4700	  536.00	  511.78	-1703.28	  387.55
     35.5700	  512.00	  510.13	-1725.63	  387.28
     35.6700	  513.00	  508.73	-1723.23	  387.02
     35.7700	  486.00	  508.00	-1749.50	  386.75
     35.8700	  487.00	  506.97	-1747.47	  386.49
     35.9700	  536.00	  506.07	-1697.57	  386.23
     36.0700	  476.00	  505.27	-1756.77	  385.97
     36.1700	  499.00	  504.57	-1733.07	  385.71
     36.2700	  483.00	  503.93	-1748.43	  385.45
     36.3700	  474.00	  503.37	-1756.87	  385.20
     36.4700	  541.00	  502.87	-1689.37	  384.94
     36.5700	  509.00	  502.44	-1720.94	  384.69
     36.6700	  510.00	  502.07	-1719.57	  384.44
     36.7700	  509.00	  501.78	-1720.28	  384.19
     36.8700	  534.00	  501.59	-1695.09	  383.94
     36.9700	  473.00	  501.59	-1756.09	  383.70
     37.0700	  480.00	  501.87	-1749.37	  383.46
     37.1700	  510.00	  502.64	-1720.14	  383.21
     37.2700	  519.00	  504.12	-1712.62	  382.97
     37.3700	  448.00	  506.52	-1786.02	  382.73
     37.4700	  488.00	  509.83	-1749.33	  382.50
     37.5700	  524.00	  513.61	-1717.11	  382.26
     37.6700	  496.00	  516.89	-1748.39	  382.03
     37.7700	  551.00	  518.27	-1694.77	  381.79
     37.8700	  535.00	  516.95	-1709.45	  381.56
     37.9700	  552.00	  513.16	-1688.66	  381.33
     38.0700	  509.00	  508.68	-1727.18	  381.11
     38.1700	  483.00	  504.65	-1749.15	  380.88
     38.2700	  504.00	  501.53	-1725.03	  380.66
     38.3700	  492.00	  499.34	-1734.84	  380.43
     38.4700	  469.00	  497.88	-1756.38	  380.21
     38.5700	  465.00	  496.91	-1759.41	  380.00
     38.6700	  435.00	  496.24	-1788.74	  379.78
     38.7700	  491.00	  495.73	-1732.23	  379.56
     38.8700	  489.00	  495.32	-1733.82	  379.35
     38.9700	  501.00	  494.97	-1721.47	  379.14
     39.0700	  476.00	  494.56	-1746.06	  378.93
     39.1700	  449.00	  494.27	-1772.77	  378.72
     39.2700	  458.00	  494.01	-1763.51	  378.51
     39.3700	  485.00	  493.77	-1736.27	  378.31
     39.4700	  480.00	  493.55	-1741.05	  378.10
     39.5700	  546.00	  493.34	-1674.84	  377.90
     39.6700	  516.00	  493.14	-1704.64	  377.70
     39.7700	  505.00	  492.96	-1715.46	  377.50
     39.8700	  515.00	  492.70	-1705.20	  377.31
     39.9700	  447.00	  492.54	-1773.04	  377.11
     40.0700	  485.00	  492.40	-1734.90	  376.92
     40.1700	  483.00	  492.27	-1736.77	  376.73
     40.2700	  485.00	  492.15	-1734.65	  376.54
     40.3700	  514.00	  492.05	-1705.55	  376.35
     40.4700	  479.00	  491.97	-1740.47	  376.17
     40.5700	  460.00	  492.41	-1759.91	  375.99
     40.6700	  480.00	  492.38	-1739.88	  375.80
     40.7700	  487.00	  492.36	-1732.86	  375.62
     40.8700	  510.00	  492.38	-1709.88	  375.44
     40.9700	  485.00	  492.43	-1734.93	  375.27
     41.0700	  460.00	  492.52	-1760.02	  375.09
     41.1700	  494.00	  492.66	-1726.16	  374.92
     41.2700	  464.00	  492.87	-1756.37	  374.75
     41.3700	  494.00	  493.14	-1726.64	  374.58
     41.4700	  456.00	  493.52	-1765.02	  374.41
     41.5700	  499.00	  494.04	-1722.54	  374.25
     41.6700	  524.00	  494.76	-1698.26	  374.08
     41.7700	  500.00	  495.80	-1723.30	  373.92
     41.8700	  513.00	  497.43	-1711.93	  373.76
     41.9700	  515.00	  500.12	-1712.62	  373.60
     42.0700	  487.00	  504.74	-1745.24	  373.44
     42.1700	  489.00	  512.35	-1750.85	  373.29
     42.2700	  491.00	  524.45	-1760.95	  373.14
     42.3700	  517.00	  541.94	-1752.44	  372.98
     42.4700	  537.00	  564.28	-1754.78	  372.83
     42.5700	  572.00	  588.68	-1744.18	  372.69
     42.6700	  595.00	  609.19	-1741.69	  372.54
     42.7700	  606.00	  617.91	-1739.41	  372.40
     42.8700	  531.00	  610.04	-1806.54	  372.25
     42.9700	  561.00	  589.22	-1755.72	  372.11
     43.0700	  539.00	  564.26	-1752.76	  371.98
     43.1700	  530.00	  541.36	-1738.86	  371.84
     43.2700	  521.00	  523.62	-1730.12	  371.70
     43.3700	  533.00	  511.39	-1705.89	  371.57
     43.4700	  480.00	  503.66	-1751.16	  371.44
     43.5700	  434.00	  499.05	-1792.55	  371.31
     43.6700	  495.00	  496.35	-1728.85	  371.18
     43.7700	  450.00	  494.64	-1772.14	  371.05
     43.8700	  504.00	  493.48	-1716.98	  370.93
     43.9700	  520.00	  492.65	-1700.15	  370.81
     44.0700	  445.00	  492.00	-1774.50	  370.69
     44.1700	  487.00	  491.50	-1732.00	  370.57
     44.2700	  502.00	  491.10	-1716.60	  370.45
     44.3700	  502.00	  490.78	-1716.28	  370.34
     44.4700	  494.00	  490.73	-1724.23	  370.22
     44.5700	  482.00	  490.53	-1736.03	  370.11
     44.6700	  489.00	  490.38	-1728.88	  370.00
     44.7700	  488.00	  490.27	-1729.77	  369.89
     44.8700	  516.00	  490.19	-1701.69	  369.79
     44.9700	  516.00	  490.15	-1701.65	  369.68
     45.0700	  521.00	  490.14	-1696.64	  369.58
     45.1700	  495.00	  490.16	-1722.66	  369.48
     45.2700	  549.00	  490.21	-1668.71	  369.38
     45.3700	  485.00	  490.28	-1732.78	  369.28
     45.4700	  509.00	  490.39	-1708.89	  369.19
     45.5700	  471.00	  490.52	-1747.02	  369.09
     45.6700	  470.00	  490.52	-1748.02	  369.00
     45.7700	  440.00	  490.72	-1778.22	  368.91
     45.8700	  503.00	  490.95	-1715.45	  368.82
     45.9700	  520.00	  491.28	-1698.78	  368.73
     46.0700	  507.00	  491.59	-1712.09	  368.65
     46.1700	  496.00	  491.95	-1723.45	  368.57
     46.2700	  461.00	  492.39	-1758.89	  368.48
     46.3700	  479.00	  492.87	-1741.37	  368.40
     46.4700	  493.00	  493.41	-1727.91	  368.33
     46.5700	  509.00	  494.04	-1712.54	  368.25
     46.6700	  507.00	  494.77	-1715.27	  368.17
     46.7700	  557.00	  495.64	-1666.14	  368.10
     46.8700	  493.00	  496.71	-1731.21	  368.03
     46.9700	  456.00	  498.09	-1769.59	  367.96
     47.0700	  510.00	  500.02	-1717.52	  367.89
     47.1700	  498.00	  502.86	-1732.36	  367.83
     47.2700	  540.00	  507.18	-1694.68	  367.76
     47.3700	  512.00	  513.72	-1729.22	  367.70
     47.4700	  531.00	  523.18	-1719.68	  367.64
     47.5700	  549.00	  535.87	-1714.37	  367.58
     47.6700	  559.00	  551.28	-1719.78	  367.52
     47.7700	  567.00	  567.54	-1728.04	  367.47
     47.8700	  594.00	  581.14	-1714.64	  367.41
     47.9700	  593.00	  587.74	-1722.24	  367.36
     48.0700	  526.00	  584.92	-1786.42	  367.31
     48.1700	  565.00	  574.68	-1737.18	  367.26
     48.2700	  553.00	  561.62	-1736.12	  367.21
     48.3700	  524.00	  549.54	-1753.04	  367.17
     48.4700	  541.00	  540.89	-1727.39	  367.12
     48.5700	  527.00	  535.51	-1736.01	  367.08
     48.6700	  467.00	  533.62	-1794.12	  367.04
     48.7700	  541.00	  534.66	-1721.16	  367.00
     48.8700	  536.00	  538.12	-1729.62	  366.96
     48.9700	  525.00	  543.74	-1746.24	  366.93
     49.0700	  573.00	  551.69	-1706.19	  366.89
     49.1700	  573.00	  562.86	-1717.36	  366.86
     49.2700	  557.00	  579.28	-1749.78	  366.83
     49.3700	  614.00	  605.05	-1718.55	  366.80
     49.4700	  610.00	  647.52	-1765.02	  366.77
     49.5700	  640.00	  718.14	-1805.64	  366.74
     49.6700	  742.00	  831.93	-1817.43	  366.72
     49.7700	  882.00	 1003.94	-1849.44	  366.70
     49.8700	 1185.00	 1242.36	-1784.86	  366.67
     49.9700	 1538.00	 1539.02	-1728.52	  366.65
     50.0700	 1818.00	 1859.53	-1769.03	  366.64
     50.1700	 2182.00	 2137.11	-1682.61	  366.62
     50.2700	 2387.00	 2282.80	-1623.30	  366.60
     50.3700	 2331.00	 2233.88	-1630.38	  366.59
     50.4700	 2099.00	 2011.33	-1639.83	  366.58
     50.5700	 1756.00	 1702.13	-1673.63	  366.57
     50.6700	 1276.00	 1390.55	-1842.05	  366.56
     50.7700	 1081.00	 1127.15	-1773.65	  366.55
     50.8700	  802.00	  931.17	-1856.67	  366.54
     50.9700	  656.00	  800.48	-1871.98	  366.54
     51.0700	  673.00	  720.17	-1774.67	  366.54
     51.1700	  665.00	  672.55	-1735.05	  366.53
     51.2700	  647.00	  642.12	-1722.62	  366.53
     51.3700	  605.00	  619.10	-1741.60	  366.53
     51.4700	  562.00	  599.53	-1765.03	  366.54
     51.5700	  549.00	  582.71	-1761.21	  366.54
     51.6700	  570.00	  568.84	-1726.34	  366.55
     51.7700	  514.00	  558.01	-1771.51	  366.55
     51.8700	  553.00	  550.09	-1724.59	  366.56
     51.9700	  549.00	  544.71	-1723.21	  366.57
     52.0700	  565.00	  541.43	-1703.93	  366.58
     52.1700	  516.00	  539.85	-1751.35	  366.60
     52.2700	  591.00	  539.74	-1676.24	  366.61
     52.3700	  594.00	  541.11	-1674.61	  366.63
     52.4700	  534.00	  544.30	-1737.80	  366.64
     52.5700	  561.00	  550.17	-1716.67	  366.66
     52.6700	  563.00	  560.34	-1724.84	  366.68
     52.7700	  570.00	  577.52	-1735.02	  366.70
     52.8700	  610.00	  605.62	-1723.12	  366.73
     52.9700	  682.00	  649.30	-1694.80	  366.75
     53.0700	  700.00	  712.87	-1740.37	  366.78
     53.1700	  858.00	  798.28	-1667.78	  366.80
     53.2700	  931.00	  902.64	-1699.14	  366.83
     53.3700	 1033.00	 1015.62	-1710.12	  366.86
     53.4700	 1207.00	 1117.47	-1637.97	  366.89
     53.5700	 1182.00	 1180.65	-1726.15	  366.92
     53.6700	 1145.00	 1181.83	-1764.33	  366.96
     53.7700	 1088.00	 1120.18	-1759.68	  366.99
     53.8700	 1048.00	 1018.80	-1698.30	  367.03
     53.9700	  925.00	  905.90	-1708.40	  367.06
     54.0700	  791.00	  801.70	-1738.20	  367.10
     54.1700	  680.00	  716.55	-1764.05	  367.14
     54.2700	  683.00	  653.36	-1697.86	  367.18
     54.3700	  596.00	  610.21	-1741.71	  367.22
     54.4700	  587.00	  582.76	-1723.26	  367.27
     54.5700	  594.00	  566.28	-1699.78	  367.31
     54.6700	  596.00	  556.84	-1688.34	  367.36
     54.7700	  550.00	  551.70	-1729.20	  367.40
     54.8700	  586.00	  549.19	-1690.69	  367.45
     54.9700	  551.00	  548.42	-1724.92	  367.50
     55.0700	  591.00	  548.95	-1685.45	  367.55
     55.1700	  591.00	  550.59	-1687.09	  367.60
     55.2700	  592.00	  553.32	-1688.82	  367.66
     55.3700	  562.00	  557.21	-1722.71	  367.71
     55.4700	  554.00	  562.43	-1735.93	  367.76
     55.5700	  571.00	  569.32	-1725.82	  367.82
     55.6700	  606.00	  578.52	-1700.02	  367.88
     55.7700	  590.00	  591.24	-1728.74	  367.94
     55.8700	  606.00	  609.88	-1731.38	  368.00
     55.9700	  628.00	  638.55	-1738.05	  368.06
     56.0700	  665.00	  684.04	-1746.54	  368.12
     56.1700	  718.00	  756.23	-1765.73	  368.18
     56.2700	  777.00	  867.58	-1818.08	  368.25
     56.3700	  948.00	 1030.70	-1810.20	  368.31
     56.4700	 1241.00	 1254.04	-1740.54	  368.38
     56.5700	 1567.00	 1535.86	-1696.36	  368.44
     56.6700	 1764.00	 1858.09	-1821.59	  368.51
     56.7700	 2150.00	 2180.73	-1758.23	  368.58
     56.8700	 2466.00	 2439.75	-1701.25	  368.65
     56.9700	 2508.00	 2560.88	-1780.38	  368.72
     57.0700	 2532.00	 2500.01	-1695.51	  368.79
     57.1700	 2307.00	 2279.94	-1700.44	  368.87
     57.2700	 1939.00	 1971.39	-1759.89	  368.94
     57.3700	 1647.00	 1645.56	-1726.06	  369.02
     57.4700	 1278.00	 1350.53	-1800.03	  369.09
     57.5700	 1064.00	 1111.05	-1774.55	  369.17
     57.6700	  910.00	  933.59	-1751.09	  369.25
     57.7700	  780.00	  812.73	-1760.23	  369.32
     57.8700	  745.00	  737.40	-1719.90	  369.40
     57.9700	  705.00	  695.94	-1718.44	  369.48
     58.0700	  751.00	  679.25	-1655.75	  369.57
     58.1700	  746.00	  681.76	-1663.26	  369.65
     58.2700	  711.00	  700.89	-1717.39	  369.73
     58.3700	  794.00	  735.78	-1669.28	  369.81
     58.4700	  839.00	  785.82	-1674.32	  369.90
     58.5700	  887.00	  849.09	-1689.59	  369.99
     58.6700	  977.00	  921.11	-1671.61	  370.07
     58.7700	 1034.00	  994.50	-1688.00	  370.16
     58.8700	 1083.00	 1061.27	-1705.77	  370.25
     58.9700	 1190.00	 1116.35	-1653.85	  370.34
     59.0700	 1301.00	 1156.92	-1583.42	  370.43
     59.1700	 1368.00	 1179.07	-1538.57	  370.52
     59.2700	 1399.00	 1179.95	-1508.45	  370.61
     59.3700	 1255.00	 1163.87	-1636.37	  370.70
     59.4700	 1253.00	 1141.78	-1616.28	  370.79
     59.5700	 1176.00	 1124.33	-1675.83	  370.89
     59.6700	 1155.00	 1118.49	-1690.99	  370.98
     59.7700	 1248.00	 1129.86	-1609.36	  371.07
     59.8700	 1206.00	 1164.38	-1685.88	  371.17
     59.9700	 1290.00	 1225.00	-1662.50	  371.27
     60.0700	 1295.00	 1306.60	-1739.10	  371.36
     60.1700	 1439.00	 1393.61	-1682.11	  371.46
     60.2700	 1489.00	 1460.57	-1699.07	  371.56
     60.3700	 1502.00	 1479.04	-1704.54	  371.66
     60.4700	 1493.00	 1433.08	-1667.58	  371.76
     60.5700	 1396.00	 1330.93	-1662.43	  371.86
     60.6700	 1179.00	 1197.50	-1746.00	  371.96
     60.7700	 1086.00	 1058.39	-1699.89	  372.06
     60.8700	  978.00	  931.89	-1681.39	  372.16
     60.9700	  881.00	  828.30	-1674.80	  372.26
     61.0700	  691.00	  751.63	-1788.13	  372.37
     61.1700	  655.00	  701.65	-1774.15	  372.47
     61.2700	  702.00	  676.23	-1701.73	  372.57
     61.3700	  675.00	  673.43	-1725.93	  372.68
     61.4700	  672.00	  692.74	-1748.24	  372.78
     61.5700	  727.00	  735.14	-1735.64	  372.89
     61.6700	  736.00	  802.18	-1793.68	  373.00
     61.7700	  882.00	  894.14	-1739.64	  373.10
     61.8700	  944.00	 1007.86	-1791.36	  373.21
     61.9700	 1081.00	 1134.87	-1781.37	  373.32
     62.0700	 1225.00	 1259.77	-1762.27	  373.43
     62.1700	 1299.00	 1360.07	-1788.57	  373.53
     62.2700	 1286.00	 1410.38	-1851.88	  373.64
     62.3700	 1332.00	 1394.47	-1789.97	  373.75
     62.4700	 1212.00	 1316.96	-1832.46	  373.86
     62.5700	 1106.00	 1199.72	-1821.22	  373.97
     62.6700	 1052.00	 1068.02	-1743.52	  374.08
     62.7700	  886.00	  941.27	-1782.77	  374.19
     62.8700	  797.00	  831.48	-1761.98	  374.31
     62.9700	  657.00	  744.01	-1814.51	  374.42
     63.0700	  636.00	  679.25	-1770.75	  374.53
     63.1700	  591.00	  634.38	-1770.88	  374.64
     63.2700	  591.00	  605.17	-1741.67	  374.76
     63.3700	  636.00	  587.35	-1678.85	  374.87
     63.4700	  599.00	  577.59	-1706.09	  374.98
     63.5700	  593.00	  573.72	-1708.22	  375.10
     63.6700	  592.00	  574.89	-1710.39	  375.21
     63.7700	  620.00	  581.26	-1688.76	  375.32
     63.8700	  619.00	  593.84	-1702.34	  375.44
     63.9700	  653.00	  614.06	-1688.56	  375.55
     64.0700	  685.00	  643.41	-1685.91	  375.67
     64.1700	  724.00	  682.77	-1686.27	  375.78
     64.2700	  765.00	  731.78	-1694.28	  375.90
     64.3700	  793.00	  788.31	-1722.81	  376.01
     64.4700	  919.00	  847.52	-1656.02	  376.13
     64.5700	  951.00	  902.04	-1678.54	  376.25
     64.6700	  993.00	  942.69	-1677.19	  376.36
     64.7700	  981.00	  961.67	-1708.17	  376.48
     64.8700	  985.00	  956.03	-1698.53	  376.59
     64.9700	  953.00	  928.05	-1702.55	  376.71
     65.0700	  866.00	  885.28	-1746.78	  376.83
     65.1700	  802.00	  835.43	-1760.93	  376.94
     65.2700	  781.00	  785.72	-1732.22	  377.06
     65.3700	  724.00	  740.33	-1743.83	  377.18
     65.4700	  707.00	  701.13	-1721.63	  377.29
     65.5700	  635.00	  668.15	-1760.65	  377.41
     65.6700	  633.00	  640.90	-1735.40	  377.53
     65.7700	  607.00	  618.89	-1739.39	  377.65
     65.8700	  593.00	  601.67	-1736.17	  377.76
     65.9700	  555.00	  588.69	-1761.19	  377.88
     66.0700	  547.00	  579.33	-1759.83	  378.00
     66.1700	  568.00	  573.08	-1732.58	  378.12
     66.2700	  536.00	  569.50	-1761.00	  378.23
     66.3700	  551.00	  568.22	-1744.72	  378.35
     66.4700	  523.00	  569.01	-1773.51	  378.47
     66.5700	  620.00	  572.03	-1679.53	  378.58
     66.6700	  585.00	  576.91	-1719.41	  378.70
     66.7700	  541.00	  584.42	-1770.92	  378.82
     66.8700	  591.00	  595.65	-1732.15	  378.93
     66.9700	  586.00	  612.54	-1754.04	  379.05
     67.0700	  630.00	  638.21	-1735.71	  379.17
     67.1700	  667.00	  677.18	-1737.68	  379.28
     67.2700	  733.00	  735.54	-1730.04	  379.40
     67.3700	  791.00	  820.11	-1756.61	  379.52
     67.4700	  955.00	  937.90	-1710.40	  379.63
     67.5700	 1097.00	 1093.93	-1724.43	  379.75
     67.6700	 1269.00	 1289.14	-1747.64	  379.87
     67.7700	 1507.00	 1518.06	-1738.56	  379.98
     67.8700	 1860.00	 1766.66	-1634.16	  380.10
     67.9700	 2008.00	 2010.92	-1730.42	  380.21
     68.0700	 2322.00	 2216.63	-1622.13	  380.33
     68.1700	 2283.00	 2344.12	-1788.62	  380.44
     68.2700	 2348.00	 2362.16	-1741.66	  380.56
     68.3700	 2314.00	 2265.80	-1679.30	  380.67
     68.4700	 2077.00	 2079.88	-1730.38	  380.78
     68.5700	 1904.00	 1843.59	-1667.09	  380.90
     68.6700	 1601.00	 1593.68	-1720.18	  381.01
     68.7700	 1303.00	 1357.29	-1781.79	  381.13
     68.8700	 1154.00	 1151.41	-1724.91	  381.24
     68.9700	  928.00	  983.84	-1783.34	  381.35
     69.0700	  796.00	  855.20	-1786.70	  381.46
     69.1700	  730.00	  761.80	-1759.30	  381.58
     69.2700	  673.00	  696.82	-1751.32	  381.69
     69.3700	  662.00	  653.18	-1718.68	  381.80
     69.4700	  597.00	  624.49	-1754.99	  381.91
     69.5700	  593.00	  605.74	-1740.24	  382.02
     69.6700	  603.00	  593.37	-1717.87	  382.13
     69.7700	  566.00	  585.04	-1746.54	  382.24
     69.8700	  578.00	  579.31	-1728.81	  382.35
     69.9700	  567.00	  575.38	-1735.88	  382.46
     70.0700	  568.00	  572.80	-1732.30	  382.57
     70.1700	  550.00	  571.33	-1748.83	  382.67
     70.2700	  571.00	  570.89	-1727.39	  382.78
     70.3700	  582.00	  571.50	-1717.00	  382.89
     70.4700	  580.00	  573.31	-1720.81	  382.99
     70.5700	  619.00	  576.66	-1685.16	  383.10
     70.6700	  586.00	  582.10	-1723.60	  383.21
     70.7700	  574.00	  590.67	-1744.17	  383.31
     70.8700	  643.00	  603.96	-1688.46	  383.42
     70.9700	  617.00	  624.31	-1734.81	  383.52
     71.0700	  670.00	  655.83	-1713.33	  383.62
     71.1700	  673.00	  700.78	-1755.28	  383.73
     71.2700	  764.00	  764.49	-1727.99	  383.83
     71.3700	  817.00	  851.15	-1761.65	  383.93
     71.4700	  933.00	  963.58	-1758.08	  384.03
     71.5700	 1098.00	 1102.07	-1731.57	  384.13
     71.6700	 1207.00	 1263.00	-1783.50	  384.23
     71.7700	 1456.00	 1437.82	-1709.32	  384.33
     71.8700	 1628.00	 1612.21	-1711.71	  384.43
     71.9700	 1703.00	 1765.95	-1790.45	  384.53
     72.0700	 1810.00	 1874.74	-1792.24	  384.63
     72.1700	 1788.00	 1916.47	-1855.97	  384.72
     72.2700	 1826.00	 1881.30	-1782.80	  384.82
     72.3700	 1802.00	 1777.54	-1703.04	  384.92
     72.4700	 1588.00	 1626.68	-1766.18	  385.01
     72.5700	 1526.00	 1453.17	-1654.67	  385.10
     72.6700	 1344.00	 1277.61	-1661.11	  385.20
     72.7700	 1197.00	 1114.76	-1645.26	  385.29
     72.8700	 1045.00	  973.57	-1656.07	  385.38
     72.9700	  847.00	  858.00	-1738.50	  385.47
     73.0700	  841.00	  768.03	-1654.53	  385.56
     73.1700	  710.00	  701.01	-1718.51	  385.65
     73.2700	  672.00	  652.92	-1708.42	  385.74
     73.3700	  669.00	  618.86	-1677.36	  385.83
     73.4700	  657.00	  595.86	-1666.36	  385.92
     73.5700	  644.00	  580.16	-1663.66	  386.01
     73.6700	  623.00	  569.35	-1673.85	  386.09
     73.7700	  615.00	  561.81	-1674.31	  386.18
     73.8700	  591.00	  556.50	-1693.00	  386.26
     73.9700	  620.00	  552.76	-1660.26	  386.34
     74.0700	  563.00	  550.19	-1714.69	  386.43
     74.1700	  566.00	  548.54	-1710.04	  386.51
     74.2700	  578.00	  547.60	-1697.10	  386.59
     74.3700	  645.00	  547.17	-1629.67	  386.67
     74.4700	  634.00	  547.04	-1640.54	  386.75
     74.5700	  577.00	  546.97	-1697.47	  386.83
     74.6700	  613.00	  546.69	-1661.19	  386.90
     74.7700	  632.00	  545.99	-1641.49	  386.98
     74.8700	  576.00	  544.77	-1696.27	  387.06
     74.9700	  623.00	  543.14	-1647.64	  387.13
     75.0700	  595.00	  541.32	-1673.82	  387.21
     75.1700	  641.00	  539.62	-1626.12	  387.28
     75.2700	  615.00	  538.37	-1650.87	  387.35
     75.3700	  596.00	  537.90	-1669.40	  387.42
     75.4700	  591.00	  538.58	-1675.08	  387.49
     75.5700	  566.00	  540.81	-1702.31	  387.56
     75.6700	  581.00	  544.95	-1691.45	  387.63
     75.7700	  529.00	  551.53	-1750.03	  387.69
     75.8700	  554.00	  560.84	-1734.34	  387.76
     75.9700	  588.00	  573.08	-1712.58	  387.83
     76.0700	  576.00	  588.19	-1739.69	  387.89
     76.1700	  620.00	  605.76	-1713.26	  387.95
     76.2700	  674.00	  624.86	-1678.36	  388.01
     76.3700	  629.00	  644.31	-1742.81	  388.08
     76.4700	  659.00	  662.14	-1730.64	  388.14
     76.5700	  672.00	  676.09	-1731.59	  388.19
     76.6700	  706.00	  683.77	-1705.27	  388.25
     76.7700	  728.00	  683.75	-1683.25	  388.31
     76.8700	  656.00	  675.92	-1747.42	  388.36
     76.9700	  647.00	  661.76	-1742.26	  388.42
     77.0700	  669.00	  643.57	-1702.07	  388.47
     77.1700	  569.00	  623.62	-1782.12	  388.52
     77.2700	  591.00	  603.80	-1740.30	  388.58
     77.3700	  570.00	  585.46	-1742.96	  388.63
     77.4700	  518.00	  569.45	-1778.95	  388.67
     77.5700	  522.00	  556.17	-1761.67	  388.72
     77.6700	  510.00	  545.62	-1763.12	  388.77
     77.7700	  544.00	  537.39	-1720.89	  388.81
     77.8700	  527.00	  531.49	-1731.99	  388.86
     77.9700	  498.00	  527.29	-1756.79	  388.90
     78.0700	  535.00	  524.37	-1716.87	  388.94
     78.1700	  518.00	  522.37	-1731.87	  388.98
     78.2700	  496.00	  521.00	-1752.50	  389.02
     78.3700	  539.00	  520.07	-1708.57	  389.06
     78.4700	  487.00	  519.45	-1759.95	  389.10
     78.5700	  529.00	  519.03	-1717.53	  389.14
     78.6700	  487.00	  518.79	-1759.29	  389.17
     78.7700	  525.00	  518.69	-1721.19	  389.20
     78.8700	  514.00	  518.73	-1732.23	  389.24
     78.9700	  467.00	  518.92	-1779.42	  389.27
     79.0700	  490.00	  519.29	-1756.79	  389.30
     79.1700	  565.00	  519.86	-1682.36	  389.33
     79.2700	  483.00	  520.67	-1765.17	  389.35
     79.3700	  524.00	  521.76	-1725.26	  389.38
     79.4700	  512.00	  523.16	-1738.66	  389.40
     79.5700	  554.00	  524.94	-1698.44	  389.43
     79.6700	  511.00	  527.14	-1743.64	  389.45
     79.7700	  555.00	  529.82	-1702.32	  389.47
     79.8700	  479.00	  533.08	-1781.58	  389.49
     79.9700	  546.00	  537.02	-1718.52	  389.51
     80.0700	  537.00	  541.75	-1732.25	  389.53
     80.1700	  549.00	  547.26	-1725.76	  389.54
     80.2700	  536.00	  554.15	-1745.65	  389.56
     80.3700	  558.00	  562.50	-1732.00	  389.57
     80.4700	  544.00	  572.60	-1756.10	  389.58
     80.5700	  592.00	  584.66	-1720.16	  389.59
     80.6700	  659.00	  598.73	-1667.23	  389.60
     80.7700	  604.00	  614.61	-1738.11	  389.61
     80.8700	  618.00	  631.78	-1741.28	  389.61
     80.9700	  617.00	  649.43	-1759.93	  389.62
     81.0700	  650.00	  666.50	-1744.00	  389.62
     81.1700	  694.00	  681.89	-1715.39	  389.63
     81.2700	  707.00	  694.66	-1715.16	  389.63
     81.3700	  755.00	  704.08	-1676.58	  389.63
     81.4700	  702.00	  709.64	-1735.14	  389.62
     81.5700	  798.00	  711.09	-1640.59	  389.62
     81.6700	  702.00	  708.36	-1733.86	  389.62
     81.7700	  741.00	  701.60	-1688.10	  389.61
     81.8700	  763.00	  691.08	-1655.58	  389.60
     81.9700	  741.00	  677.39	-1663.89	  389.59
     82.0700	  668.00	  661.44	-1720.94	  389.58
     82.1700	  638.00	  644.37	-1733.87	  389.57
     82.2700	  638.00	  627.23	-1716.73	  389.56
     82.3700	  644.00	  610.83	-1694.33	  389.54
     82.4700	  593.00	  595.70	-1730.20	  389.53
     82.5700	  609.00	  582.18	-1700.68	  389.51
     82.6700	  585.00	  570.45	-1712.95	  389.49
     82.7700	  551.00	  560.65	-1737.15	  389.47
     82.8700	  599.00	  552.82	-1681.32	  389.45
     82.9700	  544.00	  546.96	-1730.46	  389.43
     83.0700	  541.00	  543.00	-1729.50	  389.40
     83.1700	  544.00	  540.85	-1724.35	  389.38
     83.2700	  529.00	  540.29	-1738.79	  389.35
     83.3700	  556.00	  541.33	-1712.83	  389.32
     83.4700	  532.00	  543.68	-1739.18	  389.29
     83.5700	  544.00	  547.07	-1730.57	  389.26
     83.6700	  565.00	  551.25	-1713.75	  389.22
     83.7700	  519.00	  555.78	-1764.28	  389.19
     83.8700	  504.00	  560.20	-1783.70	  389.15
     83.9700	  583.00	  563.97	-1708.47	  389.12
     84.0700	  553.00	  566.54	-1741.04	  389.08
     84.1700	  560.00	  567.43	-1734.93	  389.03
     84.2700	  575.00	  566.45	-1718.95	  388.99
     84.3700	  539.00	  563.69	-1752.19	  388.95
     84.4700	  550.00	  559.50	-1737.00	  388.90
     84.5700	  523.00	  554.38	-1758.88	  388.86
     84.6700	  525.00	  548.82	-1751.32	  388.81
     84.7700	  514.00	  543.24	-1756.74	  388.76
     84.8700	  516.00	  537.96	-1749.46	  388.71
     84.9700	  519.00	  533.22	-1741.72	  388.65
     85.0700	  524.00	  529.14	-1732.64	  388.60
     85.1700	  540.00	  525.78	-1713.28	  388.54
     85.2700	  535.00	  523.13	-1715.63	  388.49
     85.3700	  504.00	  521.14	-1744.64	  388.43
     85.4700	  504.00	  519.71	-1743.21	  388.37
     85.5700	  524.00	  518.79	-1722.29	  388.31
     85.6700	  485.00	  518.28	-1760.78	  388.24
     85.7700	  500.00	  518.16	-1745.66	  388.18
     85.8700	  525.00	  518.40	-1720.90	  388.11
     85.9700	  513.00	  519.03	-1733.53	  388.04
     86.0700	  497.00	  520.10	-1750.60	  387.97
     86.1700	  524.00	  521.72	-1725.22	  387.90
     86.2700	  478.00	  524.02	-1773.52	  387.83
     86.3700	  495.00	  527.14	-1759.64	  387.76
     86.4700	  520.00	  531.25	-1738.75	  387.68
     86.5700	  518.00	  536.51	-1746.01	  387.60
     86.6700	  526.00	  543.01	-1744.51	  387.52
     86.7700	  546.00	  550.80	-1732.30	  387.44
     86.8700	  577.00	  559.82	-1710.32	  387.36
     86.9700	  578.00	  569.89	-1719.39	  387.28
     87.0700	  591.00	  580.68	-1717.18	  387.19
     87.1700	  588.00	  591.69	-1731.19	  387.11
     87.2700	  622.00	  602.29	-1707.79	  387.02
     87.3700	  628.00	  611.68	-1711.18	  386.93
     87.4700	  643.00	  618.99	-1703.49	  386.84
     87.5700	  620.00	  623.41	-1730.91	  386.75
     87.6700	  648.00	  624.44	-1703.94	  386.65
     87.7700	  633.00	  622.00	-1716.50	  386.56
     87.8700	  617.00	  616.14	-1726.64	  386.46
     87.9700	  657.00	  608.46	-1678.96	  386.36
     88.0700	  624.00	  599.46	-1702.96	  386.26
     88.1700	  582.00	  590.05	-1735.55	  386.16
     88.2700	  561.00	  581.00	-1747.50	  386.06
     88.3700	  595.00	  572.97	-1705.47	  385.95
     88.4700	  548.00	  566.44	-1745.94	  385.84
     88.5700	  548.00	  561.73	-1741.23	  385.74
     88.6700	  530.00	  558.99	-1756.49	  385.63
     88.7700	  570.00	  558.22	-1715.72	  385.52
     88.8700	  565.00	  559.24	-1721.74	  385.40
     88.9700	  587.00	  561.77	-1702.27	  385.29
     89.0700	  558.00	  565.41	-1734.91	  385.18
     89.1700	  588.00	  569.68	-1709.18	  385.06
     89.2700	  586.00	  574.00	-1715.50	  384.94
     89.3700	  580.00	  577.78	-1725.28	  384.82
     89.4700	  638.00	  580.44	-1669.94	  384.70
     89.5700	  588.00	  581.47	-1720.97	  384.58
     89.6700	  569.00	  580.64	-1739.14	  384.45
     89.7700	  586.00	  577.95	-1719.45	  384.33
     89.8700	  505.00	  573.69	-1796.19	  384.20
     89.9700	  560.00	  568.28	-1735.78	  384.07
     90.0700	  535.00	  562.21	-1754.71	  383.94
     90.1700	  536.00	  555.90	-1747.40	  383.81
     90.2700	  523.00	  549.72	-1754.22	  383.67
     90.3700	  499.00	  543.95	-1772.45	  383.54
     90.4700	  486.00	  538.79	-1780.29	  383.40
     90.5700	  532.00	  534.36	-1729.86	  383.27
     90.6700	  532.00	  530.70	-1726.20	  383.13
     90.7700	  512.00	  527.81	-1743.31	  382.99
     90.8700	  553.00	  525.64	-1700.14	  382.84
     90.9700	  482.00	  524.13	-1769.63	  382.70
     91.0700	  544.00	  523.21	-1706.71	  382.56
     91.1700	  477.00	  522.80	-1773.30	  382.41
     91.2700	  511.00	  522.88	-1739.38	  382.26
     91.3700	  492.00	  523.42	-1758.92	  382.11
     91.4700	  543.00	  524.45	-1708.95	  381.96
     91.5700	  486.00	  526.03	-1767.53	  381.81
     91.6700	  499.00	  528.24	-1756.74	  381.66
     91.7700	  481.00	  531.22	-1777.72	  381.50
     91.8700	  516.00	  535.13	-1746.63	  381.34
     91.9700	  529.00	  540.14	-1738.64	  381.19
     92.0700	  535.00	  546.45	-1738.95	  381.03
     92.1700	  551.00	  554.23	-1730.73	  380.87
     92.2700	  546.00	  563.63	-1745.13	  380.70
     92.3700	  500.00	  574.75	-1802.25	  380.54
     92.4700	  590.00	  587.61	-1725.11	  380.38
     92.5700	  583.00	  602.13	-1746.63	  380.21
     92.6700	  555.00	  618.15	-1790.65	  380.04
     92.7700	  587.00	  635.35	-1775.85	  379.87
     92.8700	  619.00	  653.30	-1761.80	  379.70
     92.9700	  627.00	  671.43	-1771.93	  379.53
     93.0700	  691.00	  689.09	-1725.59	  379.36
     93.1700	  706.00	  705.31	-1726.81	  379.19
     93.2700	  748.00	  720.15	-1699.65	  379.01
     93.3700	  749.00	  733.09	-1711.59	  378.83
     93.4700	  782.00	  744.20	-1689.70	  378.66
     93.5700	  766.00	  753.88	-1715.38	  378.48
     93.6700	  722.00	  762.60	-1768.10	  378.30
     93.7700	  789.00	  770.81	-1709.31	  378.11
     93.8700	  849.00	  778.87	-1657.37	  377.93
     93.9700	  785.00	  787.08	-1729.58	  377.75
     94.0700	  840.00	  795.74	-1683.24	  377.56
     94.1700	  819.00	  805.24	-1713.74	  377.37
     94.2700	  896.00	  815.93	-1647.43	  377.19
     94.3700	  792.00	  827.99	-1763.49	  377.00
     94.4700	  877.00	  841.29	-1691.79	  376.81
     94.5700	  868.00	  855.28	-1714.78	  376.61
     94.6700	  881.00	  868.98	-1715.48	  376.42
     94.7700	  887.00	  881.06	-1721.56	  376.23
     94.8700	  868.00	  889.90	-1749.40	  376.03
     94.9700	  899.00	  893.92	-1722.42	  375.83
     95.0700	  932.00	  891.86	-1687.36	  375.64
     95.1700	  856.00	  883.16	-1754.66	  375.44
     95.2700	  847.00	  868.15	-1748.65	  375.24
     95.3700	  868.00	  847.95	-1707.45	  375.04
     95.4700	  824.00	  824.21	-1727.71	  374.83
     95.5700	  804.00	  798.80	-1722.30	  374.63
     95.6700	  825.00	  773.56	-1676.06	  374.43
     95.7700	  737.00	  750.24	-1740.74	  374.22
     95.8700	  742.00	  730.45	-1715.95	  374.01
     95.9700	  699.00	  715.61	-1744.11	  373.81
     96.0700	  734.00	  706.99	-1700.49	  373.60
     96.1700	  686.00	  705.68	-1747.18	  373.39
     96.2700	  717.00	  712.57	-1723.07	  373.18
     96.3700	  695.00	  728.39	-1760.89	  372.96
     96.4700	  767.00	  753.61	-1714.11	  372.75
     96.5700	  803.00	  788.44	-1712.94	  372.54
     96.6700	  818.00	  832.77	-1742.27	  372.32
     96.7700	  856.00	  886.10	-1757.60	  372.11
     96.8700	  870.00	  947.44	-1804.94	  371.89
     96.9700	  982.00	 1015.30	-1760.80	  371.67
     97.0700	 1091.00	 1087.57	-1724.07	  371.45
     97.1700	 1151.00	 1161.61	-1738.11	  371.23
     97.2700	 1225.00	 1234.15	-1736.65	  371.01
     97.3700	 1328.00	 1301.37	-1700.87	  370.79
     97.4700	 1394.00	 1359.12	-1692.62	  370.57
     97.5700	 1368.00	 1403.26	-1762.76	  370.34
     97.6700	 1389.00	 1430.29	-1768.79	  370.12
     97.7700	 1407.00	 1438.07	-1758.57	  369.89
     97.8700	 1395.00	 1426.28	-1758.78	  369.67
     97.9700	 1335.00	 1396.54	-1789.04	  369.44
     98.0700	 1358.00	 1351.90	-1721.40	  369.21
     98.1700	 1265.00	 1296.19	-1758.69	  368.98
     98.2700	 1233.00	 1233.45	-1727.95	  368.76
     98.3700	 1144.00	 1167.57	-1751.07	  368.52
     98.4700	 1088.00	 1102.07	-1741.57	  368.29
     98.5700	 1052.00	 1040.04	-1715.54	  368.06
     98.6700	  954.00	  984.06	-1757.56	  367.83
     98.7700	  917.00	  936.27	-1746.77	  367.60
     98.8700	  843.00	  898.39	-1782.89	  367.36
     98.9700	  885.00	  871.76	-1714.26	  367.13
     99.0700	  847.00	  857.40	-1737.90	  366.89
     99.1700	  843.00	  855.98	-1740.48	  366.66
     99.2700	  875.00	  867.93	-1720.43	  366.42
     99.3700	  908.00	  893.42	-1712.92	  366.18
     99.4700	  908.00	  932.43	-1751.93	  365.95
     99.5700	  974.00	  984.61	-1738.11	  365.71
     99.6700	 1068.00	 1049.30	-1708.80	  365.47
     99.7700	 1160.00	 1125.52	-1693.02	  365.23
     99.8700	 1243.00	 1211.78	-1696.28	  364.99
     99.9700	 1334.00	 1306.12	-1699.62	  364.75
    100.0700	 1431.00	 1405.98	-1702.48	  364.51
    100.1700	 1513.00	 1508.24	-1722.74	  364.27
    100.2700	 1632.00	 1609.21	-1704.71	  364.03
    100.3700	 1674.00	 1704.93	-1758.43	  363.78
    100.4700	 1762.00	 1791.45	-1756.95	  363.54
    100.5700	 1900.00	 1865.38	-1692.88	  363.30
    100.6700	 1892.00	 1924.09	-1759.59	  363.06
    100.7700	 1951.00	 1965.80	-1742.30	  362.81
    100.8700	 1939.00	 1989.42	-1777.92	  362.57
    100.9700	 1994.00	 1994.26	-1727.76	  362.32
    101.0700	 2010.00	 1980.09	-1697.59	  362.08
    101.1700	 1864.00	 1947.36	-1810.86	  361.83
    101.2700	 1906.00	 1897.50	-1719.00	  361.59
    101.3700	 1824.00	 1833.25	-1736.75	  361.34
    101.4700	 1778.00	 1758.41	-1707.91	  361.09
    101.5700	 1686.00	 1677.39	-1718.89	  360.85
    101.6700	 1641.00	 1594.56	-1681.06	  360.60
    101.7700	 1501.00	 1513.85	-1740.35	  360.36
    101.8700	 1495.00	 1438.43	-1670.93	  360.11
    101.9700	 1367.00	 1370.57	-1731.07	  359.86
    102.0700	 1381.00	 1311.62	-1658.12	  359.61
    102.1700	 1255.00	 1262.03	-1734.53	  359.37
    102.2700	 1272.00	 1221.45	-1676.95	  359.12
    102.3700	 1158.00	 1188.83	-1758.33	  358.87
    102.4700	 1157.00	 1162.50	-1733.00	  358.62
    102.5700	 1148.00	 1140.35	-1719.85	  358.38
    102.6700	 1102.00	 1120.03	-1745.53	  358.13
    102.7700	 1065.00	 1099.27	-1761.77	  357.88
    102.8700	 1075.00	 1076.20	-1728.70	  357.63
    102.9700	 1042.00	 1049.59	-1735.09	  357.39
    103.0700	 1026.00	 1018.97	-1720.47	  357.14
    103.1700	 1025.00	  984.57	-1687.07	  356.89
    103.2700	  920.00	  947.15	-1754.65	  356.65
    103.3700	  892.00	  907.74	-1743.24	  356.40
    103.4700	  856.00	  867.44	-1738.94	  356.15
    103.5700	  849.00	  827.33	-1705.83	  355.91
    103.6700	  807.00	  788.36	-1708.86	  355.66
    103.7700	  780.00	  751.38	-1698.88	  355.41
    103.8700	  731.00	  717.00	-1713.50	  355.17
    103.9700	  660.00	  685.71	-1753.21	  354.92
    104.0700	  607.00	  657.79	-1778.29	  354.68
    104.1700	  657.00	  633.36	-1703.86	  354.43
    104.2700	  645.00	  612.38	-1694.88	  354.19
    104.3700	  627.00	  594.72	-1695.22	  353.94
    104.4700	  541.00	  580.12	-1766.62	  353.70
    104.5700	  606.00	  568.28	-1689.78	  353.46
    104.6700	  567.00	  558.87	-1719.37	  353.21
    104.7700	  596.00	  551.56	-1683.06	  352.97
    104.8700	  530.00	  546.04	-1743.54	  352.73
    104.9700	  581.00	  542.00	-1688.50	  352.49
    105.0700	  588.00	  539.21	-1678.71	  352.25
    105.1700	  526.00	  537.45	-1738.95	  352.01
    105.2700	  548.00	  536.57	-1716.07	  351.77
    105.3700	  549.00	  536.43	-1714.93	  351.53
    105.4700	  578.00	  536.95	-1686.45	  351.29
    105.5700	  514.00	  538.09	-1751.59	  351.05
    105.6700	  496.00	  539.84	-1771.34	  350.82
    105.7700	  512.00	  542.20	-1757.70	  350.58
    105.8700	  572.00	  545.21	-1700.71	  350.34
    105.9700	  533.00	  548.91	-1743.41	  350.11
    106.0700	  582.00	  553.39	-1698.89	  349.88
    106.1700	  565.00	  558.68	-1721.18	  349.64
    106.2700	  578.00	  564.82	-1714.32	  349.41
    106.3700	  577.00	  571.80	-1722.30	  349.18
    106.4700	  616.00	  579.58	-1691.08	  348.95
    106.5700	  616.00	  588.09	-1699.59	  348.72
    106.6700	  584.00	  597.19	-1740.69	  348.49
    106.7700	  598.00	  606.69	-1736.19	  348.26
    106.8700	  652.00	  616.36	-1691.86	  348.04
    106.9700	  605.00	  625.92	-1748.42	  347.81
    107.0700	  655.00	  635.06	-1707.56	  347.59
    107.1700	  629.00	  643.45	-1741.95	  347.37
    107.2700	  642.00	  650.78	-1736.28	  347.15
    107.3700	  667.00	  656.79	-1717.29	  346.93
    107.4700	  642.00	  661.29	-1746.79	  346.71
    107.5700	  732.00	  664.27	-1659.77	  346.49
    107.6700	  678.00	  665.83	-1715.33	  346.27
    107.7700	  702.00	  666.23	-1691.73	  346.06
    107.8700	  674.00	  665.81	-1719.31	  345.84
    107.9700	  692.00	  664.94	-1700.44	  345.63
    108.0700	  567.00	  663.97	-1824.47	  345.42
    108.1700	  646.00	  663.21	-1744.71	  345.21
    108.2700	  684.00	  662.87	-1706.37	  345.00
    108.3700	  644.00	  663.10	-1746.60	  344.79
    108.4700	  641.00	  663.91	-1750.41	  344.59
    108.5700	  674.00	  665.26	-1718.76	  344.39
    108.6700	  647.00	  666.97	-1747.47	  344.18
    108.7700	  697.00	  668.81	-1699.31	  343.98
    108.8700	  706.00	  670.44	-1691.94	  343.78
    108.9700	  672.00	  671.50	-1727.00	  343.59
    109.0700	  674.00	  671.61	-1725.11	  343.39
    109.1700	  700.00	  670.45	-1697.95	  343.20
    109.2700	  708.00	  667.76	-1687.26	  343.01
    109.3700	  653.00	  663.45	-1737.95	  342.82
    109.4700	  664.00	  657.55	-1721.05	  342.63
    109.5700	  678.00	  650.21	-1699.71	  342.44
    109.6700	  683.00	  641.69	-1686.19	  342.26
    109.7700	  613.00	  632.30	-1746.80	  342.08
    109.8700	  616.00	  622.36	-1733.86	  341.90
    109.9700	  576.00	  612.18	-1763.68	  341.72
    110.0700	  602.00	  602.05	-1727.55	  341.54
    110.1700	  595.00	  592.22	-1724.72	  341.37
    110.2700	  543.00	  582.90	-1767.40	  341.20
    110.3700	  614.00	  574.25	-1687.75	  341.03
    110.4700	  598.00	  566.42	-1695.92	  340.86
    110.5700	  514.00	  559.48	-1772.98	  340.70
    110.6700	  571.00	  553.48	-1709.98	  340.54
    110.7700	  526.00	  548.43	-1749.93	  340.38
    110.8700	  556.00	  544.32	-1715.82	  340.22
    110.9700	  586.00	  541.11	-1682.61	  340.06
    111.0700	  539.00	  538.74	-1727.24	  339.91
    111.1700	  573.00	  537.14	-1691.64	  339.76
    111.2700	  548.00	  536.23	-1715.73	  339.61
    111.3700	  531.00	  535.93	-1732.43	  339.46
    111.4700	  501.00	  536.17	-1762.67	  339.32
    111.5700	  541.00	  536.87	-1723.37	  339.18
    111.6700	  554.00	  537.97	-1711.47	  339.04
    111.7700	  563.00	  539.41	-1703.91	  338.91
    111.8700	  552.00	  541.15	-1716.65	  338.78
    111.9700	  503.00	  543.15	-1767.65	  338.65
    112.0700	  570.00	  545.39	-1702.89	  338.52
    112.1700	  578.00	  547.83	-1697.33	  338.40
    112.2700	  525.00	  550.50	-1753.00	  338.28
    112.3700	  596.00	  553.38	-1684.88	  338.16
    112.4700	  540.00	  556.50	-1744.00	  338.05
    112.5700	  579.00	  559.88	-1708.38	  337.93
    112.6700	  539.00	  563.57	-1752.07	  337.83
    112.7700	  593.00	  567.62	-1702.12	  337.72
    112.8700	  545.00	  572.10	-1754.60	  337.62
    112.9700	  616.00	  577.08	-1688.58	  337.52
    113.0700	  569.00	  582.68	-1741.18	  337.42
    113.1700	  528.00	  589.04	-1788.54	  337.33
    113.2700	  582.00	  596.33	-1741.83	  337.24
    113.3700	  636.00	  604.79	-1696.29	  337.16
    113.4700	  629.00	  614.70	-1713.20	  337.07
    113.5700	  688.00	  626.44	-1665.94	  337.00
    113.6700	  652.00	  640.47	-1715.97	  336.92
    113.7700	  672.00	  657.39	-1712.89	  336.85
    113.8700	  698.00	  677.91	-1707.41	  336.78
    113.9700	  721.00	  702.90	-1709.40	  336.72
    114.0700	  779.00	  733.43	-1681.93	  336.66
    114.1700	  785.00	  770.75	-1713.25	  336.60
    114.2700	  798.00	  816.31	-1745.81	  336.54
    114.3700	  874.00	  871.76	-1725.26	  336.50
    114.4700	  960.00	  938.93	-1706.43	  336.45
    114.5700	  970.00	 1019.87	-1777.37	  336.41
    114.6700	 1135.00	 1116.70	-1709.20	  336.37
    114.7700	 1334.00	 1231.67	-1625.17	  336.34
    114.8700	 1412.00	 1366.99	-1682.49	  336.31
    114.9700	 1663.00	 1524.71	-1589.21	  336.28
    115.0700	 1782.00	 1706.74	-1652.24	  336.26
    115.1700	 1960.00	 1914.61	-1682.11	  336.24
    115.2700	 2185.00	 2149.32	-1691.82	  336.23
    115.3700	 2549.00	 2411.22	-1589.72	  336.22
    115.4700	 2852.00	 2699.84	-1575.34	  336.22
    115.5700	 3073.00	 3013.89	-1668.39	  336.21
    115.6700	 3461.00	 3351.05	-1617.55	  336.22
    115.7700	 3688.00	 3707.83	-1747.33	  336.23
    115.8700	 3995.00	 4079.61	-1812.11	  336.24
    115.9700	 4415.00	 4460.56	-1773.06	  336.26
    116.0700	 4804.00	 4843.80	-1767.30	  336.28
    116.1700	 5053.00	 5221.39	-1895.89	  336.31
    116.2700	 5452.00	 5584.23	-1859.73	  336.34
    116.3700	 5833.00	 5922.51	-1817.01	  336.38
    116.4700	 6230.00	 6225.84	-1723.34	  336.42
    116.5700	 6328.00	 6483.88	-1883.38	  336.46
    116.6700	 6696.00	 6686.87	-1718.37	  336.51
    116.7700	 6711.00	 6826.39	-1842.89	  336.57
    116.8700	 6818.00	 6896.35	-1805.85	  336.63
    116.9700	 6910.00	 6893.74	-1711.24	  336.70
    117.0700	 6838.00	 6818.96	-1708.46	  336.77
    117.1700	 6627.00	 6675.80	-1776.30	  336.85
    117.2700	 6342.00	 6470.92	-1856.42	  336.93
    117.3700	 6152.00	 6213.06	-1788.56	  337.01
    117.4700	 5867.00	 5912.21	-1772.71	  337.11
    117.5700	 5455.00	 5578.67	-1851.17	  337.20
    117.6700	 5405.00	 5222.49	-1544.99	  337.31
    117.7700	 4789.00	 4853.27	-1791.77	  337.42
    117.8700	 4477.00	 4479.64	-1730.14	  337.53
    117.9700	 4212.00	 4109.26	-1624.76	  337.65
    118.0700	 3798.00	 3748.54	-1678.04	  337.77
    118.1700	 3549.00	 3402.74	-1581.24	  337.90
    118.2700	 3110.00	 3076.08	-1693.58	  338.04
    118.3700	 2857.00	 2771.60	-1642.10	  338.18
    118.4700	 2542.00	 2491.37	-1676.87	  338.33
    118.5700	 2321.00	 2236.41	-1642.91	  338.49
    118.6700	 2091.00	 2006.95	-1643.45	  338.65
    118.7700	 1748.00	 1802.60	-1782.10	  338.81
    118.8700	 1623.00	 1622.39	-1726.89	  338.98
    118.9700	 1426.00	 1464.92	-1766.42	  339.16
    119.0700	 1352.00	 1328.44	-1703.94	  339.35
    119.1700	 1200.00	 1211.03	-1738.53	  339.54
    119.2700	 1137.00	 1110.70	-1701.20	  339.73
    119.3700	 1023.00	 1025.46	-1729.96	  339.94
    119.4700	  926.00	  953.38	-1754.88	  340.15
    119.5700	  960.00	  892.63	-1660.13	  340.36
    119.6700	  769.00	  841.56	-1800.06	  340.59
    119.7700	  793.00	  798.68	-1733.18	  340.82
    119.8700	  717.00	  762.69	-1773.19	  341.05
    119.9700	  722.00	  732.48	-1737.98	  341.30
    120.0700	  658.00	  707.09	-1776.59	  341.54
    120.1700	  688.00	  685.71	-1725.21	  341.80
    120.2700	  641.00	  667.70	-1754.20	  342.06
    120.3700	  605.00	  652.49	-1774.99	  342.33
    120.4700	  589.00	  639.66	-1778.16	  342.61
    120.5700	  629.00	  628.85	-1727.35	  342.90
    120.6700	  599.00	  619.76	-1748.26	  343.19
    120.7700	  608.00	  612.16	-1731.66	  343.48
    120.8700	  569.00	  605.88	-1764.38	  343.79
    120.9700	  578.00	  600.76	-1750.26	  344.10
    121.0700	  596.00	  596.68	-1728.18	  344.42
    121.1700	  615.00	  593.54	-1706.04	  344.75
    121.2700	  541.00	  591.26	-1777.76	  345.09
    121.3700	  605.00	  589.78	-1712.28	  345.43
    121.4700	  549.00	  589.03	-1767.53	  345.78
    121.5700	  578.00	  588.96	-1738.46	  346.14
    121.6700	  566.00	  589.51	-1751.01	  346.50
    121.7700	  570.00	  590.63	-1748.13	  346.88
    121.8700	  593.00	  592.25	-1726.75	  347.26
    121.9700	  537.00	  594.32	-1784.82	  347.65
    122.0700	  552.00	  596.78	-1772.28	  348.04
    122.1700	  557.00	  599.54	-1770.04	  348.45
    122.2700	  601.00	  602.53	-1729.03	  348.86
    122.3700	  631.00	  605.66	-1702.16	  349.28
    122.4700	  602.00	  608.84	-1734.34	  349.71
    122.5700	  593.00	  611.97	-1746.47	  350.15
    122.6700	  640.00	  614.96	-1702.46	  350.60
    122.7700	  649.00	  617.70	-1696.20	  351.05
    122.8700	  625.00	  620.10	-1722.60	  351.52
    122.9700	  610.00	  622.07	-1739.57	  351.99
    123.0700	  604.00	  623.54	-1747.04	  352.47
    123.1700	  618.00	  624.44	-1733.94	  352.96
    123.2700	  643.00	  624.78	-1709.28	  353.46
    123.3700	  625.00	  624.54	-1727.04	  353.96
    123.4700	  613.00	  623.73	-1738.23	  354.48
    123.5700	  614.00	  622.40	-1735.90	  355.00
    123.6700	  691.00	  620.60	-1657.10	  355.54
    123.7700	  658.00	  618.38	-1687.88	  356.08
    123.8700	  636.00	  615.82	-1707.32	  356.63
    123.9700	  627.00	  612.99	-1713.49	  357.19
    124.0700	  619.00	  609.95	-1718.45	  357.77
    124.1700	  670.00	  606.75	-1664.25	  358.35
    124.2700	  597.00	  603.49	-1733.99	  358.93
    124.3700	  611.00	  600.21	-1716.71	  359.53
    124.4700	  624.00	  596.97	-1700.47	  360.14
    124.5700	  618.00	  593.81	-1703.31	  360.76
    124.6700	  571.00	  590.78	-1747.28	  361.39
    124.7700	  576.00	  587.89	-1739.39	  362.03
    124.8700	  585.00	  585.19	-1727.69	  362.67
    124.9700	  577.00	  475.40	-1625.90	  363.33
    125.0700	  574.00	  476.07	-1727.50	  364.00
    125.1700	  606.00	  476.75	-1727.50	  364.68
    125.2700	  591.00	  477.44	-1727.50	  365.36
    125.3700	  604.00	  478.13	-1727.50	  366.06
    125.4700	  578.00	  478.84	-1727.50	  366.77
    125.5700	  537.00	  479.56	-1727.50	  367.49
    125.6700	  557.00	  480.29	-1727.50	  368.22
    125.7700	  594.00	  481.03	-1727.50	  368.96
    125.8700	  578.00	  481.78	-1727.50	  369.71
    125.9700	  530.00	  482.54	-1727.50	  370.47
    126.0700	  567.00	  483.31	-1727.50	  371.24
    126.1700	  597.00	  484.09	-1727.50	  372.02
    126.2700	  545.00	  484.89	-1727.50	  372.82
    126.3700	  577.00	  485.69	-1727.50	  373.62
    126.4700	  589.00	  486.51	-1727.50	  374.43
    126.5700	  555.00	  487.33	-1727.50	  375.26
    126.6700	  543.00	  488.17	-1727.50	  376.10
    126.7700	  549.00	  489.02	-1727.50	  376.95
    126.8700	  604.00	  489.88	-1727.50	  377.81
    126.9700	  563.00	  490.75	-1727.50	  378.68
    127.0700	  616.00	  491.63	-1727.50	  379.56
    127.1700	  620.00	  492.53	-1727.50	  380.46
    127.2700	  584.00	  493.44	-1727.50	  381.36
    127.3700	  545.00	  494.35	-1727.50	  382.28
    127.4700	  620.00	  495.28	-1727.50	  383.21
    127.5700	  650.00	  496.23	-1727.50	  384.15
    127.6700	  633.00	  497.18	-1727.50	  385.11
    127.7700	  613.00	  498.15	-1727.50	  386.07
    127.8700	  678.00	  499.12	-1727.50	  387.05
    127.9700	  658.00	  500.11	-1727.50	  388.04
    128.0700	  696.00	  501.12	-1727.50	  389.05
    128.1700	  728.00	  502.13	-1727.50	  390.06
    128.2700	  786.00	  503.16	-1727.50	  391.09
    128.3700	  770.00	  504.20	-1727.50	  392.13
    128.4700	  746.00	  505.25	-1727.50	  393.18
    128.5700	    0.00	  506.32	-1727.50	  394.25
    128.6700	    0.00	  507.39	-1727.50	  395.32
     12.3230	        	        	        	        	       0	(  0  0  2)	  0  1
     24.9238	        	        	        	        	       0	(  0  0  4)	  0  1
     28.3709	        	        	        	        	       0	(  1  0  0)	  0  1
     29.0691	        	        	        	        	       0	(  1  0  1)	  0  1
     31.0782	        	        	        	        	       0	(  1  0  2)	  0  1
     34.1911	        	        	        	        	       0	(  1  0  3)	  0  1
     37.8419	        	        	        	        	       0	(  0  0  6)	  0  1
     38.1741	        	        	        	        	       0	(  1  0  4)	  0  1
     42.8314	        	        	        	        	       0	(  1  0  5)	  0  1
     48.0236	        	        	        	        	       0	(  1  0  6)	  0  1
     50.3420	        	        	        	        	       0	(  1  1  0)	  0  1
     51.2847	        	        	        	        	       0	(  0  0  8)	  0  1
     52.0679	        	        	        	        	       0	(  1  1  2)	  0  1
     53.6633	        	        	        	        	       0	(  1  0  7)	  0  1
     57.0242	        	        	        	        	       0	(  1  1  4)	  0  1
     58.8538	        	        	        	        	       0	(  2  0  0)	  0  1
     59.2461	        	        	        	        	       0	(  2  0  1)	  0  1
     59.7042	        	        	        	        	       0	(  1  0  8)	  0  1
     60.4136	        	        	        	        	       0	(  2  0  2)	  0  1
     62.3303	        	        	        	        	       0	(  2  0  3)	  0  1
     64.7328	        	        	        	        	       0	(  1  1  6)	  0  1
     64.9593	        	        	        	        	       0	(  2  0  4)	  0  1
     65.5388	        	        	        	        	       0	(  0  0 10)	  0  1
     66.1323	        	        	        	        	       0	(  1  0  9)	  0  1
     68.2598	        	        	        	        	       0	(  2  0  5)	  0  1
     72.1952	        	        	        	        	       0	(  2  0  6)	  0  1
     72.9619	        	        	        	        	       0	(  1  0 10)	  0  1
     74.7906	        	        	        	        	       0	(  1  1  8)	  0  1
     76.7390	        	        	        	        	       0	(  2  0  7)	  0  1
     80.2353	        	        	        	        	       0	(  1  0 11)	  0  1
     81.0513	        	        	        	        	       0	(  0  0 12)	  0  1
     81.1410	        	        	        	        	       0	(  2  1  0)	  0  1
     81.4817	        	        	        	        	       0	(  2  1  1)	  0  1
     81.8809	        	        	        	        	       0	(  2  0  8)	  0  1
     82.5019	        	        	        	        	       0	(  2  1  2)	  0  1
     84.1973	        	        	        	        	       0	(  2  1  3)	  0  1
     86.5629	        	        	        	        	       0	(  2  1  4)	  0  1
     87.0905	        	        	        	        	       0	(  1  1 10)	  0  1
     87.6330	        	        	        	        	       0	(  2  0  9)	  0  1
     88.0284	        	        	        	        	       0	(  1  0 12)	  0  1
     89.5966	        	        	        	        	       0	(  2  1  5)	  0  1
     93.3042	        	        	        	        	       0	(  2  1  6)	  0  1
     94.0378	        	        	        	        	       0	(  2  0 10)	  0  1
     95.0671	        	        	        	        	       0	(  3  0  0)	  0  1
     95.4054	        	        	        	        	       0	(  3  0  1)	  0  1
     96.4217	        	        	        	        	       0	(  3  0  2)	  0  1
     96.4650	        	        	        	        	       0	(  1  0 13)	  0  1
     97.7059	        	        	        	        	       0	(  2  1  7)	  0  1
     98.1203	        	        	        	        	       0	(  3  0  3)	  0  1
     98.6376	        	        	        	        	       0	(  0  0 14)	  0  1
    100.5110	        	        	        	        	       0	(  3  0  4)	  0  1
    101.1818	        	        	        	        	       0	(  2  0 11)	  0  1
    102.0044	        	        	        	        	       0	(  1  1 12)	  0  1
    102.8452	        	        	        	        	       0	(  2  1  8)	  0  1
    103.6131	        	        	        	        	       0	(  3  0  5)	  0  1
    105.7484	        	        	        	        	       0	(  1  0 14)	  0  1
    107.4624	        	        	        	        	       0	(  3  0  6)	  0  1
    108.8040	        	        	        	        	       0	(  2  1  9)	  0  1
    109.2223	        	        	        	        	       0	(  2  0 12)	  0  1
    112.1217	        	        	        	        	       0	(  3  0  7)	  0  1
    115.7309	        	        	        	        	       0	(  2  1 10)	  0  1
    116.2358	        	        	        	        	       0	(  1  0 15)	  0  1
    116.8765	        	        	        	        	       0	(  2  2  0)	  0  1
    117.7012	        	        	        	        	       0	(  3  0  8)	  0  1
    118.3994	        	        	        	        	       0	(  2  2  2)	  0  1
    118.4484	        	        	        	        	       0	(  2  0 13)	  0  1
    120.2142	        	        	        	        	       0	(  0  0 16)	  0  1
    120.9300	        	        	        	        	       0	(  1  1 14)	  0  1
    123.1110	        	        	        	        	       0	(  2  2  4)	  0  1
    123.9020	        	        	        	        	       0	(  2  1 11)	  0  1
    124.3986	        	        	        	        	       0	(  3  0  9)	  0  1
    124.9879	        	        	        	        	       0	(  3  1  0)	  0  1
    125.4008	        	        	        	        	       0	(  3  1  1)	  0  1
    126.6524	        	        	        	        	       0	(  3  1  2)	  0  1
    128.6522	        	        	        	        	       0	(  1  0 16)	  0  1
    128.7856	        	        	        	        	       0	(  3  1  3)	  0  1
    129.4462	        	        	        	        	       0	(  2  0 14)	  0  1
    131.6098	        	        	        	        	       0	(  2  2  6)	  0  1
    131.8854	        	        	        	        	       0	(  3  1  4)	  0  1
    132.5985	        	        	        	        	       0	(  3  0 10)	  0  1
    133.8877	        	        	        	        	       0	(  2  1 12)	  0  1
    136.1101	        	        	        	        	       0	(  3  1  5)	  0  1
    141.7682	        	        	        	        	       0	(  3  1  6)	  0  1
    143.1905	        	        	        	        	       0	(  3  0 11)	  0  1
    143.7324	        	        	        	        	       0	(  2  0 15)	  0  1
    144.9926	        	        	        	        	       0	(  1  0 17)	  0  1
    146.0066	        	        	        	        	       0	(  2  2  8)	  0  1
    147.2072	        	        	        	        	       0	(  2  1 13)	  0  1
    149.5643	        	        	        	        	       0	(  3  1  7)	  0  1
    150.1772	        	        	        	        	       0	(  1  1 16)	  0  1
    154.6912	        	        	        	        	       0	(  0  0 18)	  0  1
    159.4579	        	        	        	        	       0	(  3  0 12)	  0  1
    159.7137	        	        	        	        	       0	(  4  0  0)	  0  1
    160.7151	        	        	        	        	       0	(  4  0  1)	  0  1
    161.9581	        	        	        	        	       0	(  3  1  8)	  0  1
    164.0813	        	        	        	        	       0	(  4  0  2)	  0  1
    171.7001	        	        	        	        	       0	(  2  0 16)	  0  1
    172.4666	        	        	        	        	       0	(  4  0  3)	  0  1
