MSG Master    CELL:    5.89453   5.89453  23.16008   90.0000   90.0000  120.0000   SPGR: P 63/m m c             TEMP:    703.75
  2   1280     2.52000     0.00000    -0.10852     0.00000     0.00000    0
    96    96     0     0     2
       0.00000      10.00000
     125.00000     130.00000
 2Theta	Yobs	Ycal	Yobs-Ycal	Backg	Posr	(hkl)	K
      0.7700	    0.00	  625.79	-1823.03	  507.01
      0.8700	    0.00	  626.31	-1823.03	  507.53
      0.9700	   41.00	  626.82	-1823.03	  508.04
      1.0700	   35.00	  627.32	-1823.03	  508.54
      1.1700	   49.00	  627.81	-1823.03	  509.03
      1.2700	   56.00	  628.29	-1823.03	  509.51
      1.3700	   46.00	  628.76	-1823.03	  509.99
      1.4700	  109.00	  629.23	-1823.03	  510.45
      1.5700	  288.00	  629.68	-1823.03	  510.90
      1.6700	  486.00	  630.12	-1823.03	  511.34
      1.7700	  532.00	  630.56	-1823.03	  511.78
      1.8700	  680.00	  630.98	-1823.03	  512.20
      1.9700	  719.00	  631.40	-1823.03	  512.62
      2.0700	  767.00	  631.80	-1823.03	  513.03
      2.1700	  742.00	  632.20	-1823.03	  513.42
      2.2700	  763.00	  632.59	-1823.03	  513.81
      2.3700	  682.00	  632.97	-1823.03	  514.19
      2.4700	  687.00	  633.34	-1823.03	  514.56
      2.5700	  717.00	  633.70	-1823.03	  514.93
      2.6700	  725.00	  634.06	-1823.03	  515.28
      2.7700	  677.00	  634.40	-1823.03	  515.62
      2.8700	  657.00	  634.74	-1823.03	  515.96
      2.9700	  630.00	  635.07	-1823.03	  516.29
      3.0700	  587.00	  635.38	-1823.03	  516.61
      3.1700	  648.00	  635.70	-1823.03	  516.92
      3.2700	  705.00	  636.00	-1823.03	  517.22
      3.3700	  825.00	  636.29	-1823.03	  517.51
      3.4700	 1001.00	  636.58	-1823.03	  517.80
      3.5700	 1088.00	  636.86	-1823.03	  518.08
      3.6700	 1339.00	  637.13	-1823.03	  518.35
      3.7700	 1411.00	  637.39	-1823.03	  518.61
      3.8700	 1389.00	  637.64	-1823.03	  518.86
      3.9700	 1502.00	  637.89	-1823.03	  519.11
      4.0700	 1605.00	  638.12	-1823.03	  519.35
      4.1700	 1630.00	  638.36	-1823.03	  519.58
      4.2700	 1546.00	  638.58	-1823.03	  519.80
      4.3700	 1530.00	  638.79	-1823.03	  520.01
      4.4700	 1471.00	  639.00	-1823.03	  520.22
      4.5700	 1451.00	  639.20	-1823.03	  520.42
      4.6700	 1422.00	  639.39	-1823.03	  520.61
      4.7700	 1326.00	  639.58	-1823.03	  520.80
      4.8700	 1300.00	  639.75	-1823.03	  520.97
      4.9700	 1225.00	  639.92	-1823.03	  521.14
      5.0700	 1251.00	  640.09	-1823.03	  521.31
      5.1700	 1196.00	  640.24	-1823.03	  521.46
      5.2700	 1214.00	  640.39	-1823.03	  521.61
      5.3700	 1219.00	  640.53	-1823.03	  521.75
      5.4700	 1161.00	  640.67	-1823.03	  521.89
      5.5700	 1085.00	  640.79	-1823.03	  522.01
      5.6700	 1118.00	  640.91	-1823.03	  522.13
      5.7700	 1044.00	  641.03	-1823.03	  522.25
      5.8700	 1003.00	  641.13	-1823.03	  522.35
      5.9700	  921.00	  641.23	-1823.03	  522.45
      6.0700	 1025.00	  641.33	-1823.03	  522.55
      6.1700	  996.00	  641.41	-1823.03	  522.63
      6.2700	  962.00	  641.49	-1823.03	  522.71
      6.3700	  991.00	  641.57	-1823.03	  522.79
      6.4700	  961.00	  641.63	-1823.03	  522.85
      6.5700	  937.00	  641.69	-1823.03	  522.92
      6.6700	  917.00	  641.75	-1823.03	  522.97
      6.7700	  864.00	  641.80	-1823.03	  523.02
      6.8700	  833.00	  641.84	-1823.03	  523.06
      6.9700	  843.00	  641.87	-1823.03	  523.09
      7.0700	  838.00	  641.90	-1823.03	  523.12
      7.1700	  847.00	  641.93	-1823.03	  523.15
      7.2700	  811.00	  641.94	-1823.03	  523.16
      7.3700	  774.00	  641.95	-1823.03	  523.18
      7.4700	  776.00	  641.96	-1823.03	  523.18
      7.5700	  792.00	  641.96	-1823.03	  523.18
      7.6700	  815.00	  641.95	-1823.03	  523.17
      7.7700	  772.00	  641.94	-1823.03	  523.16
      7.8700	  794.00	  641.92	-1823.03	  523.14
      7.9700	  734.00	  641.90	-1823.03	  523.12
      8.0700	  761.00	  641.87	-1823.03	  523.09
      8.1700	  786.00	  641.83	-1823.03	  523.06
      8.2700	  716.00	  641.79	-1823.03	  523.02
      8.3700	  791.00	  641.75	-1823.03	  522.97
      8.4700	  760.00	  641.70	-1823.03	  522.92
      8.5700	  702.00	  641.64	-1823.03	  522.86
      8.6700	  714.00	  641.58	-1823.03	  522.80
      8.7700	  740.00	  641.51	-1823.03	  522.73
      8.8700	  757.00	  641.44	-1823.03	  522.66
      8.9700	  724.00	  641.36	-1823.03	  522.58
      9.0700	  721.00	  641.28	-1823.03	  522.50
      9.1700	  726.00	  641.19	-1823.03	  522.41
      9.2700	  674.00	  641.10	-1823.03	  522.32
      9.3700	  713.00	  641.00	-1823.03	  522.22
      9.4700	  672.00	  640.90	-1823.03	  522.12
      9.5700	  630.00	  640.79	-1823.03	  522.01
      9.6700	  687.00	  640.68	-1823.03	  521.90
      9.7700	  723.00	  640.56	-1823.03	  521.78
      9.8700	  673.00	  640.44	-1823.03	  521.66
      9.9700	  673.00	  640.31	-1823.03	  521.53
     10.0700	  674.00	  642.45	-1791.48	  521.40
     10.1700	  700.00	  642.58	-1765.60	  521.27
     10.2700	  703.00	  642.75	-1762.78	  521.13
     10.3700	  622.00	  642.99	-1844.02	  520.98
     10.4700	  652.00	  643.34	-1814.37	  520.83
     10.5700	  630.00	  643.85	-1836.87	  520.68
     10.6700	  666.00	  644.58	-1801.61	  520.52
     10.7700	  664.00	  645.65	-1804.68	  520.36
     10.8700	  642.00	  647.14	-1828.17	  520.19
     10.9700	  681.00	  649.12	-1791.15	  520.02
     11.0700	  672.00	  651.62	-1802.65	  519.84
     11.1700	  678.00	  654.66	-1799.69	  519.66
     11.2700	  658.00	  658.26	-1823.29	  519.48
     11.3700	  706.00	  662.51	-1779.54	  519.29
     11.4700	  685.00	  667.52	-1805.54	  519.10
     11.5700	  678.00	  673.48	-1818.51	  518.91
     11.6700	  689.00	  680.68	-1814.71	  518.71
     11.7700	  705.00	  689.44	-1807.47	  518.50
     11.8700	  732.00	  699.96	-1790.99	  518.30
     11.9700	  788.00	  712.06	-1747.09	  518.09
     12.0700	  788.00	  724.60	-1759.63	  517.87
     12.1700	  808.00	  734.92	-1749.95	  517.65
     12.2700	  798.00	  738.54	-1763.57	  517.43
     12.3700	  788.00	  730.90	-1765.93	  517.20
     12.4700	  709.00	  713.04	-1827.07	  516.97
     12.5700	  741.00	  692.37	-1774.40	  516.74
     12.6700	  667.00	  674.87	-1830.90	  516.51
     12.7700	  683.00	  662.16	-1802.19	  516.27
     12.8700	  598.00	  653.70	-1878.73	  516.02
     12.9700	  623.00	  648.29	-1848.32	  515.78
     13.0700	  668.00	  644.81	-1799.83	  515.53
     13.1700	  706.00	  642.44	-1759.47	  515.27
     13.2700	  634.00	  640.71	-1829.73	  515.02
     13.3700	  634.00	  639.36	-1828.39	  514.76
     13.4700	  593.00	  638.25	-1868.28	  514.49
     13.5700	  618.00	  637.32	-1842.35	  514.23
     13.6700	  658.00	  636.52	-1801.55	  513.96
     13.7700	  577.00	  635.81	-1881.83	  513.69
     13.8700	  597.00	  635.17	-1861.19	  513.41
     13.9700	  590.00	  634.58	-1867.61	  513.13
     14.0700	  586.00	  634.04	-1871.07	  512.85
     14.1700	  621.00	  633.54	-1835.57	  512.57
     14.2700	  647.00	  633.06	-1809.09	  512.28
     14.3700	  605.00	  632.61	-1850.64	  511.99
     14.4700	  590.00	  632.17	-1865.20	  511.70
     14.5700	  604.00	  631.75	-1850.78	  511.40
     14.6700	  587.00	  631.34	-1867.37	  511.11
     14.7700	  582.00	  630.94	-1871.97	  510.81
     14.8700	  608.00	  630.55	-1845.58	  510.50
     14.9700	  619.00	  630.17	-1834.20	  510.20
     15.0700	  614.00	  629.79	-1838.82	  509.89
     15.1700	  566.00	  629.42	-1886.45	  509.58
     15.2700	  661.00	  629.05	-1791.08	  509.26
     15.3700	  611.00	  628.68	-1840.71	  508.95
     15.4700	  651.00	  628.32	-1800.34	  508.63
     15.5700	  586.00	  627.95	-1864.98	  508.31
     15.6700	  613.00	  627.59	-1837.62	  507.99
     15.7700	  615.00	  627.23	-1835.26	  507.66
     15.8700	  598.00	  626.87	-1851.90	  507.33
     15.9700	  620.00	  626.51	-1829.54	  507.00
     16.0700	  666.00	  626.15	-1783.18	  506.67
     16.1700	  647.00	  625.79	-1801.82	  506.34
     16.2700	  647.00	  625.43	-1801.46	  506.00
     16.3700	  628.00	  625.07	-1820.10	  505.66
     16.4700	  599.00	  624.71	-1848.74	  505.32
     16.5700	  627.00	  624.35	-1820.38	  504.98
     16.6700	  624.00	  623.99	-1823.02	  504.64
     16.7700	  593.00	  623.63	-1853.65	  504.29
     16.8700	  634.00	  623.26	-1812.29	  503.94
     16.9700	  619.00	  622.90	-1826.93	  503.59
     17.0700	  633.00	  622.53	-1812.56	  503.24
     17.1700	  581.00	  622.17	-1864.20	  502.88
     17.2700	  607.00	  621.80	-1837.83	  502.53
     17.3700	  603.00	  621.43	-1841.46	  502.17
     17.4700	  607.00	  621.07	-1837.10	  501.81
     17.5700	  593.00	  620.70	-1850.73	  501.45
     17.6700	  641.00	  620.33	-1802.36	  501.09
     17.7700	  636.00	  619.95	-1806.98	  500.72
     17.8700	  595.00	  619.58	-1847.61	  500.36
     17.9700	  632.00	  619.87	-1810.90	  499.99
     18.0700	  620.00	  619.93	-1822.96	  499.62
     18.1700	  601.00	  619.57	-1841.60	  499.25
     18.2700	  631.00	  619.22	-1811.25	  498.88
     18.3700	  555.00	  618.86	-1886.89	  498.50
     18.4700	  609.00	  618.51	-1832.54	  498.13
     18.5700	  577.00	  618.15	-1864.18	  497.75
     18.6700	  601.00	  617.79	-1839.82	  497.38
     18.7700	  581.00	  617.44	-1859.47	  497.00
     18.8700	  634.00	  617.08	-1806.11	  496.62
     18.9700	  604.00	  616.73	-1835.76	  496.23
     19.0700	  595.00	  616.37	-1844.40	  495.85
     19.1700	  605.00	  616.01	-1834.04	  495.47
     19.2700	  600.00	  615.66	-1838.69	  495.08
     19.3700	  600.00	  615.30	-1838.33	  494.70
     19.4700	  606.00	  615.01	-1832.04	  494.31
     19.5700	  610.00	  614.66	-1827.69	  493.92
     19.6700	  565.00	  614.30	-1872.33	  493.53
     19.7700	  576.00	  613.95	-1860.98	  493.14
     19.8700	  565.00	  613.60	-1871.63	  492.75
     19.9700	  535.00	  613.25	-1901.28	  492.36
     20.0700	  641.00	  612.90	-1794.93	  491.96
     20.1700	  626.00	  612.55	-1809.58	  491.57
     20.2700	  611.00	  612.20	-1824.23	  491.17
     20.3700	  602.00	  611.86	-1832.88	  490.78
     20.4700	  590.00	  611.51	-1844.54	  490.38
     20.5700	  561.00	  611.17	-1873.20	  489.98
     20.6700	  581.00	  610.83	-1852.86	  489.58
     20.7700	  627.00	  610.49	-1806.52	  489.18
     20.8700	  565.00	  610.15	-1868.18	  488.78
     20.9700	  579.00	  609.82	-1853.84	  488.38
     21.0700	  582.00	  609.48	-1850.51	  487.98
     21.1700	  613.00	  609.16	-1819.18	  487.58
     21.2700	  592.00	  608.83	-1839.86	  487.17
     21.3700	  612.00	  608.51	-1819.54	  486.77
     21.4700	  602.00	  608.19	-1829.22	  486.36
     21.5700	  612.00	  607.88	-1818.90	  485.96
     21.6700	  565.00	  607.57	-1865.59	  485.55
     21.7700	  592.00	  607.26	-1838.29	  485.15
     21.8700	  625.00	  607.14	-1805.17	  484.74
     21.9700	  623.00	  606.85	-1806.88	  484.34
     22.0700	  629.00	  606.57	-1800.59	  483.93
     22.1700	  584.00	  606.29	-1845.32	  483.52
     22.2700	  567.00	  606.03	-1862.05	  483.11
     22.3700	  638.00	  605.77	-1790.80	  482.70
     22.4700	  612.00	  605.52	-1816.55	  482.30
     22.5700	  627.00	  605.29	-1801.32	  481.89
     22.6700	  593.00	  605.07	-1835.10	  481.48
     22.7700	  585.00	  604.87	-1842.90	  481.07
     22.8700	  592.00	  604.69	-1835.72	  480.66
     22.9700	  589.00	  604.53	-1838.56	  480.25
     23.0700	  605.00	  604.40	-1822.42	  479.84
     23.1700	  641.00	  604.29	-1786.32	  479.43
     23.2700	  612.00	  604.22	-1815.25	  479.02
     23.3700	  623.00	  604.20	-1804.23	  478.60
     23.4700	  572.00	  604.24	-1855.27	  478.19
     23.5700	  598.00	  604.35	-1829.37	  477.78
     23.6700	  634.00	  604.55	-1793.58	  477.37
     23.7700	  643.00	  604.83	-1784.85	  476.96
     23.8700	  619.00	  605.37	-1809.39	  476.55
     23.9700	  615.00	  606.22	-1814.25	  476.14
     24.0700	  572.00	  607.55	-1858.58	  475.73
     24.1700	  560.00	  609.63	-1872.66	  475.32
     24.2700	  632.00	  612.84	-1803.87	  474.90
     24.3700	  611.00	  617.62	-1829.65	  474.49
     24.4700	  649.00	  624.30	-1798.33	  474.08
     24.5700	  670.00	  632.93	-1785.96	  473.67
     24.6700	  641.00	  643.03	-1825.06	  473.26
     24.7700	  707.00	  653.21	-1769.24	  472.85
     24.8700	  655.00	  660.84	-1828.87	  472.44
     24.9700	  689.00	  662.41	-1796.44	  472.03
     25.0700	  686.00	  655.96	-1792.99	  471.62
     25.1700	  654.00	  644.42	-1813.45	  471.21
     25.2700	  705.00	  632.64	-1750.67	  470.80
     25.3700	  687.00	  623.25	-1759.28	  470.39
     25.4700	  651.00	  616.76	-1788.79	  469.98
     25.5700	  649.00	  612.72	-1786.75	  469.57
     25.6700	  644.00	  610.45	-1789.48	  469.17
     25.7700	  674.00	  609.32	-1758.35	  468.76
     25.8700	  639.00	  608.93	-1792.96	  468.35
     25.9700	  642.00	  609.02	-1790.05	  467.94
     26.0700	  662.00	  609.49	-1770.51	  467.54
     26.1700	  663.00	  610.28	-1770.31	  467.13
     26.2700	  641.00	  611.40	-1793.43	  466.73
     26.3700	  600.00	  612.86	-1835.89	  466.32
     26.4700	  609.00	  614.70	-1828.73	  465.91
     26.5700	  614.00	  616.98	-1826.01	  465.51
     26.6700	  645.00	  619.78	-1797.81	  465.11
     26.7700	  645.00	  623.21	-1801.23	  464.70
     26.8700	  657.00	  627.41	-1793.44	  464.30
     26.9700	  629.00	  632.61	-1826.64	  463.90
     27.0700	  659.00	  639.08	-1803.11	  463.50
     27.1700	  673.00	  647.27	-1797.30	  463.10
     27.2700	  709.00	  657.88	-1771.91	  462.69
     27.3700	  687.00	  672.18	-1808.21	  462.30
     27.4700	  728.00	  692.66	-1787.69	  461.90
     27.5700	  703.00	  724.19	-1844.22	  461.50
     27.6700	  764.00	  775.68	-1834.71	  461.10
     27.7700	  784.00	  861.80	-1900.83	  460.70
     27.8700	  828.00	 1003.01	-1998.04	  460.31
     27.9700	 1064.00	 1220.19	-1979.22	  459.91
     28.0700	 1297.00	 1521.75	-2047.78	  459.51
     28.1700	 1851.00	 1885.64	-1857.67	  459.12
     28.2700	 2423.00	 2240.82	-1640.85	  458.73
     28.3700	 2801.00	 2461.52	-1483.54	  458.33
     28.4700	 2725.00	 2421.80	-1519.83	  457.94
     28.5700	 2130.00	 2157.56	-1850.59	  457.55
     28.6700	 1771.00	 1871.28	-1923.31	  457.16
     28.7700	 1569.00	 1708.24	-1962.26	  456.77
     28.8700	 1493.00	 1689.86	-2019.89	  456.38
     28.9700	 1685.00	 1754.31	-1892.34	  456.00
     29.0700	 1907.00	 1793.69	-1709.72	  455.61
     29.1700	 1726.00	 1705.59	-1802.62	  455.22
     29.2700	 1574.00	 1485.42	-1734.44	  454.84
     29.3700	 1244.00	 1229.11	-1808.14	  454.45
     29.4700	 1033.00	 1014.60	-1804.63	  454.07
     29.5700	  880.00	  864.72	-1807.75	  453.69
     29.6700	  814.00	  771.59	-1780.62	  453.31
     29.7700	  772.00	  717.32	-1768.35	  452.93
     29.8700	  783.00	  685.58	-1725.61	  452.55
     29.9700	  715.00	  665.82	-1773.85	  452.17
     30.0700	  734.00	  652.56	-1741.59	  451.79
     30.1700	  730.00	  643.39	-1736.42	  451.41
     30.2700	  695.00	  637.47	-1765.50	  451.04
     30.3700	  721.00	  634.84	-1736.87	  450.67
     30.4700	  683.00	  636.24	-1776.27	  450.29
     30.5700	  707.00	  643.02	-1759.05	  449.92
     30.6700	  700.00	  656.64	-1779.67	  449.55
     30.7700	  665.00	  677.58	-1835.61	  449.18
     30.8700	  697.00	  703.93	-1829.96	  448.81
     30.9700	  812.00	  730.15	-1741.18	  448.44
     31.0700	  675.00	  746.64	-1894.67	  448.08
     31.1700	  742.00	  742.83	-1823.86	  447.71
     31.2700	  706.00	  717.47	-1834.50	  447.35
     31.3700	  707.00	  682.72	-1798.75	  446.98
     31.4700	  639.00	  650.83	-1834.86	  446.62
     31.5700	  640.00	  626.79	-1809.82	  446.26
     31.6700	  604.00	  610.73	-1829.76	  445.90
     31.7700	  663.00	  600.77	-1760.80	  445.54
     31.8700	  648.00	  594.71	-1769.74	  445.18
     31.9700	  604.00	  590.89	-1809.92	  444.83
     32.0700	  682.00	  588.30	-1729.33	  444.47
     32.1700	  643.00	  586.44	-1766.47	  444.12
     32.2700	  608.00	  585.08	-1800.11	  443.77
     32.3700	  590.00	  584.11	-1817.14	  443.42
     32.4700	  632.00	  583.47	-1774.50	  443.07
     32.5700	  634.00	  583.18	-1772.21	  442.72
     32.6700	  595.00	  583.19	-1811.22	  442.37
     32.7700	  613.00	  583.55	-1793.58	  442.03
     32.8700	  594.00	  584.32	-1813.35	  441.68
     32.9700	  591.00	  585.58	-1817.61	  441.34
     33.0700	  579.00	  587.48	-1831.51	  441.00
     33.1700	  660.00	  590.31	-1753.34	  440.66
     33.2700	  587.00	  594.56	-1830.59	  440.32
     33.3700	  576.00	  601.21	-1848.24	  439.98
     33.4700	  634.00	  612.04	-1801.06	  439.64
     33.5700	  645.00	  629.99	-1808.02	  439.31
     33.6700	  640.00	  659.24	-1842.27	  438.97
     33.7700	  736.00	  704.40	-1791.43	  438.64
     33.8700	  772.00	  768.18	-1819.20	  438.31
     33.9700	  935.00	  847.55	-1735.58	  437.98
     34.0700	  947.00	  930.15	-1806.18	  437.65
     34.1700	 1063.00	  992.69	-1752.71	  437.33
     34.2700	 1134.00	 1006.40	-1695.43	  437.00
     34.3700	 1010.00	  959.09	-1772.12	  436.68
     34.4700	  938.00	  873.80	-1758.83	  436.35
     34.5700	  811.00	  785.05	-1797.08	  436.03
     34.6700	  699.00	  712.33	-1836.36	  435.71
     34.7700	  639.00	  660.40	-1844.43	  435.40
     34.8700	  658.00	  626.71	-1791.74	  435.08
     34.9700	  623.00	  606.05	-1806.08	  434.76
     35.0700	  628.00	  593.47	-1788.50	  434.45
     35.1700	  609.00	  585.45	-1799.48	  434.14
     35.2700	  591.00	  579.92	-1811.95	  433.83
     35.3700	  575.00	  575.81	-1823.84	  433.52
     35.4700	  565.00	  572.59	-1830.62	  433.21
     35.5700	  558.00	  569.98	-1835.00	  432.90
     35.6700	  569.00	  567.81	-1821.84	  432.60
     35.7700	  543.00	  565.99	-1846.02	  432.30
     35.8700	  537.00	  564.45	-1850.47	  431.99
     35.9700	  505.00	  563.60	-1881.63	  431.69
     36.0700	  539.00	  562.46	-1846.48	  431.40
     36.1700	  557.00	  561.46	-1827.49	  431.10
     36.2700	  583.00	  560.59	-1800.62	  430.80
     36.3700	  576.00	  559.84	-1806.87	  430.51
     36.4700	  556.00	  559.19	-1826.22	  430.22
     36.5700	  539.00	  558.65	-1842.68	  429.93
     36.6700	  524.00	  558.20	-1857.23	  429.64
     36.7700	  567.00	  558.06	-1814.09	  429.35
     36.8700	  549.00	  557.82	-1831.85	  429.06
     36.9700	  556.00	  557.77	-1824.80	  428.78
     37.0700	  550.00	  557.94	-1830.97	  428.49
     37.1700	  494.00	  558.43	-1887.46	  428.21
     37.2700	  502.00	  559.42	-1880.45	  427.93
     37.3700	  563.00	  561.15	-1821.18	  427.65
     37.4700	  529.00	  563.98	-1858.01	  427.38
     37.5700	  581.00	  568.31	-1810.34	  427.10
     37.6700	  573.00	  574.50	-1824.53	  426.83
     37.7700	  570.00	  582.66	-1835.69	  426.56
     37.8700	  581.00	  592.38	-1834.41	  426.29
     37.9700	  613.00	  602.51	-1812.54	  426.02
     38.0700	  592.00	  611.35	-1842.38	  425.75
     38.1700	  671.00	  616.70	-1768.73	  425.49
     38.2700	  573.00	  615.96	-1865.99	  425.22
     38.3700	  625.00	  608.19	-1806.22	  424.96
     38.4700	  601.00	  595.92	-1817.95	  424.70
     38.5700	  557.00	  583.16	-1849.19	  424.44
     38.6700	  516.00	  572.36	-1879.39	  424.18
     38.7700	  623.00	  564.25	-1764.28	  423.93
     38.8700	  544.00	  558.65	-1837.68	  423.67
     38.9700	  516.00	  554.96	-1861.99	  423.42
     39.0700	  551.00	  551.94	-1823.97	  423.17
     39.1700	  564.00	  550.34	-1809.36	  422.92
     39.2700	  551.00	  549.18	-1821.21	  422.67
     39.3700	  580.00	  548.30	-1791.33	  422.43
     39.4700	  505.00	  547.57	-1865.60	  422.18
     39.5700	  546.00	  546.96	-1823.99	  421.94
     39.6700	  529.00	  546.43	-1840.46	  421.70
     39.7700	  542.00	  545.96	-1826.99	  421.46
     39.8700	  515.00	  545.55	-1853.58	  421.22
     39.9700	  563.00	  545.18	-1805.21	  420.99
     40.0700	  532.00	  545.40	-1836.43	  420.75
     40.1700	  546.00	  544.70	-1821.73	  420.52
     40.2700	  562.00	  544.45	-1805.48	  420.29
     40.3700	  540.00	  544.22	-1827.25	  420.06
     40.4700	  548.00	  544.03	-1819.06	  419.83
     40.5700	  544.00	  543.86	-1822.88	  419.61
     40.6700	  531.00	  543.71	-1835.74	  419.38
     40.7700	  536.00	  543.60	-1830.63	  419.16
     40.8700	  547.00	  543.52	-1819.55	  418.94
     40.9700	  524.00	  543.48	-1842.50	  418.72
     41.0700	  551.00	  543.53	-1815.56	  418.50
     41.1700	  512.00	  543.57	-1854.60	  418.28
     41.2700	  530.00	  543.67	-1836.70	  418.07
     41.3700	  527.00	  543.83	-1839.86	  417.86
     41.4700	  547.00	  544.08	-1820.11	  417.65
     41.5700	  564.00	  544.43	-1803.46	  417.44
     41.6700	  543.00	  544.92	-1824.95	  417.23
     41.7700	  528.00	  545.61	-1840.64	  417.02
     41.8700	  519.00	  546.61	-1850.64	  416.82
     41.9700	  587.00	  548.12	-1784.15	  416.62
     42.0700	  572.00	  550.50	-1801.52	  416.42
     42.1700	  540.00	  554.30	-1837.33	  416.22
     42.2700	  553.00	  560.35	-1830.38	  416.02
     42.3700	  594.00	  569.73	-1798.76	  415.82
     42.4700	  547.00	  582.90	-1858.93	  415.63
     42.5700	  591.00	  600.13	-1832.16	  415.43
     42.6700	  597.00	  620.18	-1846.21	  415.24
     42.7700	  585.00	  639.65	-1877.68	  415.05
     42.8700	  633.00	  653.12	-1843.15	  414.87
     42.9700	  621.00	  655.06	-1857.09	  414.68
     43.0700	  634.00	  643.77	-1832.80	  414.50
     43.1700	  567.00	  624.41	-1880.44	  414.31
     43.2700	  563.00	  603.46	-1863.49	  414.13
     43.3700	  556.00	  585.02	-1852.05	  413.95
     43.4700	  503.00	  570.67	-1890.70	  413.77
     43.5700	  565.00	  560.45	-1818.48	  413.60
     43.6700	  534.00	  553.65	-1842.68	  413.42
     43.7700	  566.00	  549.29	-1806.32	  413.25
     43.8700	  529.00	  546.51	-1840.54	  413.08
     43.9700	  523.00	  544.67	-1844.70	  412.91
     44.0700	  537.00	  543.39	-1829.42	  412.74
     44.1700	  550.00	  542.65	-1815.68	  412.57
     44.2700	  567.00	  541.91	-1797.94	  412.41
     44.3700	  541.00	  541.32	-1823.35	  412.25
     44.4700	  521.00	  540.85	-1842.87	  412.09
     44.5700	  572.00	  540.46	-1791.49	  411.93
     44.6700	  529.00	  540.15	-1834.17	  411.77
     44.7700	  513.00	  539.89	-1849.92	  411.61
     44.8700	  561.00	  539.69	-1801.72	  411.45
     44.9700	  527.00	  539.55	-1835.58	  411.30
     45.0700	  506.00	  539.44	-1856.47	  411.15
     45.1700	  532.00	  539.37	-1830.40	  411.00
     45.2700	  532.00	  539.42	-1830.45	  410.85
     45.3700	  609.00	  539.41	-1753.44	  410.70
     45.4700	  554.00	  539.44	-1808.47	  410.56
     45.5700	  533.00	  539.50	-1829.53	  410.41
     45.6700	  533.00	  539.60	-1829.63	  410.27
     45.7700	  544.00	  539.79	-1818.82	  410.13
     45.8700	  524.00	  539.96	-1838.99	  409.99
     45.9700	  586.00	  540.17	-1777.20	  409.85
     46.0700	  556.00	  540.42	-1807.45	  409.72
     46.1700	  541.00	  540.72	-1822.75	  409.58
     46.2700	  534.00	  541.07	-1830.10	  409.45
     46.3700	  563.00	  541.48	-1801.51	  409.32
     46.4700	  505.00	  541.96	-1859.99	  409.19
     46.5700	  518.00	  542.34	-1847.37	  409.06
     46.6700	  523.00	  543.00	-1843.03	  408.93
     46.7700	  493.00	  543.78	-1873.81	  408.81
     46.8700	  572.00	  544.71	-1795.74	  408.69
     46.9700	  564.00	  545.86	-1804.89	  408.56
     47.0700	  533.00	  547.33	-1837.35	  408.44
     47.1700	  539.00	  549.30	-1833.33	  408.32
     47.2700	  569.00	  552.08	-1806.11	  408.21
     47.3700	  571.00	  556.12	-1808.14	  408.09
     47.4700	  538.00	  561.99	-1847.02	  407.98
     47.5700	  560.00	  570.33	-1833.36	  407.86
     47.6700	  579.00	  581.58	-1825.61	  407.75
     47.7700	  595.00	  595.75	-1823.78	  407.64
     47.8700	  596.00	  612.46	-1839.49	  407.53
     47.9700	  636.00	  628.64	-1815.66	  407.43
     48.0700	  626.00	  641.16	-1838.19	  407.32
     48.1700	  596.00	  646.09	-1873.12	  407.22
     48.2700	  603.00	  641.89	-1861.92	  407.12
     48.3700	  635.00	  631.04	-1819.07	  407.01
     48.4700	  641.00	  617.88	-1799.91	  406.92
     48.5700	  663.00	  605.78	-1765.81	  406.82
     48.6700	  621.00	  596.53	-1798.56	  406.72
     48.7700	  571.00	  590.74	-1842.77	  406.63
     48.8700	  582.00	  588.37	-1829.40	  406.53
     48.9700	  594.00	  589.04	-1818.06	  406.44
     49.0700	  612.00	  592.37	-1803.40	  406.35
     49.1700	  626.00	  598.22	-1795.25	  406.26
     49.2700	  600.00	  606.91	-1829.94	  406.17
     49.3700	  635.00	  619.58	-1807.60	  406.08
     49.4700	  582.00	  638.85	-1879.88	  406.00
     49.5700	  652.00	  669.94	-1840.97	  405.92
     49.6700	  684.00	  721.94	-1860.97	  405.83
     49.7700	  741.00	  808.46	-1890.49	  405.75
     49.8700	  863.00	  946.25	-1906.28	  405.67
     49.9700	 1099.00	 1150.38	-1874.41	  405.59
     50.0700	 1441.00	 1425.56	-1807.59	  405.52
     50.1700	 1801.00	 1755.66	-1777.69	  405.44
     50.2700	 2237.00	 2093.62	-1679.65	  405.37
     50.3700	 2550.00	 2358.23	-1631.26	  405.30
     50.4700	 2545.00	 2454.86	-1732.89	  405.22
     50.5700	 2413.00	 2339.58	-1749.61	  405.15
     50.6700	 2036.00	 2062.90	-1849.93	  405.09
     50.7700	 1667.00	 1723.81	-1879.84	  405.02
     50.8700	 1246.00	 1402.68	-1979.71	  404.95
     50.9700	 1111.00	 1142.41	-1854.44	  404.89
     51.0700	  887.00	  955.59	-1891.62	  404.82
     51.1700	  774.00	  834.76	-1883.79	  404.76
     51.2700	  717.00	  762.78	-1868.81	  404.70
     51.3700	  700.00	  721.04	-1844.06	  404.64
     51.4700	  673.00	  694.52	-1844.55	  404.58
     51.5700	  641.00	  674.15	-1856.18	  404.53
     51.6700	  696.00	  656.46	-1783.49	  404.47
     51.7700	  630.00	  640.99	-1834.02	  404.42
     51.8700	  588.00	  628.11	-1863.14	  404.36
     51.9700	  664.00	  618.00	-1777.03	  404.31
     52.0700	  637.00	  610.47	-1796.50	  404.26
     52.1700	  625.00	  605.08	-1803.11	  404.21
     52.2700	  583.00	  601.36	-1841.39	  404.16
     52.3700	  605.00	  599.07	-1817.10	  404.12
     52.4700	  625.00	  598.30	-1796.33	  404.07
     52.5700	  627.00	  599.39	-1795.42	  404.03
     52.6700	  605.00	  602.93	-1820.96	  403.98
     52.7700	  632.00	  609.92	-1800.95	  403.94
     52.8700	  620.00	  622.01	-1825.04	  403.90
     52.9700	  637.00	  641.53	-1827.56	  403.86
     53.0700	  729.00	  671.56	-1765.59	  403.82
     53.1700	  704.00	  715.22	-1834.25	  403.78
     53.2700	  774.00	  775.12	-1824.15	  403.75
     53.3700	  815.00	  851.89	-1859.92	  403.71
     53.4700	  972.00	  942.59	-1793.62	  403.68
     53.5700	 1072.00	 1038.85	-1789.88	  403.64
     53.6700	 1176.00	 1125.12	-1772.15	  403.61
     53.7700	 1235.00	 1179.75	-1767.78	  403.58
     53.8700	 1232.00	 1184.07	-1775.10	  403.55
     53.9700	 1116.00	 1136.23	-1843.26	  403.52
     54.0700	 1084.00	 1053.21	-1792.24	  403.50
     54.1700	 1010.00	  957.50	-1770.53	  403.47
     54.2700	  889.00	  865.91	-1799.94	  403.45
     54.3700	  802.00	  787.66	-1808.68	  403.42
     54.4700	  756.00	  726.21	-1793.24	  403.40
     54.5700	  662.00	  681.27	-1842.30	  403.38
     54.6700	  679.00	  650.40	-1794.43	  403.36
     54.7700	  652.00	  630.33	-1801.36	  403.34
     54.8700	  611.00	  617.91	-1829.94	  403.32
     54.9700	  603.00	  610.65	-1830.68	  403.30
     55.0700	  630.00	  606.78	-1799.81	  403.28
     55.1700	  652.00	  605.24	-1776.27	  403.27
     55.2700	  681.00	  605.41	-1747.44	  403.25
     55.3700	  616.00	  607.01	-1814.04	  403.24
     55.4700	  614.00	  609.96	-1818.99	  403.22
     55.5700	  617.00	  614.32	-1820.35	  403.21
     55.6700	  638.00	  620.31	-1805.34	  403.20
     55.7700	  603.00	  628.34	-1848.37	  403.19
     55.8700	  656.00	  639.23	-1806.26	  403.18
     55.9700	  643.00	  654.47	-1834.50	  403.17
     56.0700	  675.00	  676.76	-1824.79	  403.17
     56.1700	  720.00	  710.48	-1813.51	  403.16
     56.2700	  752.00	  762.53	-1833.56	  403.16
     56.3700	  822.00	  842.24	-1843.27	  403.15
     56.4700	  912.00	  960.66	-1871.69	  403.15
     56.5700	 1117.00	 1128.22	-1834.25	  403.14
     56.6700	 1312.00	 1350.88	-1861.91	  403.14
     56.7700	 1596.00	 1625.49	-1852.52	  403.14
     56.8700	 1952.00	 1934.42	-1805.45	  403.14
     56.9700	 2330.00	 2240.60	-1733.63	  403.14
     57.0700	 2512.00	 2485.21	-1796.24	  403.14
     57.1700	 2535.00	 2600.27	-1888.30	  403.15
     57.2700	 2508.00	 2545.23	-1860.26	  403.15
     57.3700	 2290.00	 2340.19	-1873.22	  403.15
     57.4700	 2058.00	 2049.35	-1814.38	  403.16
     57.5700	 1691.00	 1738.29	-1870.32	  403.16
     57.6700	 1326.00	 1452.05	-1949.08	  403.17
     57.7700	 1114.00	 1214.37	-1923.40	  403.18
     57.8700	  911.00	 1033.09	-1945.11	  403.19
     57.9700	  895.00	  905.30	-1833.33	  403.19
     58.0700	  755.00	  822.56	-1890.59	  403.20
     58.1700	  711.00	  775.20	-1887.22	  403.21
     58.2700	  810.00	  755.17	-1768.20	  403.23
     58.3700	  744.00	  757.34	-1836.37	  403.24
     58.4700	  734.00	  779.05	-1868.08	  403.25
     58.5700	  837.00	  819.10	-1805.13	  403.26
     58.6700	  881.00	  876.17	-1818.20	  403.28
     58.7700	  876.00	  947.17	-1894.20	  403.29
     58.8700	 1031.00	 1025.88	-1817.91	  403.31
     58.9700	 1133.00	 1102.79	-1792.82	  403.32
     59.0700	 1157.00	 1168.16	-1834.19	  403.34
     59.1700	 1201.00	 1216.57	-1838.60	  403.36
     59.2700	 1285.00	 1246.30	-1784.33	  403.37
     59.3700	 1303.00	 1255.20	-1775.22	  403.39
     59.4700	 1266.00	 1242.14	-1799.17	  403.41
     59.5700	 1218.00	 1213.09	-1818.12	  403.43
     59.6700	 1206.00	 1180.87	-1797.90	  403.45
     59.7700	 1183.00	 1158.16	-1798.19	  403.47
     59.8700	 1166.00	 1153.31	-1810.34	  403.49
     59.9700	 1192.00	 1171.23	-1802.26	  403.52
     60.0700	 1126.00	 1215.26	-1912.29	  403.54
     60.1700	 1276.00	 1285.75	-1832.78	  403.56
     60.2700	 1458.00	 1376.40	-1741.43	  403.59
     60.3700	 1384.00	 1471.39	-1910.42	  403.61
     60.4700	 1620.00	 1545.54	-1748.57	  403.63
     60.5700	 1580.00	 1570.31	-1813.34	  403.66
     60.6700	 1560.00	 1528.76	-1791.79	  403.69
     60.7700	 1432.00	 1427.91	-1818.94	  403.71
     60.8700	 1281.00	 1292.57	-1834.60	  403.74
     60.9700	 1138.00	 1149.15	-1834.18	  403.77
     61.0700	 1033.00	 1016.88	-1806.91	  403.79
     61.1700	  890.00	  906.93	-1839.96	  403.82
     61.2700	  853.00	  823.97	-1794.00	  403.85
     61.3700	  810.00	  768.36	-1781.39	  403.88
     61.4700	  795.00	  738.18	-1766.21	  403.91
     61.5700	  738.00	  731.36	-1816.39	  403.94
     61.6700	  789.00	  746.86	-1780.89	  403.97
     61.7700	  787.00	  784.96	-1820.99	  404.00
     61.8700	  849.00	  846.56	-1820.59	  404.03
     61.9700	  913.00	  931.60	-1841.63	  404.06
     62.0700	 1073.00	 1037.31	-1787.34	  404.09
     62.1700	 1199.00	 1156.50	-1780.53	  404.13
     62.2700	 1277.00	 1275.91	-1821.93	  404.16
     62.3700	 1449.00	 1375.68	-1749.70	  404.19
     62.4700	 1397.00	 1432.12	-1858.15	  404.23
     62.5700	 1462.00	 1427.95	-1788.98	  404.26
     62.6700	 1351.00	 1363.93	-1835.96	  404.29
     62.7700	 1230.00	 1258.29	-1851.32	  404.33
     62.8700	 1063.00	 1134.69	-1894.71	  404.36
     62.9700	  976.00	 1012.33	-1859.36	  404.40
     63.0700	  915.00	  903.59	-1811.62	  404.43
     63.1700	  785.00	  814.64	-1852.67	  404.47
     63.2700	  681.00	  746.96	-1888.99	  404.50
     63.3700	  630.00	  698.81	-1891.83	  404.54
     63.4700	  711.00	  666.70	-1778.72	  404.58
     63.5700	  631.00	  646.94	-1838.97	  404.61
     63.6700	  620.00	  636.33	-1839.36	  404.65
     63.7700	  682.00	  632.75	-1773.78	  404.69
     63.8700	  646.00	  635.31	-1812.33	  404.72
     63.9700	  648.00	  644.19	-1819.21	  404.76
     64.0700	  659.00	  660.47	-1824.49	  404.80
     64.1700	  697.00	  685.82	-1811.85	  404.83
     64.2700	  735.00	  722.02	-1810.05	  404.87
     64.3700	  787.00	  770.43	-1806.46	  404.91
     64.4700	  869.00	  831.24	-1785.27	  404.95
     64.5700	  842.00	  902.96	-1883.99	  404.99
     64.6700	  977.00	  980.97	-1826.99	  405.02
     64.7700	 1121.00	 1057.63	-1759.65	  405.06
     64.8700	 1183.00	 1122.31	-1762.34	  405.10
     64.9700	 1222.00	 1163.80	-1764.83	  405.14
     65.0700	 1213.00	 1174.02	-1784.05	  405.18
     65.1700	 1122.00	 1152.86	-1853.89	  405.22
     65.2700	 1103.00	 1105.47	-1825.50	  405.26
     65.3700	 1052.00	 1041.43	-1812.46	  405.30
     65.4700	  928.00	  971.60	-1866.63	  405.33
     65.5700	  850.00	  904.21	-1877.24	  405.37
     65.6700	  811.00	  843.95	-1855.98	  405.41
     65.7700	  774.00	  792.51	-1841.54	  405.45
     65.8700	  686.00	  749.86	-1886.89	  405.49
     65.9700	  697.00	  715.35	-1841.38	  405.53
     66.0700	  688.00	  688.16	-1823.19	  405.57
     66.1700	  667.00	  667.43	-1823.46	  405.61
     66.2700	  637.00	  652.15	-1838.18	  405.65
     66.3700	  577.00	  641.18	-1887.21	  405.69
     66.4700	  622.00	  633.94	-1834.97	  405.73
     66.5700	  602.00	  629.71	-1850.74	  405.76
     66.6700	  633.00	  628.20	-1818.23	  405.80
     66.7700	  636.00	  629.26	-1816.29	  405.84
     66.8700	  584.00	  632.97	-1872.00	  405.88
     66.9700	  617.00	  639.77	-1845.80	  405.92
     67.0700	  646.00	  650.59	-1827.62	  405.96
     67.1700	  686.00	  667.14	-1804.17	  406.00
     67.2700	  718.00	  692.12	-1797.15	  406.03
     67.3700	  700.00	  729.46	-1852.49	  406.07
     67.4700	  757.00	  784.29	-1850.32	  406.11
     67.5700	  843.00	  862.71	-1842.74	  406.15
     67.6700	 1009.00	  970.92	-1784.95	  406.19
     67.7700	 1153.00	 1113.75	-1783.77	  406.22
     67.8700	 1281.00	 1293.16	-1835.19	  406.26
     67.9700	 1495.00	 1506.14	-1834.16	  406.30
     68.0700	 1780.00	 1742.92	-1785.95	  406.33
     68.1700	 1919.00	 1985.26	-1889.29	  406.37
     68.2700	 2218.00	 2205.25	-1810.28	  406.41
     68.3700	 2373.00	 2367.05	-1817.08	  406.44
     68.4700	 2493.00	 2435.46	-1765.49	  406.48
     68.5700	 2403.00	 2392.96	-1812.99	  406.52
     68.6700	 2191.00	 2250.65	-1882.68	  406.55
     68.7700	 2032.00	 2041.07	-1832.09	  406.59
     68.8700	 1782.00	 1801.17	-1842.20	  406.62
     68.9700	 1560.00	 1561.16	-1824.19	  406.66
     69.0700	 1280.00	 1341.43	-1884.46	  406.69
     69.1700	 1154.00	 1153.63	-1822.66	  406.72
     69.2700	  951.00	 1002.25	-1874.28	  406.76
     69.3700	  847.00	  886.30	-1862.33	  406.79
     69.4700	  779.00	  801.42	-1845.45	  406.83
     69.5700	  736.00	  741.55	-1828.58	  406.86
     69.6700	  780.00	  700.50	-1743.52	  406.89
     69.7700	  795.00	  672.78	-1700.81	  406.92
     69.8700	  634.00	  654.13	-1843.16	  406.96
     69.9700	  691.00	  641.46	-1773.49	  406.99
     70.0700	  606.00	  632.73	-1849.76	  407.02
     70.1700	  641.00	  626.66	-1808.69	  407.05
     70.2700	  611.00	  622.51	-1834.54	  407.08
     70.3700	  619.00	  619.85	-1823.88	  407.11
     70.4700	  621.00	  618.47	-1820.50	  407.14
     70.5700	  672.00	  618.13	-1769.16	  407.17
     70.6700	  587.00	  619.33	-1855.36	  407.20
     70.7700	  634.00	  622.12	-1811.15	  407.22
     70.8700	  657.00	  626.97	-1793.00	  407.25
     70.9700	  615.00	  634.73	-1842.75	  407.28
     71.0700	  627.00	  646.64	-1842.67	  407.31
     71.1700	  706.00	  664.60	-1781.63	  407.33
     71.2700	  697.00	  692.07	-1818.10	  407.36
     71.3700	  706.00	  730.48	-1847.50	  407.38
     71.4700	  798.00	  784.38	-1809.41	  407.41
     71.5700	  851.00	  857.42	-1829.45	  407.43
     71.6700	  943.00	  952.52	-1832.54	  407.46
     71.7700	 1076.00	 1070.92	-1817.95	  407.48
     71.8700	 1142.00	 1211.26	-1892.29	  407.50
     71.9700	 1416.00	 1368.54	-1775.57	  407.53
     72.0700	 1461.00	 1533.32	-1895.35	  407.55
     72.1700	 1710.00	 1690.95	-1803.98	  407.57
     72.2700	 1753.00	 1821.79	-1891.82	  407.59
     72.3700	 1920.00	 1903.77	-1806.80	  407.61
     72.4700	 1893.00	 1919.64	-1849.67	  407.63
     72.5700	 1874.00	 1865.64	-1814.67	  407.65
     72.6700	 1821.00	 1753.80	-1755.83	  407.67
     72.7700	 1604.00	 1605.11	-1824.14	  407.68
     72.8700	 1407.00	 1440.89	-1856.92	  407.70
     72.9700	 1274.00	 1278.15	-1827.18	  407.72
     73.0700	 1105.00	 1128.54	-1846.57	  407.73
     73.1700	 1099.00	  998.93	-1722.96	  407.75
     73.2700	  951.00	  892.14	-1764.17	  407.76
     73.3700	  815.00	  807.97	-1816.00	  407.78
     73.4700	  712.00	  744.18	-1855.21	  407.79
     73.5700	  751.00	  697.41	-1769.44	  407.80
     73.6700	  690.00	  663.99	-1797.02	  407.82
     73.7700	  668.00	  640.52	-1795.55	  407.83
     73.8700	  612.00	  624.18	-1835.21	  407.84
     73.9700	  629.00	  612.82	-1806.85	  407.85
     74.0700	  661.00	  604.95	-1766.98	  407.86
     74.1700	  653.00	  599.00	-1769.03	  407.87
     74.2700	  628.00	  595.45	-1790.48	  407.87
     74.3700	  626.00	  593.33	-1790.36	  407.88
     74.4700	  675.00	  592.33	-1740.35	  407.89
     74.5700	  612.00	  592.18	-1803.21	  407.89
     74.6700	  635.00	  592.64	-1780.67	  407.90
     74.7700	  692.00	  593.39	-1724.42	  407.90
     74.8700	  690.00	  594.07	-1727.10	  407.91
     74.9700	  636.00	  594.30	-1781.33	  407.91
     75.0700	  679.00	  593.77	-1737.80	  407.91
     75.1700	  678.00	  592.39	-1737.42	  407.91
     75.2700	  647.00	  590.35	-1766.37	  407.91
     75.3700	  678.00	  588.03	-1733.06	  407.91
     75.4700	  698.00	  585.95	-1710.98	  407.91
     75.5700	  646.00	  584.63	-1761.65	  407.91
     75.6700	  621.00	  584.58	-1786.61	  407.91
     75.7700	  612.00	  586.36	-1797.39	  407.90
     75.8700	  618.00	  590.47	-1795.50	  407.90
     75.9700	  598.00	  597.60	-1822.63	  407.89
     76.0700	  659.00	  608.19	-1772.22	  407.89
     76.1700	  686.00	  622.62	-1759.64	  407.88
     76.2700	  692.00	  641.01	-1772.04	  407.87
     76.3700	  668.00	  663.17	-1818.20	  407.86
     76.4700	  725.00	  688.33	-1786.35	  407.85
     76.5700	  731.00	  715.43	-1807.46	  407.84
     76.6700	  720.00	  742.50	-1845.53	  407.83
     76.7700	  751.00	  766.96	-1838.99	  407.82
     76.8700	  821.00	  785.69	-1787.72	  407.81
     76.9700	  742.00	  795.61	-1876.64	  407.79
     77.0700	  767.00	  794.76	-1850.79	  407.78
     77.1700	  732.00	  783.22	-1874.25	  407.76
     77.2700	  744.00	  763.11	-1842.14	  407.74
     77.3700	  730.00	  737.51	-1830.54	  407.73
     77.4700	  697.00	  709.50	-1835.53	  407.71
     77.5700	  672.00	  681.56	-1832.59	  407.69
     77.6700	  682.00	  655.50	-1796.53	  407.67
     77.7700	  614.00	  632.42	-1841.45	  407.65
     77.8700	  593.00	  612.90	-1842.93	  407.62
     77.9700	  645.00	  597.05	-1775.08	  407.60
     78.0700	  590.00	  584.64	-1817.67	  407.58
     78.1700	  559.00	  575.25	-1839.28	  407.55
     78.2700	  550.00	  568.34	-1841.37	  407.53
     78.3700	  527.00	  563.08	-1859.11	  407.50
     78.4700	  581.00	  559.56	-1801.59	  407.47
     78.5700	  553.00	  557.09	-1827.12	  407.44
     78.6700	  555.00	  555.38	-1823.41	  407.41
     78.7700	  551.00	  554.20	-1826.22	  407.38
     78.8700	  581.00	  553.40	-1795.43	  407.35
     78.9700	  535.00	  552.90	-1840.93	  407.32
     79.0700	  549.00	  552.65	-1826.68	  407.28
     79.1700	  536.00	  552.63	-1839.66	  407.25
     79.2700	  602.00	  552.83	-1773.86	  407.21
     79.3700	  569.00	  553.27	-1807.30	  407.17
     79.4700	  609.00	  553.99	-1768.01	  407.13
     79.5700	  566.00	  555.02	-1812.05	  407.10
     79.6700	  569.00	  556.45	-1810.48	  407.06
     79.7700	  544.00	  558.38	-1837.40	  407.01
     79.8700	  559.00	  560.94	-1824.97	  406.97
     79.9700	  554.00	  564.34	-1833.37	  406.93
     80.0700	  578.00	  568.85	-1813.88	  406.88
     80.1700	  550.00	  574.84	-1847.86	  406.84
     80.2700	  596.00	  582.73	-1809.76	  406.79
     80.3700	  583.00	  593.06	-1833.09	  406.74
     80.4700	  601.00	  606.36	-1828.39	  406.70
     80.5700	  624.00	  623.19	-1822.22	  406.65
     80.6700	  692.00	  644.03	-1775.06	  406.60
     80.7700	  684.00	  668.96	-1807.99	  406.54
     80.8700	  711.00	  698.42	-1810.44	  406.49
     80.9700	  752.00	  731.69	-1802.72	  406.44
     81.0700	  777.00	  767.70	-1813.73	  406.38
     81.1700	  803.00	  804.72	-1824.75	  406.33
     81.2700	  831.00	  840.39	-1832.42	  406.27
     81.3700	  829.00	  872.05	-1866.08	  406.21
     81.4700	  869.00	  897.29	-1851.32	  406.15
     81.5700	  868.00	  914.46	-1869.49	  406.09
     81.6700	  934.00	  922.90	-1811.93	  406.03
     81.7700	  915.00	  922.71	-1830.74	  405.97
     81.8700	  926.00	  914.68	-1811.71	  405.90
     81.9700	  907.00	  900.08	-1816.11	  405.84
     82.0700	  896.00	  880.39	-1807.41	  405.77
     82.1700	  900.00	  856.99	-1780.02	  405.70
     82.2700	  763.00	  831.20	-1891.23	  405.63
     82.3700	  765.00	  804.27	-1862.30	  405.57
     82.4700	  741.00	  777.41	-1859.44	  405.49
     82.5700	  724.00	  751.53	-1850.56	  405.42
     82.6700	  672.00	  727.08	-1878.11	  405.35
     82.7700	  668.00	  704.18	-1859.21	  405.28
     82.8700	  663.00	  682.78	-1842.81	  405.20
     82.9700	  638.00	  662.98	-1848.01	  405.12
     83.0700	  554.00	  645.00	-1914.03	  405.05
     83.1700	  630.00	  629.13	-1822.16	  404.97
     83.2700	  581.00	  615.61	-1857.64	  404.89
     83.3700	  553.00	  604.60	-1874.63	  404.81
     83.4700	  599.00	  596.15	-1820.18	  404.73
     83.5700	  583.00	  590.23	-1830.26	  404.64
     83.6700	  585.00	  586.70	-1824.73	  404.56
     83.7700	  525.00	  585.32	-1883.35	  404.47
     83.8700	  599.00	  585.79	-1809.82	  404.39
     83.9700	  550.00	  587.68	-1860.70	  404.30
     84.0700	  580.00	  590.49	-1833.52	  404.21
     84.1700	  598.00	  593.67	-1818.69	  404.12
     84.2700	  567.00	  596.57	-1852.60	  404.03
     84.3700	  635.00	  598.57	-1786.60	  403.94
     84.4700	  560.00	  598.97	-1862.00	  403.84
     84.5700	  656.00	  597.79	-1764.82	  403.75
     84.6700	  631.00	  594.88	-1786.91	  403.65
     84.7700	  600.00	  590.56	-1813.59	  403.55
     84.8700	  593.00	  585.30	-1815.33	  403.46
     84.9700	  585.00	  579.60	-1817.62	  403.36
     85.0700	  572.00	  573.87	-1824.90	  403.26
     85.1700	  556.00	  568.49	-1835.52	  403.15
     85.2700	  543.00	  563.70	-1843.73	  403.05
     85.3700	  578.00	  559.68	-1804.71	  402.95
     85.4700	  561.00	  556.55	-1818.58	  402.84
     85.5700	  545.00	  554.34	-1832.37	  402.74
     85.6700	  535.00	  553.07	-1841.10	  402.63
     85.7700	  543.00	  552.72	-1832.75	  402.52
     85.8700	  537.00	  553.27	-1839.30	  402.41
     85.9700	  576.00	  554.67	-1801.70	  402.30
     86.0700	  583.00	  556.91	-1796.94	  402.19
     86.1700	  535.00	  559.93	-1847.95	  402.07
     86.2700	  536.00	  563.74	-1850.77	  401.96
     86.3700	  575.00	  568.29	-1816.32	  401.84
     86.4700	  534.00	  573.54	-1862.57	  401.73
     86.5700	  579.00	  579.44	-1823.47	  401.61
     86.6700	  600.00	  585.92	-1808.95	  401.49
     86.7700	  572.00	  592.88	-1843.91	  401.37
     86.8700	  612.00	  600.26	-1811.29	  401.25
     86.9700	  597.00	  608.07	-1834.09	  401.12
     87.0700	  611.00	  616.36	-1828.38	  401.00
     87.1700	  589.00	  625.26	-1859.29	  400.87
     87.2700	  634.00	  634.86	-1823.89	  400.75
     87.3700	  652.00	  645.11	-1816.14	  400.62
     87.4700	  654.00	  655.77	-1824.79	  400.49
     87.5700	  706.00	  666.37	-1783.39	  400.36
     87.6700	  692.00	  676.21	-1807.24	  400.23
     87.7700	  630.00	  684.40	-1877.43	  400.10
     87.8700	  683.00	  689.96	-1829.99	  399.97
     87.9700	  650.00	  692.05	-1865.08	  399.83
     88.0700	  763.00	  690.24	-1750.27	  399.70
     88.1700	  672.00	  684.63	-1835.66	  399.56
     88.2700	  671.00	  675.87	-1827.90	  399.42
     88.3700	  717.00	  664.86	-1770.89	  399.29
     88.4700	  675.00	  652.60	-1800.63	  399.15
     88.5700	  628.00	  640.03	-1835.06	  399.01
     88.6700	  638.00	  627.95	-1812.98	  398.86
     88.7700	  649.00	  617.00	-1791.03	  398.72
     88.8700	  607.00	  607.20	-1823.23	  398.58
     88.9700	  602.00	  599.77	-1820.80	  398.43
     89.0700	  610.00	  594.38	-1807.41	  398.28
     89.1700	  581.00	  590.99	-1833.02	  398.14
     89.2700	  609.00	  589.42	-1803.45	  397.99
     89.3700	  612.00	  589.38	-1800.41	  397.84
     89.4700	  583.00	  590.48	-1830.51	  397.69
     89.5700	  589.00	  592.25	-1826.28	  397.54
     89.6700	  594.00	  594.17	-1823.20	  397.38
     89.7700	  590.00	  595.71	-1828.74	  397.23
     89.8700	  649.00	  596.38	-1770.41	  397.07
     89.9700	  579.00	  595.84	-1839.86	  396.92
     90.0700	  615.00	  593.94	-1801.97	  396.76
     90.1700	  609.00	  590.79	-1804.82	  396.60
     90.2700	  656.00	  586.65	-1753.68	  396.44
     90.3700	  598.00	  581.86	-1806.88	  396.28
     90.4700	  579.00	  576.76	-1820.78	  396.12
     90.5700	  599.00	  571.65	-1795.68	  395.96
     90.6700	  566.00	  566.79	-1823.82	  395.80
     90.7700	  585.00	  562.35	-1800.38	  395.63
     90.8700	  528.00	  558.46	-1853.49	  395.47
     90.9700	  538.00	  555.18	-1840.21	  395.30
     91.0700	  547.00	  552.55	-1828.58	  395.13
     91.1700	  506.00	  550.55	-1867.58	  394.96
     91.2700	  566.00	  549.16	-1806.19	  394.79
     91.3700	  535.00	  548.33	-1836.36	  394.62
     91.4700	  555.00	  548.02	-1816.05	  394.45
     91.5700	  576.00	  548.23	-1795.26	  394.28
     91.6700	  514.00	  548.95	-1857.98	  394.10
     91.7700	  539.00	  550.21	-1834.24	  393.93
     91.8700	  526.00	  552.08	-1849.11	  393.75
     91.9700	  543.00	  554.68	-1834.71	  393.58
     92.0700	  575.00	  558.13	-1806.16	  393.40
     92.1700	  553.00	  562.63	-1832.65	  393.22
     92.2700	  565.00	  568.35	-1826.38	  393.04
     92.3700	  567.00	  575.51	-1831.54	  392.86
     92.4700	  542.00	  584.32	-1865.34	  392.68
     92.5700	  562.00	  594.93	-1855.96	  392.50
     92.6700	  551.00	  607.49	-1879.52	  392.32
     92.7700	  570.00	  622.03	-1875.06	  392.13
     92.8700	  644.00	  638.53	-1817.55	  391.95
     92.9700	  635.00	  656.81	-1844.84	  391.76
     93.0700	  645.00	  676.60	-1854.63	  391.58
     93.1700	  652.00	  697.47	-1868.50	  391.39
     93.2700	  665.00	  718.83	-1876.86	  391.20
     93.3700	  712.00	  739.97	-1851.00	  391.01
     93.4700	  730.00	  760.10	-1853.13	  390.82
     93.5700	  715.00	  778.47	-1886.50	  390.63
     93.6700	  772.00	  794.59	-1845.62	  390.44
     93.7700	  759.00	  808.37	-1872.40	  390.25
     93.8700	  849.00	  820.11	-1794.13	  390.05
     93.9700	  780.00	  830.38	-1873.41	  389.86
     94.0700	  826.00	  839.83	-1836.86	  389.66
     94.1700	  765.00	  848.97	-1907.00	  389.47
     94.2700	  860.00	  858.13	-1821.16	  389.27
     94.3700	  864.00	  867.12	-1826.15	  389.08
     94.4700	  955.00	  876.69	-1744.72	  388.88
     94.5700	  930.00	  886.64	-1779.67	  388.68
     94.6700	  864.00	  897.09	-1856.12	  388.48
     94.7700	  910.00	  908.14	-1821.17	  388.28
     94.8700	  873.00	  919.64	-1869.67	  388.08
     94.9700	  932.00	  931.08	-1822.11	  387.88
     95.0700	 1008.00	  941.57	-1756.60	  387.67
     95.1700	 1000.00	  949.87	-1772.90	  387.47
     95.2700	  909.00	  954.52	-1868.55	  387.27
     95.3700	  966.00	  954.11	-1811.14	  387.06
     95.4700	  995.00	  947.69	-1775.72	  386.86
     95.5700	  932.00	  934.98	-1826.01	  386.65
     95.6700	  954.00	  916.59	-1785.62	  386.45
     95.7700	  898.00	  893.79	-1818.81	  386.24
     95.8700	  853.00	  868.26	-1838.29	  386.03
     95.9700	  803.00	  841.88	-1861.90	  385.82
     96.0700	  859.00	  816.44	-1780.47	  385.62
     96.1700	  789.00	  793.65	-1827.68	  385.41
     96.2700	  813.00	  775.06	-1785.09	  385.20
     96.3700	  748.00	  762.05	-1837.08	  384.99
     96.4700	  721.00	  755.79	-1857.82	  384.78
     96.5700	  732.00	  757.28	-1848.31	  384.56
     96.6700	  826.00	  767.32	-1764.34	  384.35
     96.7700	  781.00	  786.49	-1828.52	  384.14
     96.8700	  785.00	  815.16	-1853.19	  383.93
     96.9700	  895.00	  853.43	-1781.46	  383.71
     97.0700	  943.00	  901.07	-1781.10	  383.50
     97.1700	  940.00	  957.51	-1840.54	  383.29
     97.2700	 1039.00	 1021.76	-1805.79	  383.07
     97.3700	 1073.00	 1092.29	-1842.32	  382.86
     97.4700	 1155.00	 1167.09	-1835.12	  382.64
     97.5700	 1234.00	 1243.52	-1832.55	  382.42
     97.6700	 1315.00	 1318.39	-1826.42	  382.21
     97.7700	 1345.00	 1387.97	-1866.00	  381.99
     97.8700	 1461.00	 1448.11	-1810.14	  381.77
     97.9700	 1391.00	 1494.67	-1926.69	  381.56
     98.0700	 1402.00	 1524.06	-1945.09	  381.34
     98.1700	 1516.00	 1534.03	-1841.06	  381.12
     98.2700	 1575.00	 1524.14	-1772.17	  380.90
     98.3700	 1450.00	 1495.81	-1868.84	  380.68
     98.4700	 1380.00	 1452.01	-1895.04	  380.47
     98.5700	 1341.00	 1396.53	-1878.56	  380.25
     98.6700	 1332.00	 1333.44	-1824.46	  380.03
     98.7700	 1195.00	 1266.63	-1894.66	  379.81
     98.8700	 1198.00	 1199.68	-1824.71	  379.59
     98.9700	 1127.00	 1135.69	-1831.71	  379.37
     99.0700	 1078.00	 1077.29	-1822.32	  379.15
     99.1700	 1026.00	 1026.67	-1823.70	  378.93
     99.2700	 1029.00	  985.58	-1779.61	  378.71
     99.3700	  954.00	  955.43	-1824.46	  378.49
     99.4700	  955.00	  937.29	-1805.32	  378.26
     99.5700	  948.00	  931.91	-1806.94	  378.04
     99.6700	  927.00	  939.73	-1835.76	  377.82
     99.7700	  973.00	  960.94	-1810.97	  377.60
     99.8700	 1024.00	  995.40	-1794.43	  377.38
     99.9700	 1045.00	 1042.72	-1820.75	  377.16
    100.0700	 1112.00	 1102.17	-1813.20	  376.94
    100.1700	 1164.00	 1172.67	-1831.70	  376.72
    100.2700	 1305.00	 1252.76	-1770.78	  376.50
    100.3700	 1309.00	 1340.49	-1854.52	  376.27
    100.4700	 1483.00	 1433.45	-1773.48	  376.05
    100.5700	 1494.00	 1528.69	-1857.72	  375.83
    100.6700	 1615.00	 1622.81	-1830.84	  375.61
    100.7700	 1743.00	 1712.35	-1792.38	  375.39
    100.8700	 1803.00	 1793.74	-1813.77	  375.17
    100.9700	 1798.00	 1863.98	-1889.01	  374.95
    101.0700	 1963.00	 1920.85	-1780.88	  374.73
    101.1700	 1994.00	 1962.97	-1792.00	  374.51
    101.2700	 2046.00	 1989.58	-1766.61	  374.29
    101.3700	 1960.00	 2000.23	-1863.25	  374.07
    101.4700	 2112.00	 1994.63	-1705.66	  373.85
    101.5700	 2041.00	 1972.85	-1754.88	  373.63
    101.6700	 1975.00	 1935.58	-1783.61	  373.41
    101.7700	 1904.00	 1884.48	-1803.51	  373.19
    101.8700	 1869.00	 1822.27	-1776.30	  372.98
    101.9700	 1840.00	 1752.46	-1735.49	  372.76
    102.0700	 1662.00	 1678.90	-1839.93	  372.54
    102.1700	 1604.00	 1605.22	-1824.25	  372.32
    102.2700	 1554.00	 1534.51	-1803.54	  372.11
    102.3700	 1501.00	 1469.14	-1791.17	  371.89
    102.4700	 1395.00	 1410.65	-1838.68	  371.67
    102.5700	 1366.00	 1359.83	-1816.86	  371.46
    102.6700	 1329.00	 1316.71	-1810.74	  371.24
    102.7700	 1289.00	 1280.65	-1814.68	  371.03
    102.8700	 1248.00	 1250.50	-1825.52	  370.81
    102.9700	 1194.00	 1224.58	-1853.61	  370.60
    103.0700	 1154.00	 1200.96	-1869.99	  370.39
    103.1700	 1095.00	 1177.62	-1905.65	  370.17
    103.2700	 1079.00	 1152.72	-1896.75	  369.96
    103.3700	 1157.00	 1124.95	-1790.98	  369.75
    103.4700	 1066.00	 1093.61	-1850.64	  369.54
    103.5700	 1004.00	 1058.71	-1877.74	  369.33
    103.6700	 1033.00	 1020.79	-1810.82	  369.12
    103.7700	  960.00	  980.73	-1843.76	  368.91
    103.8700	  963.00	  939.54	-1799.57	  368.71
    103.9700	  868.00	  898.24	-1853.27	  368.50
    104.0700	  888.00	  857.77	-1792.80	  368.29
    104.1700	  838.00	  818.90	-1803.93	  368.09
    104.2700	  822.00	  782.30	-1783.32	  367.88
    104.3700	  765.00	  748.45	-1806.48	  367.68
    104.4700	  705.00	  717.70	-1835.73	  367.48
    104.5700	  715.00	  690.25	-1798.28	  367.28
    104.6700	  695.00	  666.15	-1794.18	  367.07
    104.7700	  683.00	  645.35	-1785.37	  366.87
    104.8700	  663.00	  627.67	-1787.70	  366.68
    104.9700	  673.00	  612.90	-1762.93	  366.48
    105.0700	  636.00	  600.78	-1787.80	  366.28
    105.1700	  652.00	  590.99	-1762.02	  366.08
    105.2700	  630.00	  583.26	-1776.29	  365.89
    105.3700	  687.00	  577.31	-1713.34	  365.70
    105.4700	  609.00	  572.90	-1786.93	  365.50
    105.5700	  577.00	  569.84	-1815.86	  365.31
    105.6700	  574.00	  567.94	-1816.97	  365.12
    105.7700	  597.00	  567.07	-1793.10	  364.93
    105.8700	  595.00	  567.22	-1795.24	  364.75
    105.9700	  593.00	  568.29	-1798.32	  364.56
    106.0700	  579.00	  570.29	-1814.32	  364.37
    106.1700	  574.00	  573.22	-1822.25	  364.19
    106.2700	  586.00	  577.13	-1814.16	  364.01
    106.3700	  559.00	  582.05	-1846.08	  363.83
    106.4700	  564.00	  588.02	-1847.05	  363.65
    106.5700	  611.00	  595.11	-1807.14	  363.47
    106.6700	  588.00	  603.34	-1838.37	  363.29
    106.7700	  598.00	  612.68	-1837.71	  363.12
    106.8700	  648.00	  623.08	-1798.11	  362.94
    106.9700	  632.00	  634.46	-1825.48	  362.77
    107.0700	  657.00	  646.64	-1812.67	  362.60
    107.1700	  642.00	  659.42	-1840.44	  362.43
    107.2700	  640.00	  672.52	-1855.55	  362.26
    107.3700	  698.00	  685.62	-1810.65	  362.10
    107.4700	  686.00	  698.34	-1835.37	  361.93
    107.5700	  701.00	  710.27	-1832.30	  361.77
    107.6700	  674.00	  720.97	-1870.00	  361.61
    107.7700	  691.00	  730.05	-1862.08	  361.45
    107.8700	  739.00	  737.17	-1821.20	  361.29
    107.9700	  746.00	  742.11	-1819.14	  361.14
    108.0700	  720.00	  744.95	-1847.98	  360.98
    108.1700	  739.00	  745.84	-1829.87	  360.83
    108.2700	  714.00	  745.11	-1854.14	  360.68
    108.3700	  750.00	  743.22	-1816.25	  360.53
    108.4700	  711.00	  740.64	-1852.67	  360.39
    108.5700	  712.00	  737.82	-1848.85	  360.24
    108.6700	  737.00	  735.15	-1821.18	  360.10
    108.7700	  747.00	  732.94	-1808.97	  359.96
    108.8700	  805.00	  731.38	-1749.40	  359.82
    108.9700	  712.00	  730.55	-1841.57	  359.69
    109.0700	  691.00	  730.42	-1862.45	  359.55
    109.1700	  751.00	  730.88	-1802.90	  359.42
    109.2700	  686.00	  731.67	-1868.70	  359.29
    109.3700	  706.00	  732.49	-1849.52	  359.17
    109.4700	  721.00	  732.94	-1834.97	  359.04
    109.5700	  738.00	  732.61	-1817.63	  358.92
    109.6700	  783.00	  731.11	-1771.14	  358.80
    109.7700	  737.00	  728.16	-1814.18	  358.68
    109.8700	  753.00	  723.55	-1793.58	  358.57
    109.9700	  704.00	  717.28	-1836.31	  358.46
    110.0700	  685.00	  709.46	-1847.49	  358.35
    110.1700	  670.00	  700.32	-1853.35	  358.24
    110.2700	  714.00	  690.16	-1799.18	  358.13
    110.3700	  633.00	  679.30	-1869.33	  358.03
    110.4700	  680.00	  668.10	-1811.12	  357.93
    110.5700	  693.00	  656.83	-1786.86	  357.83
    110.6700	  668.00	  645.79	-1800.82	  357.74
    110.7700	  630.00	  635.21	-1828.24	  357.65
    110.8700	  626.00	  625.28	-1822.31	  357.56
    110.9700	  606.00	  616.15	-1833.18	  357.47
    111.0700	  611.00	  607.94	-1819.97	  357.39
    111.1700	  590.00	  600.73	-1833.76	  357.31
    111.2700	  628.00	  594.54	-1789.57	  357.23
    111.3700	  598.00	  589.39	-1814.42	  357.16
    111.4700	  630.00	  585.26	-1778.29	  357.09
    111.5700	  568.00	  582.09	-1837.12	  357.02
    111.6700	  610.00	  579.83	-1792.86	  356.95
    111.7700	  579.00	  578.40	-1822.43	  356.89
    111.8700	  593.00	  577.72	-1807.74	  356.83
    111.9700	  530.00	  577.68	-1870.71	  356.77
    112.0700	  576.00	  578.21	-1825.24	  356.72
    112.1700	  591.00	  579.22	-1811.25	  356.67
    112.2700	  591.00	  580.62	-1812.65	  356.62
    112.3700	  595.00	  582.34	-1810.37	  356.58
    112.4700	  595.00	  584.32	-1812.35	  356.54
    112.5700	  531.00	  586.50	-1878.53	  356.50
    112.6700	  564.00	  588.85	-1847.88	  356.47
    112.7700	  616.00	  591.36	-1798.39	  356.44
    112.8700	  598.00	  594.02	-1819.04	  356.42
    112.9700	  590.00	  596.85	-1829.88	  356.39
    113.0700	  558.00	  599.89	-1864.92	  356.37
    113.1700	  618.00	  603.19	-1808.22	  356.36
    113.2700	  587.00	  606.82	-1842.85	  356.35
    113.3700	  605.00	  610.85	-1828.87	  356.34
    113.4700	  618.00	  615.37	-1820.40	  356.34
    113.5700	  569.00	  620.52	-1874.55	  356.34
    113.6700	  614.00	  626.43	-1835.46	  356.34
    113.7700	  618.00	  633.29	-1838.32	  356.35
    113.8700	  611.00	  641.33	-1853.36	  356.36
    113.9700	  645.00	  650.85	-1828.88	  356.37
    114.0700	  644.00	  662.22	-1841.25	  356.39
    114.1700	  659.00	  675.90	-1839.93	  356.42
    114.2700	  680.00	  692.48	-1835.51	  356.44
    114.3700	  691.00	  712.67	-1844.70	  356.47
    114.4700	  686.00	  737.36	-1874.38	  356.51
    114.5700	  757.00	  767.57	-1833.60	  356.55
    114.6700	  823.00	  804.57	-1804.59	  356.59
    114.7700	  844.00	  849.80	-1828.83	  356.64
    114.8700	  862.00	  904.94	-1865.97	  356.69
    114.9700	  970.00	  971.84	-1824.87	  356.75
    115.0700	 1025.00	 1052.54	-1850.57	  356.81
    115.1700	 1126.00	 1149.25	-1846.28	  356.88
    115.2700	 1334.00	 1264.26	-1753.29	  356.95
    115.3700	 1461.00	 1399.86	-1761.89	  357.02
    115.4700	 1624.00	 1558.27	-1757.30	  357.10
    115.5700	 1804.00	 1741.46	-1760.49	  357.19
    115.6700	 2072.00	 1951.15	-1702.18	  357.28
    115.7700	 2315.00	 2188.59	-1696.62	  357.37
    115.8700	 2509.00	 2454.33	-1768.36	  357.47
    115.9700	 2997.00	 2748.19	-1574.22	  357.57
    116.0700	 3236.00	 3069.05	-1656.08	  357.68
    116.1700	 3399.00	 3414.84	-1838.87	  357.79
    116.2700	 3838.00	 3782.43	-1767.46	  357.91
    116.3700	 4248.00	 4167.35	-1742.38	  358.03
    116.4700	 4532.00	 4564.12	-1855.15	  358.16
    116.5700	 4994.00	 4965.88	-1794.90	  358.29
    116.6700	 5276.00	 5364.80	-1911.83	  358.43
    116.7700	 5795.00	 5752.02	-1780.04	  358.57
    116.8700	 5949.00	 6117.63	-1991.66	  358.72
    116.9700	 6315.00	 6451.17	-1959.20	  358.88
    117.0700	 6789.00	 6741.91	-1775.94	  359.03
    117.1700	 6961.00	 6979.54	-1841.57	  359.20
    117.2700	 7111.00	 7154.84	-1866.87	  359.37
    117.3700	 7109.00	 7260.52	-1974.55	  359.54
    117.4700	 7206.00	 7292.12	-1909.14	  359.72
    117.5700	 7086.00	 7248.57	-1985.60	  359.91
    117.6700	 7178.00	 7132.31	-1777.34	  360.10
    117.7700	 6900.00	 6948.91	-1871.94	  360.30
    117.8700	 6563.00	 6706.46	-1966.49	  360.50
    117.9700	 6169.00	 6414.64	-2068.67	  360.71
    118.0700	 5879.00	 6083.97	-2028.00	  360.93
    118.1700	 5563.00	 5724.92	-1984.95	  361.15
    118.2700	 5324.00	 5347.51	-1846.54	  361.37
    118.3700	 4910.00	 4961.11	-1874.14	  361.61
    118.4700	 4713.00	 4574.05	-1684.08	  361.85
    118.5700	 4394.00	 4193.61	-1622.64	  362.09
    118.6700	 4013.00	 3825.76	-1635.79	  362.34
    118.7700	 3505.00	 3475.34	-1793.37	  362.60
    118.8700	 3204.00	 3146.08	-1765.11	  362.86
    118.9700	 2995.00	 2840.58	-1668.61	  363.13
    119.0700	 2592.00	 2560.44	-1791.47	  363.41
    119.1700	 2381.00	 2306.32	-1748.35	  363.69
    119.2700	 2214.00	 2078.08	-1687.11	  363.98
    119.3700	 1912.00	 1875.06	-1786.09	  364.27
    119.4700	 1794.00	 1696.06	-1725.09	  364.57
    119.5700	 1532.00	 1539.54	-1830.57	  364.88
    119.6700	 1583.00	 1403.64	-1643.67	  365.20
    119.7700	 1353.00	 1286.39	-1756.42	  365.52
    119.8700	 1229.00	 1185.81	-1779.83	  365.85
    119.9700	 1113.00	 1099.90	-1809.93	  366.18
    120.0700	 1088.00	 1026.78	-1761.81	  366.52
    120.1700	 1018.00	  964.69	-1769.72	  366.87
    120.2700	  952.00	  912.01	-1783.04	  367.23
    120.3700	  844.00	  867.35	-1846.38	  367.59
    120.4700	  858.00	  829.47	-1794.50	  367.96
    120.5700	  803.00	  797.32	-1817.35	  368.34
    120.6700	  812.00	  769.98	-1781.01	  368.72
    120.7700	  746.00	  746.71	-1823.74	  369.11
    120.8700	  693.00	  726.90	-1856.93	  369.51
    120.9700	  688.00	  710.03	-1845.06	  369.92
    121.0700	  694.00	  695.69	-1824.72	  370.33
    121.1700	  672.00	  683.55	-1834.58	  370.75
    121.2700	  686.00	  673.32	-1810.35	  371.18
    121.3700	  640.00	  664.78	-1847.81	  371.61
    121.4700	  690.00	  657.76	-1790.78	  372.06
    121.5700	  626.00	  652.09	-1849.12	  372.51
    121.6700	  624.00	  647.65	-1846.68	  372.97
    121.7700	  664.00	  644.34	-1803.37	  373.43
    121.8700	  627.00	  642.07	-1838.10	  373.91
    121.9700	  635.00	  640.75	-1828.78	  374.39
    122.0700	  613.00	  640.31	-1850.34	  374.88
    122.1700	  657.00	  640.68	-1806.71	  375.38
    122.2700	  661.00	  641.79	-1803.82	  375.89
    122.3700	  599.00	  643.58	-1867.61	  376.40
    122.4700	  636.00	  645.98	-1833.01	  376.92
    122.5700	  636.00	  648.91	-1835.94	  377.46
    122.6700	  636.00	  652.30	-1839.32	  377.99
    122.7700	  659.00	  656.06	-1820.09	  378.54
    122.8700	  678.00	  660.11	-1805.14	  379.10
    122.9700	  659.00	  664.36	-1828.39	  379.66
    123.0700	  686.00	  668.70	-1805.73	  380.24
    123.1700	  650.00	  673.03	-1846.06	  380.82
    123.2700	  638.00	  677.24	-1862.27	  381.41
    123.3700	  661.00	  681.23	-1843.26	  382.01
    123.4700	  651.00	  684.90	-1856.93	  382.62
    123.5700	  670.00	  688.15	-1841.18	  383.24
    123.6700	  740.00	  690.90	-1773.93	  383.86
    123.7700	  686.00	  693.10	-1830.13	  384.50
    123.8700	  688.00	  694.72	-1829.75	  385.14
    123.9700	  687.00	  695.75	-1831.78	  385.79
    124.0700	  708.00	  696.22	-1811.25	  386.46
    124.1700	  687.00	  696.16	-1832.19	  387.13
    124.2700	  698.00	  695.63	-1820.66	  387.81
    124.3700	  667.00	  694.69	-1850.72	  388.50
    124.4700	  743.00	  693.38	-1773.41	  389.20
    124.5700	  686.00	  691.83	-1828.86	  389.91
    124.6700	  628.00	  690.06	-1885.09	  390.63
    124.7700	  704.00	  688.13	-1807.16	  391.36
    124.8700	  672.00	  686.09	-1837.12	  392.10
    124.9700	  683.00	  511.62	-1651.65	  392.85
    125.0700	  681.00	  512.38	-1823.03	  393.60
    125.1700	  670.00	  513.15	-1823.03	  394.37
    125.2700	  668.00	  513.93	-1823.03	  395.15
    125.3700	  671.00	  514.72	-1823.03	  395.94
    125.4700	  662.00	  515.51	-1823.03	  396.74
    125.5700	  681.00	  516.32	-1823.03	  397.54
    125.6700	  616.00	  517.14	-1823.03	  398.36
    125.7700	  620.00	  517.97	-1823.03	  399.19
    125.8700	  565.00	  518.81	-1823.03	  400.03
    125.9700	  650.00	  519.66	-1823.03	  400.88
    126.0700	  620.00	  520.52	-1823.03	  401.74
    126.1700	  651.00	  521.39	-1823.03	  402.61
    126.2700	  604.00	  522.27	-1823.03	  403.49
    126.3700	  593.00	  523.16	-1823.03	  404.39
    126.4700	  589.00	  524.07	-1823.03	  405.29
    126.5700	  614.00	  524.98	-1823.03	  406.20
    126.6700	  583.00	  525.91	-1823.03	  407.13
    126.7700	  588.00	  526.84	-1823.03	  408.06
    126.8700	  627.00	  527.79	-1823.03	  409.01
    126.9700	  620.00	  528.75	-1823.03	  409.97
    127.0700	  625.00	  529.72	-1823.03	  410.94
    127.1700	  577.00	  530.70	-1823.03	  411.92
    127.2700	  562.00	  531.69	-1823.03	  412.91
    127.3700	  597.00	  532.69	-1823.03	  413.91
    127.4700	  580.00	  533.71	-1823.03	  414.93
    127.5700	  606.00	  534.73	-1823.03	  415.96
    127.6700	  582.00	  535.77	-1823.03	  416.99
    127.7700	  586.00	  536.82	-1823.03	  418.04
    127.8700	  631.00	  537.88	-1823.03	  419.10
    127.9700	  595.00	  538.96	-1823.03	  420.18
    128.0700	  681.00	  540.04	-1823.03	  421.26
    128.1700	  657.00	  541.14	-1823.03	  422.36
    128.2700	  668.00	  542.25	-1823.03	  423.47
    128.3700	  652.00	  543.37	-1823.03	  424.59
    128.4700	  708.00	  544.50	-1823.03	  425.73
    128.5700	    0.00	  545.65	-1823.03	  426.87
    128.6700	    1.00	  546.81	-1823.03	  428.03
     12.3847	        	        	        	        	       0	(  0  0  2)	  0  1
     12.3847	        	        	        	        	    -455	(  0  0  2)	  0  1
     25.0296	        	        	        	        	       0	(  0  0  4)	  0  1
     25.0296	        	        	        	        	    -455	(  0  0  4)	  0  1
     28.4710	        	        	        	        	       0	(  1  0  0)	  0  1
     28.4710	        	        	        	        	    -455	(  1  0  0)	  0  1
     29.1722	        	        	        	        	       0	(  1  0  1)	  0  1
     29.1722	        	        	        	        	    -455	(  1  0  1)	  0  1
     31.1897	        	        	        	        	       0	(  1  0  2)	  0  1
     31.1897	        	        	        	        	    -455	(  1  0  2)	  0  1
     34.3154	        	        	        	        	       0	(  1  0  3)	  0  1
     34.3154	        	        	        	        	    -455	(  1  0  3)	  0  1
     37.9952	        	        	        	        	       0	(  0  0  6)	  0  1
     37.9952	        	        	        	        	    -455	(  0  0  6)	  0  1
     38.3148	        	        	        	        	       0	(  1  0  4)	  0  1
     38.3148	        	        	        	        	    -455	(  1  0  4)	  0  1
     42.9913	        	        	        	        	       0	(  1  0  5)	  0  1
     42.9913	        	        	        	        	    -455	(  1  0  5)	  0  1
     48.2054	        	        	        	        	       0	(  1  0  6)	  0  1
     48.2054	        	        	        	        	    -455	(  1  0  6)	  0  1
     50.5115	        	        	        	        	       0	(  1  1  0)	  0  1
     50.5115	        	        	        	        	    -455	(  1  1  0)	  0  1
     51.4915	        	        	        	        	       0	(  0  0  8)	  0  1
     51.4915	        	        	        	        	    -455	(  0  0  8)	  0  1
     52.2454	        	        	        	        	       0	(  1  1  2)	  0  1
     52.2454	        	        	        	        	    -455	(  1  1  2)	  0  1
     53.8696	        	        	        	        	       0	(  1  0  7)	  0  1
     53.8696	        	        	        	        	    -455	(  1  0  7)	  0  1
     57.2250	        	        	        	        	       0	(  1  1  4)	  0  1
     57.2250	        	        	        	        	    -455	(  1  1  4)	  0  1
     59.0533	        	        	        	        	       0	(  2  0  0)	  0  1
     59.0533	        	        	        	        	    -455	(  2  0  0)	  0  1
     59.4476	        	        	        	        	       0	(  2  0  1)	  0  1
     59.4476	        	        	        	        	    -455	(  2  0  1)	  0  1
     59.9377	        	        	        	        	       0	(  1  0  8)	  0  1
     59.9377	        	        	        	        	    -455	(  1  0  8)	  0  1
     60.6208	        	        	        	        	       0	(  2  0  2)	  0  1
     60.6208	        	        	        	        	    -455	(  2  0  2)	  0  1
     62.5471	        	        	        	        	       0	(  2  0  3)	  0  1
     62.5471	        	        	        	        	    -455	(  2  0  3)	  0  1
     64.9713	        	        	        	        	       0	(  1  1  6)	  0  1
     64.9713	        	        	        	        	    -455	(  1  1  6)	  0  1
     65.1893	        	        	        	        	       0	(  2  0  4)	  0  1
     65.1893	        	        	        	        	    -455	(  2  0  4)	  0  1
     65.8096	        	        	        	        	       0	(  0  0 10)	  0  1
     65.8096	        	        	        	        	    -455	(  0  0 10)	  0  1
     66.3966	        	        	        	        	       0	(  1  0  9)	  0  1
     66.3966	        	        	        	        	    -455	(  1  0  9)	  0  1
     68.5070	        	        	        	        	       0	(  2  0  5)	  0  1
     68.5070	        	        	        	        	    -455	(  2  0  5)	  0  1
     72.4633	        	        	        	        	       0	(  2  0  6)	  0  1
     72.4633	        	        	        	        	    -455	(  2  0  6)	  0  1
     73.2612	        	        	        	        	       0	(  1  0 10)	  0  1
     73.2612	        	        	        	        	    -455	(  1  0 10)	  0  1
     75.0819	        	        	        	        	       0	(  1  1  8)	  0  1
     75.0819	        	        	        	        	    -455	(  1  1  8)	  0  1
     77.0323	        	        	        	        	       0	(  2  0  7)	  0  1
     77.0323	        	        	        	        	    -455	(  2  0  7)	  0  1
     80.5752	        	        	        	        	       0	(  1  0 11)	  0  1
     80.5752	        	        	        	        	    -455	(  1  0 11)	  0  1
     81.4047	        	        	        	        	       0	(  0  0 12)	  0  1
     81.4047	        	        	        	        	    -455	(  0  0 12)	  0  1
     81.4340	        	        	        	        	       0	(  2  1  0)	  0  1
     81.4340	        	        	        	        	    -455	(  2  1  0)	  0  1
     81.7768	        	        	        	        	       0	(  2  1  1)	  0  1
     81.7768	        	        	        	        	    -455	(  2  1  1)	  0  1
     82.2045	        	        	        	        	       0	(  2  0  8)	  0  1
     82.2045	        	        	        	        	    -455	(  2  0  8)	  0  1
     82.8033	        	        	        	        	       0	(  2  1  2)	  0  1
     82.8033	        	        	        	        	    -455	(  2  1  2)	  0  1
     84.5093	        	        	        	        	       0	(  2  1  3)	  0  1
     84.5093	        	        	        	        	    -455	(  2  1  3)	  0  1
     86.8900	        	        	        	        	       0	(  2  1  4)	  0  1
     86.8900	        	        	        	        	    -455	(  2  1  4)	  0  1
     87.4555	        	        	        	        	       0	(  1  1 10)	  0  1
     87.4555	        	        	        	        	    -455	(  1  1 10)	  0  1
     87.9930	        	        	        	        	       0	(  2  0  9)	  0  1
     87.9930	        	        	        	        	    -455	(  2  0  9)	  0  1
     88.4169	        	        	        	        	       0	(  1  0 12)	  0  1
     88.4169	        	        	        	        	    -455	(  1  0 12)	  0  1
     89.9439	        	        	        	        	       0	(  2  1  5)	  0  1
     89.9439	        	        	        	        	    -455	(  2  1  5)	  0  1
     93.6775	        	        	        	        	       0	(  2  1  6)	  0  1
     93.6775	        	        	        	        	    -455	(  2  1  6)	  0  1
     94.4423	        	        	        	        	       0	(  2  0 10)	  0  1
     94.4423	        	        	        	        	    -455	(  2  0 10)	  0  1
     95.4359	        	        	        	        	       0	(  3  0  0)	  0  1
     95.4359	        	        	        	        	    -455	(  3  0  0)	  0  1
     95.7768	        	        	        	        	       0	(  3  0  1)	  0  1
     95.7768	        	        	        	        	    -455	(  3  0  1)	  0  1
     96.8007	        	        	        	        	       0	(  3  0  2)	  0  1
     96.8007	        	        	        	        	    -455	(  3  0  2)	  0  1
     96.9138	        	        	        	        	       0	(  1  0 13)	  0  1
     96.9138	        	        	        	        	    -455	(  1  0 13)	  0  1
     98.1120	        	        	        	        	       0	(  2  1  7)	  0  1
     98.1120	        	        	        	        	    -455	(  2  1  7)	  0  1
     98.5122	        	        	        	        	       0	(  3  0  3)	  0  1
     98.5122	        	        	        	        	    -455	(  3  0  3)	  0  1
     99.1122	        	        	        	        	       0	(  0  0 14)	  0  1
     99.1122	        	        	        	        	    -455	(  0  0 14)	  0  1
    100.9219	        	        	        	        	       0	(  3  0  4)	  0  1
    100.9219	        	        	        	        	    -455	(  3  0  4)	  0  1
    101.6423	        	        	        	        	       0	(  2  0 11)	  0  1
    101.6423	        	        	        	        	    -455	(  2  0 11)	  0  1
    102.4807	        	        	        	        	       0	(  1  1 12)	  0  1
    102.4807	        	        	        	        	    -455	(  1  1 12)	  0  1
    103.2933	        	        	        	        	       0	(  2  1  8)	  0  1
    103.2933	        	        	        	        	    -455	(  2  1  8)	  0  1
    104.0501	        	        	        	        	       0	(  3  0  5)	  0  1
    104.0501	        	        	        	        	    -455	(  3  0  5)	  0  1
    106.2761	        	        	        	        	       0	(  1  0 14)	  0  1
    106.2761	        	        	        	        	    -455	(  1  0 14)	  0  1
    107.9340	        	        	        	        	       0	(  3  0  6)	  0  1
    107.9340	        	        	        	        	    -455	(  3  0  6)	  0  1
    109.3066	        	        	        	        	       0	(  2  1  9)	  0  1
    109.3066	        	        	        	        	    -455	(  2  1  9)	  0  1
    109.7565	        	        	        	        	       0	(  2  0 12)	  0  1
    109.7565	        	        	        	        	    -455	(  2  0 12)	  0  1
    112.6394	        	        	        	        	       0	(  3  0  7)	  0  1
    112.6394	        	        	        	        	    -455	(  3  0  7)	  0  1
    116.3073	        	        	        	        	       0	(  2  1 10)	  0  1
    116.3073	        	        	        	        	    -455	(  2  1 10)	  0  1
    116.8762	        	        	        	        	       0	(  1  0 15)	  0  1
    116.8762	        	        	        	        	    -455	(  1  0 15)	  0  1
    117.4179	        	        	        	        	       0	(  2  2  0)	  0  1
    117.4179	        	        	        	        	    -455	(  2  2  0)	  0  1
    118.2815	        	        	        	        	       0	(  3  0  8)	  0  1
    118.2815	        	        	        	        	    -455	(  3  0  8)	  0  1
    118.9587	        	        	        	        	       0	(  2  2  2)	  0  1
    118.9587	        	        	        	        	    -455	(  2  2  2)	  0  1
    119.0872	        	        	        	        	       0	(  2  0 13)	  0  1
    119.0872	        	        	        	        	    -455	(  2  0 13)	  0  1
    120.9165	        	        	        	        	       0	(  0  0 16)	  0  1
    120.9165	        	        	        	        	    -455	(  0  0 16)	  0  1
    121.6121	        	        	        	        	       0	(  1  1 14)	  0  1
    121.6121	        	        	        	        	    -455	(  1  1 14)	  0  1
    123.7311	        	        	        	        	       0	(  2  2  4)	  0  1
    123.7311	        	        	        	        	    -455	(  2  2  4)	  0  1
    124.5855	        	        	        	        	       0	(  2  1 11)	  0  1
    124.5855	        	        	        	        	    -455	(  2  1 11)	  0  1
    125.0684	        	        	        	        	       0	(  3  0  9)	  0  1
    125.0684	        	        	        	        	    -455	(  3  0  9)	  0  1
    125.6241	        	        	        	        	       0	(  3  1  0)	  0  1
    125.6241	        	        	        	        	    -455	(  3  1  0)	  0  1
    126.0430	        	        	        	        	       0	(  3  1  1)	  0  1
    126.0430	        	        	        	        	    -455	(  3  1  1)	  0  1
    127.3135	        	        	        	        	       0	(  3  1  2)	  0  1
    127.3135	        	        	        	        	    -455	(  3  1  2)	  0  1
    129.4792	        	        	        	        	       0	(  1  0 16)	  0  1
    129.4792	        	        	        	        	    -455	(  1  0 16)	  0  1
    129.4807	        	        	        	        	       0	(  3  1  3)	  0  1
    129.4807	        	        	        	        	    -455	(  3  1  3)	  0  1
    130.2542	        	        	        	        	       0	(  2  0 14)	  0  1
    130.2542	        	        	        	        	    -455	(  2  0 14)	  0  1
    132.3660	        	        	        	        	       0	(  2  2  6)	  0  1
    132.3660	        	        	        	        	    -455	(  2  2  6)	  0  1
    132.6349	        	        	        	        	       0	(  3  1  4)	  0  1
    132.6349	        	        	        	        	    -455	(  3  1  4)	  0  1
    133.4090	        	        	        	        	       0	(  3  0 10)	  0  1
    133.4090	        	        	        	        	    -455	(  3  0 10)	  0  1
    134.7489	        	        	        	        	       0	(  2  1 12)	  0  1
    134.7489	        	        	        	        	    -455	(  2  1 12)	  0  1
    136.9452	        	        	        	        	       0	(  3  1  5)	  0  1
    136.9452	        	        	        	        	    -455	(  3  1  5)	  0  1
    142.7463	        	        	        	        	       0	(  3  1  6)	  0  1
    142.7463	        	        	        	        	    -455	(  3  1  6)	  0  1
    144.2704	        	        	        	        	       0	(  3  0 11)	  0  1
    144.2704	        	        	        	        	    -455	(  3  0 11)	  0  1
    144.9054	        	        	        	        	       0	(  2  0 15)	  0  1
    144.9054	        	        	        	        	    -455	(  2  0 15)	  0  1
    146.2588	        	        	        	        	       0	(  1  0 17)	  0  1
    146.2588	        	        	        	        	    -455	(  1  0 17)	  0  1
    147.1384	        	        	        	        	       0	(  2  2  8)	  0  1
    147.1384	        	        	        	        	    -455	(  2  2  8)	  0  1
    148.4677	        	        	        	        	       0	(  2  1 13)	  0  1
    148.4677	        	        	        	        	    -455	(  2  1 13)	  0  1
    150.8257	        	        	        	        	       0	(  3  1  7)	  0  1
    150.8257	        	        	        	        	    -455	(  3  1  7)	  0  1
    151.6489	        	        	        	        	       0	(  1  1 16)	  0  1
    151.6489	        	        	        	        	    -455	(  1  1 16)	  0  1
    156.5189	        	        	        	        	       0	(  0  0 18)	  0  1
    156.5189	        	        	        	        	    -455	(  0  0 18)	  0  1
    161.5208	        	        	        	        	       0	(  3  0 12)	  0  1
    161.5208	        	        	        	        	    -455	(  3  0 12)	  0  1
    161.6128	        	        	        	        	       0	(  4  0  0)	  0  1
    161.6128	        	        	        	        	    -455	(  4  0  0)	  0  1
    162.7271	        	        	        	        	       0	(  4  0  1)	  0  1
    162.7271	        	        	        	        	    -455	(  4  0  1)	  0  1
    164.2264	        	        	        	        	       0	(  3  1  8)	  0  1
    164.2264	        	        	        	        	    -455	(  3  1  8)	  0  1
    166.6019	        	        	        	        	       0	(  4  0  2)	  0  1
    166.6019	        	        	        	        	    -455	(  4  0  2)	  0  1
