MSG Master    CELL:    5.91939   5.91939  23.27544   90.0000   90.0000  120.0000   SPGR: P 63/m m c             TEMP:   1074.85
  1   1280     2.52000     0.00000    -0.12585     0.00000     0.00000    0
    99     0     2
       0.00000      10.00000
     125.00000     130.00000
 2Theta	Yobs	Ycal	Yobs-Ycal	Backg	Posr	(hkl)	K
      0.7700	    0.00	  559.60	-1737.75	  440.39
      0.8700	    0.00	  560.15	-1737.75	  440.94
      0.9700	   39.00	  560.69	-1737.75	  441.48
      1.0700	   47.00	  561.22	-1737.75	  442.01
      1.1700	   49.00	  561.74	-1737.75	  442.53
      1.2700	   46.00	  562.25	-1737.75	  443.04
      1.3700	   38.00	  562.76	-1737.75	  443.55
      1.4700	   95.00	  563.25	-1737.75	  444.04
      1.5700	  259.00	  563.73	-1737.75	  444.52
      1.6700	  437.00	  564.21	-1737.75	  445.00
      1.7700	  579.00	  564.68	-1737.75	  445.47
      1.8700	  671.00	  565.13	-1737.75	  445.92
      1.9700	  693.00	  565.58	-1737.75	  446.37
      2.0700	  763.00	  566.02	-1737.75	  446.81
      2.1700	  773.00	  566.45	-1737.75	  447.24
      2.2700	  796.00	  566.87	-1737.75	  447.66
      2.3700	  700.00	  567.29	-1737.75	  448.08
      2.4700	  690.00	  567.69	-1737.75	  448.48
      2.5700	  674.00	  568.09	-1737.75	  448.88
      2.6700	  693.00	  568.48	-1737.75	  449.27
      2.7700	  678.00	  568.86	-1737.75	  449.65
      2.8700	  655.00	  569.23	-1737.75	  450.02
      2.9700	  622.00	  569.59	-1737.75	  450.38
      3.0700	  596.00	  569.95	-1737.75	  450.74
      3.1700	  622.00	  570.29	-1737.75	  451.08
      3.2700	  603.00	  570.63	-1737.75	  451.42
      3.3700	  705.00	  570.96	-1737.75	  451.75
      3.4700	  781.00	  571.29	-1737.75	  452.08
      3.5700	  827.00	  571.60	-1737.75	  452.39
      3.6700	  853.00	  571.91	-1737.75	  452.70
      3.7700	  897.00	  572.21	-1737.75	  453.00
      3.8700	  975.00	  572.50	-1737.75	  453.29
      3.9700	  988.00	  572.79	-1737.75	  453.58
      4.0700	 1048.00	  573.06	-1737.75	  453.85
      4.1700	 1043.00	  573.33	-1737.75	  454.12
      4.2700	 1130.00	  573.59	-1737.75	  454.38
      4.3700	 1101.00	  573.85	-1737.75	  454.64
      4.4700	 1074.00	  574.09	-1737.75	  454.88
      4.5700	 1003.00	  574.33	-1737.75	  455.12
      4.6700	 1027.00	  574.57	-1737.75	  455.36
      4.7700	  995.00	  574.79	-1737.75	  455.58
      4.8700	  993.00	  575.01	-1737.75	  455.80
      4.9700	  999.00	  575.22	-1737.75	  456.01
      5.0700	  916.00	  575.43	-1737.75	  456.22
      5.1700	  890.00	  575.62	-1737.75	  456.41
      5.2700	  891.00	  575.81	-1737.75	  456.60
      5.3700	  909.00	  576.00	-1737.75	  456.79
      5.4700	  846.00	  576.17	-1737.75	  456.96
      5.5700	  880.00	  576.35	-1737.75	  457.14
      5.6700	  823.00	  576.51	-1737.75	  457.30
      5.7700	  769.00	  576.67	-1737.75	  457.46
      5.8700	  758.00	  576.82	-1737.75	  457.61
      5.9700	  820.00	  576.96	-1737.75	  457.75
      6.0700	  885.00	  577.10	-1737.75	  457.89
      6.1700	  762.00	  577.23	-1737.75	  458.02
      6.2700	  760.00	  577.35	-1737.75	  458.14
      6.3700	  812.00	  577.47	-1737.75	  458.26
      6.4700	  750.00	  577.58	-1737.75	  458.37
      6.5700	  738.00	  577.69	-1737.75	  458.48
      6.6700	  707.00	  577.79	-1737.75	  458.58
      6.7700	  748.00	  577.88	-1737.75	  458.67
      6.8700	  730.00	  577.97	-1737.75	  458.76
      6.9700	  677.00	  578.05	-1737.75	  458.84
      7.0700	  715.00	  578.13	-1737.75	  458.92
      7.1700	  681.00	  578.20	-1737.75	  458.99
      7.2700	  706.00	  578.27	-1737.75	  459.06
      7.3700	  669.00	  578.32	-1737.75	  459.11
      7.4700	  606.00	  578.38	-1737.75	  459.17
      7.5700	  691.00	  578.42	-1737.75	  459.21
      7.6700	  642.00	  578.47	-1737.75	  459.26
      7.7700	  637.00	  578.50	-1737.75	  459.29
      7.8700	  692.00	  578.53	-1737.75	  459.32
      7.9700	  683.00	  578.56	-1737.75	  459.35
      8.0700	  619.00	  578.58	-1737.75	  459.37
      8.1700	  630.00	  578.59	-1737.75	  459.38
      8.2700	  629.00	  578.60	-1737.75	  459.39
      8.3700	  675.00	  578.61	-1737.75	  459.40
      8.4700	  629.00	  578.61	-1737.75	  459.40
      8.5700	  638.00	  578.60	-1737.75	  459.39
      8.6700	  597.00	  578.59	-1737.75	  459.38
      8.7700	  576.00	  578.57	-1737.75	  459.36
      8.8700	  574.00	  578.55	-1737.75	  459.34
      8.9700	  643.00	  578.52	-1737.75	  459.31
      9.0700	  659.00	  578.49	-1737.75	  459.28
      9.1700	  612.00	  578.46	-1737.75	  459.25
      9.2700	  616.00	  578.42	-1737.75	  459.21
      9.3700	  585.00	  578.37	-1737.75	  459.16
      9.4700	  615.00	  578.32	-1737.75	  459.11
      9.5700	  605.00	  578.26	-1737.75	  459.05
      9.6700	  626.00	  578.20	-1737.75	  458.99
      9.7700	  591.00	  578.14	-1737.75	  458.93
      9.8700	  602.00	  578.07	-1737.75	  458.86
      9.9700	  593.00	  578.00	-1737.75	  458.79
     10.0700	  598.00	  578.84	-1718.59	  458.71
     10.1700	  588.00	  578.86	-1728.61	  458.63
     10.2700	  653.00	  578.90	-1663.65	  458.54
     10.3700	  650.00	  578.97	-1666.72	  458.45
     10.4700	  641.00	  579.11	-1675.86	  458.36
     10.5700	  551.00	  579.37	-1766.12	  458.26
     10.6700	  602.00	  579.85	-1715.60	  458.15
     10.7700	  571.00	  580.65	-1747.40	  458.05
     10.8700	  566.00	  581.85	-1753.60	  457.93
     10.9700	  562.00	  583.45	-1759.20	  457.82
     11.0700	  566.00	  585.40	-1757.15	  457.70
     11.1700	  605.00	  587.72	-1720.47	  457.58
     11.2700	  568.00	  590.44	-1760.19	  457.45
     11.3700	  581.00	  593.63	-1750.38	  457.32
     11.4700	  602.00	  597.45	-1733.20	  457.18
     11.5700	  602.00	  602.09	-1737.84	  457.04
     11.6700	  603.00	  607.94	-1742.69	  456.90
     11.7700	  630.00	  615.58	-1723.33	  456.76
     11.8700	  597.00	  625.88	-1766.63	  456.61
     11.9700	  656.00	  639.21	-1720.96	  456.45
     12.0700	  645.00	  653.75	-1746.50	  456.30
     12.1700	  742.00	  663.54	-1659.29	  456.13
     12.2700	  684.00	  659.64	-1713.39	  455.97
     12.3700	  668.00	  639.61	-1709.36	  455.80
     12.4700	  635.00	  615.24	-1717.99	  455.63
     12.5700	  613.00	  596.98	-1721.73	  455.46
     12.6700	  560.00	  586.56	-1764.31	  455.28
     12.7700	  615.00	  581.50	-1704.25	  455.10
     12.8700	  558.00	  579.08	-1758.83	  454.92
     12.9700	  613.00	  577.71	-1702.46	  454.73
     13.0700	  585.00	  576.78	-1729.53	  454.54
     13.1700	  533.00	  576.05	-1780.80	  454.35
     13.2700	  541.00	  575.46	-1772.21	  454.15
     13.3700	  598.00	  574.96	-1714.71	  453.95
     13.4700	  537.00	  574.52	-1775.27	  453.75
     13.5700	  582.00	  574.13	-1729.88	  453.54
     13.6700	  601.00	  573.76	-1710.51	  453.33
     13.7700	  561.00	  573.43	-1750.18	  453.12
     13.8700	  500.00	  573.11	-1810.86	  452.91
     13.9700	  558.00	  572.80	-1752.55	  452.69
     14.0700	  544.00	  572.51	-1766.26	  452.47
     14.1700	  576.00	  572.22	-1733.97	  452.25
     14.2700	  562.00	  571.94	-1747.69	  452.02
     14.3700	  569.00	  571.66	-1740.41	  451.80
     14.4700	  589.00	  571.39	-1720.14	  451.57
     14.5700	  555.00	  571.12	-1753.87	  451.33
     14.6700	  543.00	  570.85	-1765.60	  451.10
     14.7700	  526.00	  570.58	-1782.33	  450.86
     14.8700	  583.00	  570.31	-1725.06	  450.62
     14.9700	  616.00	  570.05	-1691.80	  450.38
     15.0700	  542.00	  569.78	-1765.53	  450.13
     15.1700	  551.00	  569.52	-1756.27	  449.88
     15.2700	  568.00	  569.25	-1739.00	  449.63
     15.3700	  529.00	  568.98	-1777.73	  449.38
     15.4700	  523.00	  568.71	-1783.46	  449.13
     15.5700	  579.00	  568.44	-1727.19	  448.87
     15.6700	  559.00	  568.17	-1746.92	  448.61
     15.7700	  559.00	  567.90	-1746.65	  448.35
     15.8700	  554.00	  567.65	-1751.40	  448.09
     15.9700	  566.00	  567.38	-1739.13	  447.82
     16.0700	  607.00	  567.10	-1697.85	  447.56
     16.1700	  551.00	  566.83	-1753.58	  447.29
     16.2700	  540.00	  566.55	-1764.30	  447.02
     16.3700	  569.00	  566.27	-1735.02	  446.74
     16.4700	  577.00	  565.99	-1726.74	  446.47
     16.5700	  526.00	  565.71	-1777.46	  446.19
     16.6700	  604.00	  565.42	-1699.17	  445.91
     16.7700	  561.00	  565.14	-1741.89	  445.63
     16.8700	  531.00	  564.85	-1771.60	  445.35
     16.9700	  588.00	  564.56	-1714.31	  445.07
     17.0700	  505.00	  564.27	-1797.02	  444.78
     17.1700	  607.00	  563.98	-1694.73	  444.49
     17.2700	  515.00	  563.69	-1786.44	  444.20
     17.3700	  588.00	  563.40	-1713.15	  443.91
     17.4700	  565.00	  563.10	-1735.85	  443.62
     17.5700	  560.00	  562.81	-1740.56	  443.33
     17.6700	  559.00	  562.51	-1741.26	  443.03
     17.7700	  557.00	  562.21	-1742.96	  442.73
     17.8700	  524.00	  561.91	-1775.66	  442.44
     17.9700	  585.00	  561.61	-1714.36	  442.14
     18.0700	  572.00	  561.42	-1727.17	  441.84
     18.1700	  567.00	  561.11	-1731.86	  441.53
     18.2700	  544.00	  560.81	-1754.56	  441.23
     18.3700	  596.00	  560.51	-1702.26	  440.92
     18.4700	  521.00	  560.20	-1776.95	  440.62
     18.5700	  570.00	  559.90	-1727.65	  440.31
     18.6700	  537.00	  559.59	-1760.34	  440.00
     18.7700	  611.00	  559.29	-1686.04	  439.69
     18.8700	  584.00	  559.06	-1712.81	  439.38
     18.9700	  512.00	  558.75	-1784.50	  439.07
     19.0700	  531.00	  558.44	-1765.19	  438.75
     19.1700	  553.00	  558.14	-1742.89	  438.44
     19.2700	  554.00	  557.83	-1741.58	  438.12
     19.3700	  546.00	  557.52	-1749.27	  437.81
     19.4700	  576.00	  557.21	-1718.96	  437.49
     19.5700	  571.00	  556.89	-1723.64	  437.17
     19.6700	  590.00	  556.58	-1704.33	  436.85
     19.7700	  528.00	  556.27	-1766.02	  436.53
     19.8700	  545.00	  555.96	-1748.71	  436.21
     19.9700	  525.00	  555.64	-1768.39	  435.89
     20.0700	  550.00	  555.33	-1743.08	  435.57
     20.1700	  594.00	  555.02	-1698.77	  435.24
     20.2700	  591.00	  554.70	-1701.45	  434.92
     20.3700	  514.00	  554.39	-1778.14	  434.59
     20.4700	  557.00	  554.07	-1734.82	  434.27
     20.5700	  534.00	  553.76	-1757.51	  433.94
     20.6700	  508.00	  553.45	-1783.20	  433.61
     20.7700	  535.00	  553.16	-1755.91	  433.28
     20.8700	  592.00	  552.85	-1698.60	  432.96
     20.9700	  575.00	  552.50	-1715.25	  432.63
     21.0700	  549.00	  552.19	-1740.94	  432.30
     21.1700	  533.00	  551.88	-1756.63	  431.97
     21.2700	  493.00	  551.57	-1796.32	  431.64
     21.3700	  540.00	  551.26	-1749.01	  431.31
     21.4700	  495.00	  550.95	-1793.70	  430.97
     21.5700	  548.00	  550.65	-1740.40	  430.64
     21.6700	  554.00	  550.34	-1734.09	  430.31
     21.7700	  540.00	  550.04	-1747.79	  429.98
     21.8700	  558.00	  549.73	-1729.48	  429.64
     21.9700	  553.00	  549.43	-1734.18	  429.31
     22.0700	  531.00	  549.14	-1755.89	  428.98
     22.1700	  519.00	  548.84	-1767.59	  428.64
     22.2700	  619.00	  548.55	-1667.30	  428.31
     22.3700	  537.00	  548.26	-1749.01	  427.97
     22.4700	  557.00	  547.98	-1728.73	  427.64
     22.5700	  569.00	  547.70	-1716.45	  427.30
     22.6700	  520.00	  547.43	-1765.18	  426.97
     22.7700	  550.00	  547.16	-1734.91	  426.63
     22.8700	  563.00	  546.91	-1721.66	  426.30
     22.9700	  581.00	  546.67	-1703.42	  425.96
     23.0700	  579.00	  546.44	-1705.19	  425.63
     23.1700	  528.00	  546.22	-1755.97	  425.29
     23.2700	  544.00	  546.03	-1739.78	  424.95
     23.3700	  626.00	  545.87	-1657.62	  424.62
     23.4700	  519.00	  545.74	-1764.49	  424.28
     23.5700	  546.00	  545.82	-1737.57	  423.95
     23.6700	  538.00	  545.82	-1745.57	  423.61
     23.7700	  568.00	  545.94	-1715.69	  423.27
     23.8700	  494.00	  546.29	-1790.04	  422.94
     23.9700	  604.00	  547.09	-1680.84	  422.60
     24.0700	  540.00	  548.72	-1746.47	  422.27
     24.1700	  557.00	  551.79	-1732.54	  421.93
     24.2700	  561.00	  557.08	-1733.83	  421.60
     24.3700	  598.00	  565.42	-1705.17	  421.26
     24.4700	  630.00	  577.60	-1685.35	  420.93
     24.5700	  614.00	  593.54	-1717.29	  420.59
     24.6700	  615.00	  610.51	-1733.26	  420.26
     24.7700	  617.00	  621.73	-1742.48	  419.93
     24.8700	  601.00	  618.50	-1755.25	  419.59
     24.9700	  622.00	  600.13	-1715.88	  419.26
     25.0700	  553.00	  578.00	-1762.75	  418.93
     25.1700	  591.00	  561.09	-1707.84	  418.59
     25.2700	  569.00	  551.13	-1719.88	  418.26
     25.3700	  560.00	  546.15	-1723.90	  417.93
     25.4700	  532.00	  543.77	-1749.52	  417.60
     25.5700	  579.00	  542.47	-1701.22	  417.27
     25.6700	  531.00	  541.64	-1748.39	  416.94
     25.7700	  544.00	  541.03	-1734.78	  416.61
     25.8700	  542.00	  540.57	-1736.32	  416.28
     25.9700	  604.00	  540.22	-1673.97	  415.95
     26.0700	  533.00	  539.96	-1744.71	  415.62
     26.1700	  555.00	  539.78	-1722.53	  415.29
     26.2700	  579.00	  539.68	-1698.43	  414.96
     26.3700	  533.00	  539.66	-1744.41	  414.64
     26.4700	  567.00	  539.73	-1710.48	  414.31
     26.5700	  575.00	  539.90	-1702.65	  413.98
     26.6700	  518.00	  540.17	-1759.92	  413.66
     26.7700	  548.00	  540.59	-1730.34	  413.33
     26.8700	  565.00	  541.19	-1713.94	  413.01
     26.9700	  534.00	  542.01	-1745.76	  412.69
     27.0700	  530.00	  543.14	-1750.89	  412.36
     27.1700	  495.00	  544.70	-1787.45	  412.04
     27.2700	  547.00	  546.96	-1737.71	  411.72
     27.3700	  567.00	  550.43	-1721.18	  411.40
     27.4700	  560.00	  556.11	-1733.86	  411.08
     27.5700	  571.00	  565.80	-1732.55	  410.76
     27.6700	  529.00	  582.37	-1791.12	  410.44
     27.7700	  538.00	  609.50	-1809.25	  410.13
     27.8700	  578.00	  650.40	-1810.15	  409.81
     27.9700	  704.00	  705.25	-1739.00	  409.49
     28.0700	  785.00	  767.70	-1720.45	  409.18
     28.1700	  901.00	  821.95	-1658.70	  408.86
     28.2700	  963.00	  844.30	-1619.05	  408.55
     28.3700	  892.00	  820.95	-1666.70	  408.24
     28.4700	  828.00	  774.33	-1684.08	  407.93
     28.5700	  720.00	  740.92	-1758.67	  407.62
     28.6700	  697.00	  737.15	-1777.90	  407.31
     28.7700	  708.00	  758.23	-1787.98	  407.00
     28.8700	  789.00	  784.38	-1733.13	  406.69
     28.9700	  845.00	  788.12	-1680.87	  406.38
     29.0700	  725.00	  752.27	-1765.02	  406.08
     29.1700	  697.00	  691.89	-1732.64	  405.77
     29.2700	  617.00	  634.42	-1755.17	  405.47
     29.3700	  602.00	  592.88	-1728.63	  405.17
     29.4700	  599.00	  567.68	-1706.43	  404.86
     29.5700	  569.00	  553.98	-1722.73	  404.56
     29.6700	  571.00	  546.70	-1713.45	  404.26
     29.7700	  612.00	  542.56	-1668.31	  403.97
     29.8700	  579.00	  539.97	-1698.72	  403.67
     29.9700	  587.00	  538.31	-1689.06	  403.37
     30.0700	  597.00	  537.44	-1678.19	  403.08
     30.1700	  582.00	  537.50	-1693.25	  402.78
     30.2700	  542.00	  538.98	-1734.73	  402.49
     30.3700	  520.00	  542.82	-1760.57	  402.20
     30.4700	  567.00	  550.45	-1721.20	  401.91
     30.5700	  508.00	  563.32	-1793.07	  401.62
     30.6700	  572.00	  581.75	-1747.50	  401.33
     30.7700	  556.00	  603.38	-1785.13	  401.04
     30.8700	  626.00	  622.07	-1733.82	  400.75
     30.9700	  666.00	  628.45	-1700.20	  400.47
     31.0700	  634.00	  616.34	-1720.09	  400.19
     31.1700	  592.00	  592.03	-1737.78	  399.90
     31.2700	  538.00	  567.62	-1767.37	  399.62
     31.3700	  562.00	  549.47	-1725.22	  399.34
     31.4700	  569.00	  538.31	-1707.06	  399.06
     31.5700	  548.00	  532.26	-1722.01	  398.79
     31.6700	  529.00	  529.11	-1737.86	  398.51
     31.7700	  518.00	  527.37	-1747.12	  398.23
     31.8700	  526.00	  526.29	-1738.04	  397.96
     31.9700	  543.00	  525.55	-1720.30	  397.69
     32.0700	  547.00	  525.05	-1715.80	  397.42
     32.1700	  548.00	  524.74	-1714.49	  397.15
     32.2700	  536.00	  524.58	-1726.33	  396.88
     32.3700	  504.00	  524.59	-1758.34	  396.61
     32.4700	  554.00	  524.76	-1708.51	  396.35
     32.5700	  533.00	  525.12	-1729.87	  396.08
     32.6700	  565.00	  525.69	-1698.44	  395.82
     32.7700	  534.00	  526.54	-1730.29	  395.56
     32.8700	  565.00	  527.74	-1700.49	  395.30
     32.9700	  551.00	  529.42	-1716.17	  395.04
     33.0700	  582.00	  531.84	-1687.59	  394.78
     33.1700	  528.00	  535.52	-1745.27	  394.53
     33.2700	  576.00	  541.65	-1703.40	  394.27
     33.3700	  587.00	  552.73	-1703.48	  394.02
     33.4700	  560.00	  573.47	-1751.22	  393.77
     33.5700	  621.00	  611.10	-1727.85	  393.52
     33.6700	  630.00	  673.62	-1781.37	  393.27
     33.7700	  742.00	  764.10	-1759.85	  393.02
     33.8700	  896.00	  872.24	-1713.99	  392.78
     33.9700	 1049.00	  969.16	-1657.91	  392.53
     34.0700	 1128.00	 1011.12	-1620.87	  392.29
     34.1700	 1020.00	  966.44	-1684.19	  392.05
     34.2700	  904.00	  858.09	-1691.84	  391.81
     34.3700	  788.00	  741.25	-1691.00	  391.57
     34.4700	  670.00	  649.94	-1717.69	  391.33
     34.5700	  615.00	  591.53	-1714.28	  391.10
     34.6700	  582.00	  559.20	-1714.95	  390.86
     34.7700	  548.00	  542.59	-1732.34	  390.63
     34.8700	  519.00	  533.81	-1752.56	  390.40
     34.9700	  508.00	  528.59	-1758.34	  390.17
     35.0700	  502.00	  525.00	-1760.75	  389.94
     35.1700	  555.00	  522.31	-1705.06	  389.72
     35.2700	  551.00	  520.18	-1706.93	  389.49
     35.3700	  532.00	  518.46	-1724.21	  389.27
     35.4700	  529.00	  517.04	-1725.79	  389.05
     35.5700	  502.00	  515.85	-1751.60	  388.83
     35.6700	  474.00	  514.82	-1778.57	  388.61
     35.7700	  506.00	  513.94	-1745.69	  388.39
     35.8700	  491.00	  513.17	-1759.92	  388.18
     35.9700	  500.00	  512.49	-1750.24	  387.97
     36.0700	  535.00	  512.35	-1715.10	  387.75
     36.1700	  507.00	  511.81	-1742.56	  387.54
     36.2700	  474.00	  511.33	-1775.08	  387.34
     36.3700	  495.00	  510.90	-1753.65	  387.13
     36.4700	  526.00	  510.51	-1722.26	  386.92
     36.5700	  509.00	  510.17	-1738.92	  386.72
     36.6700	  516.00	  509.87	-1731.62	  386.52
     36.7700	  475.00	  509.63	-1772.38	  386.32
     36.8700	  493.00	  509.48	-1754.23	  386.12
     36.9700	  528.00	  509.47	-1719.22	  385.92
     37.0700	  506.00	  509.77	-1741.52	  385.73
     37.1700	  495.00	  510.62	-1753.37	  385.53
     37.2700	  534.00	  512.39	-1716.14	  385.34
     37.3700	  521.00	  515.38	-1732.13	  385.15
     37.4700	  525.00	  519.51	-1732.26	  384.96
     37.5700	  500.00	  523.99	-1761.74	  384.77
     37.6700	  531.00	  527.31	-1734.06	  384.59
     37.7700	  557.00	  527.76	-1708.51	  384.41
     37.8700	  523.00	  525.10	-1739.85	  384.22
     37.9700	  515.00	  520.90	-1743.65	  384.04
     38.0700	  532.00	  516.64	-1722.39	  383.86
     38.1700	  488.00	  512.97	-1762.72	  383.69
     38.2700	  507.00	  510.10	-1740.85	  383.51
     38.3700	  514.00	  508.07	-1731.82	  383.34
     38.4700	  530.00	  506.72	-1714.47	  383.17
     38.5700	  507.00	  505.83	-1736.58	  383.00
     38.6700	  543.00	  505.15	-1699.90	  382.83
     38.7700	  496.00	  504.75	-1746.50	  382.66
     38.8700	  489.00	  504.43	-1753.18	  382.50
     38.9700	  518.00	  504.17	-1723.92	  382.33
     39.0700	  521.00	  503.95	-1720.70	  382.17
     39.1700	  492.00	  503.74	-1749.49	  382.01
     39.2700	  483.00	  503.61	-1758.36	  381.85
     39.3700	  532.00	  503.43	-1709.18	  381.70
     39.4700	  480.00	  503.27	-1761.02	  381.54
     39.5700	  534.00	  503.12	-1706.87	  381.39
     39.6700	  522.00	  502.98	-1718.73	  381.24
     39.7700	  515.00	  502.86	-1725.61	  381.09
     39.8700	  521.00	  502.74	-1719.49	  380.94
     39.9700	  495.00	  502.63	-1745.38	  380.79
     40.0700	  498.00	  502.53	-1742.28	  380.65
     40.1700	  463.00	  502.44	-1777.19	  380.50
     40.2700	  476.00	  502.36	-1764.11	  380.36
     40.3700	  481.00	  502.30	-1759.05	  380.22
     40.4700	  460.00	  502.25	-1780.00	  380.09
     40.5700	  503.00	  502.22	-1736.97	  379.95
     40.6700	  526.00	  502.20	-1713.95	  379.82
     40.7700	  472.00	  502.21	-1767.96	  379.68
     40.8700	  487.00	  502.24	-1752.99	  379.55
     40.9700	  504.00	  502.29	-1736.04	  379.42
     41.0700	  517.00	  502.39	-1723.14	  379.30
     41.1700	  495.00	  502.53	-1745.28	  379.17
     41.2700	  500.00	  502.72	-1740.47	  379.05
     41.3700	  499.00	  502.95	-1741.70	  378.92
     41.4700	  449.00	  503.75	-1792.50	  378.80
     41.5700	  492.00	  504.23	-1749.98	  378.68
     41.6700	  493.00	  504.91	-1749.66	  378.57
     41.7700	  475.00	  505.93	-1768.68	  378.45
     41.8700	  494.00	  507.62	-1751.37	  378.34
     41.9700	  510.00	  510.70	-1738.45	  378.23
     42.0700	  470.00	  516.52	-1784.27	  378.12
     42.1700	  517.00	  527.10	-1747.85	  378.01
     42.2700	  500.00	  544.69	-1782.44	  377.90
     42.3700	  535.00	  570.44	-1773.19	  377.80
     42.4700	  576.00	  602.18	-1763.93	  377.69
     42.5700	  645.00	  633.06	-1725.81	  377.59
     42.6700	  638.00	  652.02	-1751.77	  377.49
     42.7700	  591.00	  649.25	-1796.00	  377.39
     42.8700	  570.00	  625.41	-1793.16	  377.30
     42.9700	  556.00	  592.26	-1774.01	  377.20
     43.0700	  547.00	  561.09	-1751.84	  377.11
     43.1700	  571.00	  537.45	-1704.20	  377.02
     43.2700	  511.00	  522.14	-1748.89	  376.93
     43.3700	  486.00	  513.38	-1765.13	  376.84
     43.4700	  484.00	  508.73	-1762.48	  376.76
     43.5700	  557.00	  506.26	-1687.01	  376.67
     43.6700	  502.00	  505.03	-1740.78	  376.59
     43.7700	  513.00	  504.15	-1728.90	  376.51
     43.8700	  498.00	  503.49	-1743.24	  376.43
     43.9700	  528.00	  503.00	-1712.75	  376.35
     44.0700	  492.00	  502.61	-1748.36	  376.27
     44.1700	  502.00	  502.32	-1738.07	  376.20
     44.2700	  481.00	  502.09	-1758.84	  376.13
     44.3700	  552.00	  501.91	-1687.66	  376.06
     44.4700	  523.00	  501.78	-1716.53	  375.99
     44.5700	  519.00	  501.69	-1720.44	  375.92
     44.6700	  448.00	  501.63	-1791.38	  375.85
     44.7700	  468.00	  501.46	-1771.21	  375.79
     44.8700	  549.00	  501.46	-1690.21	  375.73
     44.9700	  511.00	  501.49	-1728.24	  375.67
     45.0700	  496.00	  501.54	-1743.29	  375.61
     45.1700	  481.00	  501.78	-1758.53	  375.55
     45.2700	  503.00	  501.88	-1736.63	  375.49
     45.3700	  507.00	  502.00	-1732.75	  375.44
     45.4700	  485.00	  502.14	-1754.89	  375.39
     45.5700	  481.00	  502.30	-1759.05	  375.34
     45.6700	  524.00	  502.50	-1716.25	  375.29
     45.7700	  499.00	  502.71	-1741.46	  375.24
     45.8700	  507.00	  502.96	-1733.71	  375.19
     45.9700	  538.00	  503.24	-1702.99	  375.15
     46.0700	  479.00	  503.55	-1762.30	  375.11
     46.1700	  522.00	  503.91	-1719.66	  375.06
     46.2700	  542.00	  504.31	-1700.06	  375.02
     46.3700	  503.00	  504.76	-1739.51	  374.99
     46.4700	  495.00	  505.27	-1748.02	  374.95
     46.5700	  526.00	  505.85	-1717.60	  374.92
     46.6700	  499.00	  506.53	-1745.28	  374.88
     46.7700	  493.00	  507.33	-1752.08	  374.85
     46.8700	  515.00	  508.31	-1731.06	  374.82
     46.9700	  487.00	  509.62	-1760.37	  374.79
     47.0700	  516.00	  511.61	-1733.36	  374.77
     47.1700	  530.00	  514.66	-1722.41	  374.74
     47.2700	  558.00	  519.72	-1699.47	  374.72
     47.3700	  528.00	  527.90	-1737.65	  374.69
     47.4700	  502.00	  540.16	-1775.91	  374.67
     47.5700	  539.00	  556.52	-1755.27	  374.65
     47.6700	  549.00	  575.32	-1764.07	  374.64
     47.7700	  543.00	  592.63	-1787.38	  374.62
     47.8700	  597.00	  602.83	-1743.58	  374.61
     47.9700	  578.00	  601.78	-1761.53	  374.59
     48.0700	  614.00	  590.61	-1714.36	  374.58
     48.1700	  586.00	  574.94	-1726.69	  374.57
     48.2700	  526.00	  560.09	-1771.84	  374.57
     48.3700	  516.00	  549.07	-1770.82	  374.56
     48.4700	  546.00	  542.74	-1734.49	  374.55
     48.5700	  505.00	  540.60	-1773.35	  374.55
     48.6700	  525.00	  541.68	-1754.43	  374.55
     48.7700	  493.00	  545.11	-1789.86	  374.55
     48.8700	  514.00	  550.45	-1774.20	  374.55
     48.9700	  568.00	  557.75	-1727.50	  374.55
     49.0700	  570.00	  567.67	-1735.42	  374.55
     49.1700	  586.00	  581.85	-1733.60	  374.56
     49.2700	  558.00	  603.74	-1783.49	  374.57
     49.3700	  612.00	  640.30	-1766.05	  374.57
     49.4700	  712.00	  702.05	-1727.80	  374.58
     49.5700	  801.00	  805.38	-1742.13	  374.59
     49.6700	  841.00	  968.51	-1865.26	  374.61
     49.7700	 1137.00	 1205.05	-1805.80	  374.62
     49.8700	 1477.00	 1512.97	-1773.72	  374.64
     49.9700	 1918.00	 1862.92	-1682.67	  374.65
     50.0700	 2195.00	 2189.24	-1731.99	  374.67
     50.1700	 2474.00	 2395.02	-1658.77	  374.69
     50.2700	 2547.00	 2395.19	-1585.94	  374.71
     50.3700	 2200.00	 2187.62	-1725.37	  374.73
     50.4700	 1783.00	 1859.20	-1813.95	  374.76
     50.5700	 1379.00	 1510.97	-1869.72	  374.78
     50.6700	 1085.00	 1209.25	-1862.00	  374.81
     50.7700	  834.00	  982.41	-1886.16	  374.84
     50.8700	  736.00	  831.14	-1832.89	  374.87
     50.9700	  680.00	  739.82	-1797.57	  374.90
     51.0700	  631.00	  687.35	-1794.10	  374.93
     51.1700	  647.00	  654.95	-1745.70	  374.96
     51.2700	  618.00	  630.47	-1750.22	  375.00
     51.3700	  631.00	  609.11	-1715.86	  375.03
     51.4700	  605.00	  590.40	-1723.15	  375.07
     51.5700	  586.00	  574.93	-1726.68	  375.11
     51.6700	  594.00	  563.06	-1706.81	  375.15
     51.7700	  552.00	  554.58	-1740.33	  375.19
     51.8700	  557.00	  548.89	-1729.64	  375.23
     51.9700	  558.00	  545.26	-1725.01	  375.28
     52.0700	  548.00	  543.37	-1733.12	  375.32
     52.1700	  560.00	  542.38	-1720.13	  375.37
     52.2700	  569.00	  542.39	-1711.14	  375.42
     52.3700	  568.00	  543.52	-1713.27	  375.47
     52.4700	  633.00	  546.24	-1650.99	  375.52
     52.5700	  547.00	  551.67	-1742.42	  375.57
     52.6700	  586.00	  562.13	-1713.88	  375.62
     52.7700	  570.00	  581.62	-1749.37	  375.67
     52.8700	  649.00	  616.05	-1704.80	  375.73
     52.9700	  739.00	  672.36	-1671.11	  375.78
     53.0700	  811.00	  755.89	-1682.64	  375.84
     53.1700	  928.00	  866.38	-1676.13	  375.90
     53.2700	 1027.00	  993.72	-1704.47	  375.96
     53.3700	 1111.00	 1115.20	-1741.95	  376.02
     53.4700	 1148.00	 1197.49	-1787.24	  376.08
     53.5700	 1188.00	 1209.39	-1759.14	  376.15
     53.6700	 1129.00	 1145.22	-1753.97	  376.21
     53.7700	  963.00	 1030.94	-1805.69	  376.28
     53.8700	  812.00	  902.17	-1827.92	  376.34
     53.9700	  787.00	  785.41	-1736.16	  376.41
     54.0700	  705.00	  694.17	-1726.92	  376.48
     54.1700	  613.00	  631.06	-1755.81	  376.55
     54.2700	  571.00	  591.75	-1758.50	  376.62
     54.3700	  567.00	  569.35	-1740.10	  376.70
     54.4700	  566.00	  557.43	-1729.18	  376.77
     54.5700	  520.00	  551.38	-1769.13	  376.84
     54.6700	  555.00	  548.46	-1731.21	  376.92
     54.7700	  560.00	  547.34	-1725.09	  377.00
     54.8700	  591.00	  547.34	-1694.09	  377.07
     54.9700	  546.00	  548.20	-1739.95	  377.15
     55.0700	  572.00	  549.88	-1715.63	  377.23
     55.1700	  578.00	  552.31	-1712.06	  377.31
     55.2700	  555.00	  555.60	-1738.35	  377.39
     55.3700	  591.00	  559.87	-1706.62	  377.48
     55.4700	  592.00	  565.37	-1711.12	  377.56
     55.5700	  522.00	  572.50	-1788.25	  377.65
     55.6700	  574.00	  582.14	-1745.89	  377.73
     55.7700	  584.00	  596.04	-1749.79	  377.82
     55.8700	  602.00	  617.70	-1753.45	  377.91
     55.9700	  632.00	  653.52	-1759.27	  378.00
     56.0700	  669.00	  714.03	-1782.78	  378.08
     56.1700	  786.00	  814.20	-1765.95	  378.18
     56.2700	  886.00	  971.56	-1823.31	  378.27
     56.3700	 1086.00	 1200.87	-1852.62	  378.36
     56.4700	 1407.00	 1505.79	-1836.54	  378.45
     56.5700	 1780.00	 1869.53	-1827.28	  378.55
     56.6700	 2111.00	 2247.14	-1873.89	  378.64
     56.7700	 2484.00	 2563.70	-1817.45	  378.74
     56.8700	 2644.00	 2728.05	-1821.80	  378.84
     56.9700	 2684.00	 2679.29	-1733.04	  378.93
     57.0700	 2412.00	 2436.18	-1761.93	  379.03
     57.1700	 2036.00	 2081.82	-1783.57	  379.13
     57.2700	 1675.00	 1704.73	-1767.48	  379.23
     57.3700	 1329.00	 1366.82	-1775.57	  379.33
     57.4700	 1024.00	 1099.38	-1813.13	  379.43
     57.5700	  897.00	  908.82	-1749.57	  379.54
     57.6700	  768.00	  785.60	-1755.35	  379.64
     57.7700	  732.00	  713.45	-1719.20	  379.75
     57.8700	  680.00	  676.85	-1734.60	  379.85
     57.9700	  681.00	  664.65	-1721.40	  379.96
     58.0700	  661.00	  670.77	-1747.52	  380.06
     58.1700	  729.00	  693.03	-1701.78	  380.17
     58.2700	  755.00	  731.25	-1714.00	  380.28
     58.3700	  839.00	  785.45	-1684.20	  380.39
     58.4700	  917.00	  854.17	-1674.92	  380.50
     58.5700	 1064.00	  932.99	-1606.74	  380.61
     58.6700	 1157.00	 1014.03	-1594.78	  380.72
     58.7700	 1330.00	 1088.23	-1495.98	  380.83
     58.8700	 1435.00	 1149.42	-1452.17	  380.94
     58.9700	 1430.00	 1194.37	-1502.12	  381.06
     59.0700	 1478.00	 1218.70	-1478.45	  381.17
     59.1700	 1498.00	 1218.53	-1458.28	  381.28
     59.2700	 1443.00	 1197.52	-1492.27	  381.40
     59.3700	 1280.00	 1167.41	-1625.16	  381.52
     59.4700	 1254.00	 1140.23	-1623.98	  381.63
     59.5700	 1098.00	 1124.35	-1764.10	  381.75
     59.6700	 1159.00	 1127.00	-1705.75	  381.87
     59.7700	 1199.00	 1156.32	-1695.07	  381.99
     59.8700	 1255.00	 1217.08	-1699.83	  382.10
     59.9700	 1323.00	 1304.72	-1719.47	  382.22
     60.0700	 1440.00	 1402.39	-1700.14	  382.34
     60.1700	 1582.00	 1481.78	-1637.53	  382.46
     60.2700	 1547.00	 1510.15	-1700.90	  382.58
     60.3700	 1542.00	 1467.59	-1663.34	  382.71
     60.4700	 1431.00	 1361.34	-1668.09	  382.83
     60.5700	 1259.00	 1218.70	-1697.45	  382.95
     60.6700	 1021.00	 1068.76	-1785.51	  383.07
     60.7700	  915.00	  932.67	-1755.42	  383.20
     60.8700	  804.00	  822.32	-1756.07	  383.32
     60.9700	  696.00	  741.76	-1783.51	  383.45
     61.0700	  675.00	  689.89	-1752.64	  383.57
     61.1700	  602.00	  663.35	-1799.10	  383.70
     61.2700	  625.00	  659.29	-1772.04	  383.82
     61.3700	  612.00	  677.06	-1802.81	  383.95
     61.4700	  718.00	  718.31	-1738.06	  384.08
     61.5700	  783.00	  785.86	-1740.61	  384.20
     61.6700	  853.00	  881.28	-1766.03	  384.33
     61.7700	  909.00	 1002.21	-1830.96	  384.46
     61.8700	 1064.00	 1139.74	-1813.49	  384.59
     61.9700	 1174.00	 1276.76	-1840.51	  384.72
     62.0700	 1294.00	 1388.01	-1831.76	  384.85
     62.1700	 1346.00	 1444.88	-1836.63	  384.98
     62.2700	 1409.00	 1428.81	-1757.56	  385.11
     62.3700	 1254.00	 1344.62	-1828.37	  385.24
     62.4700	 1212.00	 1216.84	-1742.59	  385.37
     62.5700	  984.00	 1073.93	-1827.68	  385.50
     62.6700	  922.00	  938.03	-1753.78	  385.63
     62.7700	  724.00	  822.56	-1836.31	  385.76
     62.8700	  644.00	  733.09	-1826.84	  385.89
     62.9700	  593.00	  669.14	-1813.89	  386.02
     63.0700	  603.00	  626.60	-1761.35	  386.16
     63.1700	  584.00	  600.04	-1753.79	  386.29
     63.2700	  558.00	  584.45	-1764.20	  386.42
     63.3700	  572.00	  576.11	-1741.86	  386.56
     63.4700	  587.00	  572.81	-1723.56	  386.69
     63.5700	  607.00	  573.77	-1704.52	  386.82
     63.6700	  574.00	  579.43	-1743.18	  386.96
     63.7700	  585.00	  591.16	-1743.91	  387.09
     63.8700	  566.00	  610.99	-1782.74	  387.22
     63.9700	  682.00	  641.03	-1696.78	  387.36
     64.0700	  706.00	  682.71	-1714.46	  387.49
     64.1700	  830.00	  735.89	-1643.64	  387.63
     64.2700	  864.00	  797.91	-1671.66	  387.76
     64.3700	  970.00	  862.91	-1630.66	  387.90
     64.4700	  982.00	  921.81	-1677.56	  388.03
     64.5700	 1044.00	  963.30	-1657.05	  388.17
     64.6700	 1047.00	  979.66	-1670.41	  388.30
     64.7700	 1015.00	  967.92	-1690.67	  388.44
     64.8700	  973.00	  932.46	-1697.21	  388.57
     64.9700	  898.00	  881.70	-1721.45	  388.71
     65.0700	  869.00	  825.18	-1693.93	  388.84
     65.1700	  779.00	  770.85	-1729.60	  388.98
     65.2700	  744.00	  723.30	-1717.05	  389.12
     65.3700	  699.00	  683.94	-1722.69	  389.25
     65.4700	  629.00	  652.21	-1760.96	  389.39
     65.5700	  611.00	  627.00	-1753.75	  389.52
     65.6700	  614.00	  607.30	-1731.05	  389.66
     65.7700	  601.00	  592.29	-1729.04	  389.79
     65.8700	  577.00	  581.24	-1741.99	  389.93
     65.9700	  547.00	  573.55	-1764.30	  390.06
     66.0700	  530.00	  568.68	-1776.43	  390.20
     66.1700	  531.00	  566.15	-1772.90	  390.34
     66.2700	  535.00	  565.56	-1768.31	  390.47
     66.3700	  595.00	  566.60	-1709.35	  390.61
     66.4700	  587.00	  569.19	-1719.94	  390.74
     66.5700	  567.00	  573.17	-1743.92	  390.88
     66.6700	  605.00	  579.06	-1711.81	  391.01
     66.7700	  576.00	  587.78	-1749.53	  391.15
     66.8700	  566.00	  601.10	-1772.85	  391.28
     66.9700	  555.00	  622.09	-1804.84	  391.42
     67.0700	  639.00	  655.53	-1754.28	  391.55
     67.1700	  701.00	  708.16	-1744.91	  391.69
     67.2700	  787.00	  788.41	-1739.16	  391.82
     67.3700	  863.00	  905.30	-1780.05	  391.95
     67.4700	 1147.00	 1065.76	-1656.51	  392.09
     67.5700	 1296.00	 1272.19	-1713.94	  392.22
     67.6700	 1594.00	 1518.73	-1662.48	  392.36
     67.7700	 1817.00	 1788.65	-1709.40	  392.49
     67.8700	 2120.00	 2052.89	-1670.64	  392.62
     67.9700	 2284.00	 2271.48	-1725.23	  392.75
     68.0700	 2347.00	 2399.39	-1790.14	  392.89
     68.1700	 2424.00	 2403.94	-1717.69	  393.02
     68.2700	 2341.00	 2283.63	-1680.38	  393.15
     68.3700	 2014.00	 2069.81	-1793.56	  393.28
     68.4700	 1803.00	 1807.39	-1742.14	  393.42
     68.5700	 1552.00	 1537.21	-1722.96	  393.55
     68.6700	 1234.00	 1288.96	-1792.71	  393.68
     68.7700	  996.00	 1080.07	-1821.82	  393.81
     68.8700	  941.00	  917.09	-1713.84	  393.94
     68.9700	  795.00	  798.18	-1740.93	  394.07
     69.0700	  789.00	  716.36	-1665.11	  394.20
     69.1700	  667.00	  662.72	-1733.47	  394.33
     69.2700	  675.00	  628.77	-1691.52	  394.46
     69.3700	  573.00	  607.64	-1772.39	  394.59
     69.4700	  645.00	  594.41	-1687.16	  394.71
     69.5700	  617.00	  585.90	-1706.65	  394.84
     69.6700	  560.00	  580.23	-1757.98	  394.97
     69.7700	  643.00	  576.33	-1671.08	  395.10
     69.8700	  565.00	  573.65	-1746.40	  395.22
     69.9700	  544.00	  571.89	-1765.64	  395.35
     70.0700	  599.00	  570.95	-1709.70	  395.47
     70.1700	  576.00	  570.74	-1732.49	  395.60
     70.2700	  532.00	  571.29	-1777.04	  395.72
     70.3700	  563.00	  572.73	-1747.48	  395.85
     70.4700	  554.00	  575.30	-1759.05	  395.97
     70.5700	  507.00	  579.53	-1810.28	  396.10
     70.6700	  588.00	  586.34	-1736.09	  396.22
     70.7700	  615.00	  597.30	-1720.05	  396.34
     70.8700	  581.00	  614.90	-1771.65	  396.46
     70.9700	  615.00	  642.73	-1765.48	  396.58
     71.0700	  641.00	  685.63	-1782.38	  396.70
     71.1700	  750.00	  749.16	-1736.91	  396.82
     71.2700	  766.00	  838.89	-1810.64	  396.94
     71.3700	  974.00	  958.93	-1722.68	  397.06
     71.4700	 1079.00	 1110.00	-1768.75	  397.18
     71.5700	 1284.00	 1288.52	-1742.27	  397.30
     71.6700	 1390.00	 1481.92	-1829.67	  397.42
     71.7700	 1722.00	 1672.76	-1688.51	  397.53
     71.8700	 1878.00	 1836.32	-1696.07	  397.65
     71.9700	 1914.00	 1944.26	-1768.01	  397.77
     72.0700	 1919.00	 1973.24	-1791.99	  397.88
     72.1700	 1815.00	 1916.26	-1839.01	  398.00
     72.2700	 1821.00	 1786.95	-1703.70	  398.11
     72.3700	 1595.00	 1611.59	-1754.34	  398.22
     72.4700	 1508.00	 1417.52	-1647.27	  398.33
     72.5700	 1362.00	 1228.20	-1603.95	  398.45
     72.6700	 1133.00	 1058.82	-1663.57	  398.56
     72.7700	  995.00	  917.91	-1660.66	  398.67
     72.8700	  937.00	  807.80	-1608.55	  398.78
     72.9700	  840.00	  726.44	-1624.19	  398.89
     73.0700	  792.00	  669.11	-1614.86	  398.99
     73.1700	  713.00	  630.25	-1655.00	  399.10
     73.2700	  708.00	  604.58	-1634.33	  399.21
     73.3700	  684.00	  587.78	-1641.53	  399.31
     73.4700	  613.00	  576.72	-1701.47	  399.42
     73.5700	  644.00	  569.28	-1663.03	  399.52
     73.6700	  583.00	  564.18	-1718.93	  399.63
     73.7700	  625.00	  560.64	-1673.39	  399.73
     73.8700	  594.00	  558.24	-1701.99	  399.83
     73.9700	  536.00	  556.71	-1758.46	  399.93
     74.0700	  637.00	  555.89	-1656.64	  400.03
     74.1700	  575.00	  555.62	-1718.37	  400.13
     74.2700	  601.00	  555.72	-1692.47	  400.23
     74.3700	  611.00	  556.00	-1682.75	  400.33
     74.4700	  610.00	  556.21	-1683.96	  400.43
     74.5700	  661.00	  556.12	-1632.87	  400.53
     74.6700	  661.00	  555.55	-1632.30	  400.62
     74.7700	  612.00	  554.47	-1680.22	  400.72
     74.8700	  641.00	  552.99	-1649.74	  400.81
     74.9700	  666.00	  551.37	-1623.12	  400.90
     75.0700	  619.00	  549.88	-1668.63	  400.99
     75.1700	  594.00	  548.85	-1692.60	  401.09
     75.2700	  589.00	  548.54	-1697.29	  401.18
     75.3700	  550.00	  549.44	-1737.19	  401.27
     75.4700	  560.00	  551.94	-1729.69	  401.35
     75.5700	  537.00	  556.49	-1757.24	  401.44
     75.6700	  530.00	  563.61	-1771.36	  401.53
     75.7700	  607.00	  573.89	-1704.64	  401.61
     75.8700	  575.00	  587.54	-1750.29	  401.70
     75.9700	  597.00	  604.49	-1745.24	  401.78
     76.0700	  643.00	  624.22	-1718.97	  401.86
     76.1700	  677.00	  645.59	-1706.34	  401.95
     76.2700	  714.00	  666.85	-1690.60	  402.03
     76.3700	  718.00	  685.67	-1705.42	  402.11
     76.4700	  667.00	  699.33	-1770.08	  402.19
     76.5700	  693.00	  705.38	-1750.13	  402.26
     76.6700	  641.00	  702.57	-1799.32	  402.34
     76.7700	  651.00	  691.45	-1778.20	  402.42
     76.8700	  645.00	  674.11	-1766.86	  402.49
     76.9700	  673.00	  653.05	-1717.80	  402.57
     77.0700	  610.00	  631.18	-1758.93	  402.64
     77.1700	  560.00	  610.30	-1788.05	  402.71
     77.2700	  534.00	  591.76	-1795.51	  402.78
     77.3700	  548.00	  576.29	-1766.04	  402.85
     77.4700	  544.00	  564.09	-1757.84	  402.92
     77.5700	  534.00	  554.95	-1758.70	  402.99
     77.6700	  572.00	  548.41	-1714.16	  403.05
     77.7700	  531.00	  543.91	-1750.66	  403.12
     77.8700	  536.00	  540.92	-1742.67	  403.18
     77.9700	  521.00	  538.97	-1755.72	  403.25
     78.0700	  539.00	  537.72	-1736.47	  403.31
     78.1700	  518.00	  536.92	-1756.67	  403.37
     78.2700	  502.00	  536.42	-1772.17	  403.43
     78.3700	  475.00	  536.10	-1798.85	  403.49
     78.4700	  498.00	  535.92	-1775.67	  403.54
     78.5700	  497.00	  535.86	-1776.61	  403.60
     78.6700	  511.00	  535.91	-1762.66	  403.66
     78.7700	  510.00	  536.08	-1763.83	  403.71
     78.8700	  520.00	  536.41	-1754.16	  403.76
     78.9700	  527.00	  536.91	-1747.66	  403.82
     79.0700	  501.00	  537.66	-1774.41	  403.87
     79.1700	  506.00	  538.69	-1770.44	  403.92
     79.2700	  557.00	  540.07	-1720.82	  403.96
     79.3700	  516.00	  541.67	-1763.42	  404.01
     79.4700	  516.00	  543.90	-1765.65	  404.06
     79.5700	  501.00	  546.62	-1783.37	  404.10
     79.6700	  469.00	  549.89	-1818.64	  404.15
     79.7700	  527.00	  553.76	-1764.51	  404.19
     79.8700	  534.00	  558.30	-1762.05	  404.23
     79.9700	  544.00	  563.63	-1757.38	  404.27
     80.0700	  544.00	  569.92	-1763.67	  404.31
     80.1700	  535.00	  577.44	-1780.19	  404.34
     80.2700	  545.00	  586.53	-1779.28	  404.38
     80.3700	  555.00	  597.51	-1780.26	  404.42
     80.4700	  596.00	  610.57	-1752.32	  404.45
     80.5700	  571.00	  625.68	-1792.43	  404.48
     80.6700	  602.00	  642.46	-1778.21	  404.51
     80.7700	  578.00	  660.20	-1819.95	  404.54
     80.8700	  671.00	  677.81	-1744.56	  404.57
     80.9700	  721.00	  694.02	-1710.77	  404.60
     81.0700	  713.00	  707.62	-1732.37	  404.63
     81.1700	  767.00	  717.59	-1688.34	  404.65
     81.2700	  745.00	  723.25	-1716.00	  404.67
     81.3700	  761.00	  724.21	-1700.96	  404.70
     81.4700	  754.00	  720.48	-1704.23	  404.72
     81.5700	  730.00	  712.46	-1720.21	  404.74
     81.6700	  710.00	  700.75	-1728.50	  404.75
     81.7700	  729.00	  686.12	-1694.87	  404.77
     81.8700	  739.00	  669.53	-1668.28	  404.79
     81.9700	  699.00	  652.07	-1690.82	  404.80
     82.0700	  687.00	  634.80	-1685.55	  404.82
     82.1700	  661.00	  618.50	-1695.25	  404.83
     82.2700	  611.00	  603.83	-1730.58	  404.84
     82.3700	  639.00	  591.03	-1689.78	  404.85
     82.4700	  565.00	  580.21	-1752.96	  404.85
     82.5700	  614.00	  571.40	-1695.15	  404.86
     82.6700	  536.00	  564.53	-1766.28	  404.87
     82.7700	  588.00	  559.58	-1709.33	  404.87
     82.8700	  544.00	  556.40	-1750.15	  404.87
     82.9700	  570.00	  554.92	-1722.67	  404.87
     83.0700	  609.00	  555.02	-1683.77	  404.87
     83.1700	  571.00	  556.61	-1723.36	  404.87
     83.2700	  580.00	  559.57	-1717.32	  404.87
     83.3700	  513.00	  563.69	-1788.44	  404.86
     83.4700	  544.00	  568.72	-1762.47	  404.86
     83.5700	  551.00	  574.30	-1761.05	  404.85
     83.6700	  551.00	  579.95	-1766.70	  404.84
     83.7700	  565.00	  585.12	-1757.87	  404.83
     83.8700	  573.00	  589.17	-1753.92	  404.82
     83.9700	  580.00	  591.52	-1749.27	  404.81
     84.0700	  545.00	  591.74	-1784.49	  404.79
     84.1700	  602.00	  589.77	-1725.52	  404.78
     84.2700	  562.00	  585.86	-1761.61	  404.76
     84.3700	  570.00	  580.55	-1748.30	  404.74
     84.4700	  550.00	  574.43	-1762.18	  404.72
     84.5700	  547.00	  568.04	-1758.79	  404.70
     84.6700	  530.00	  561.85	-1769.60	  404.68
     84.7700	  536.00	  556.17	-1757.93	  404.65
     84.8700	  582.00	  551.23	-1706.98	  404.63
     84.9700	  546.00	  547.12	-1738.87	  404.60
     85.0700	  518.00	  543.85	-1763.60	  404.57
     85.1700	  533.00	  541.37	-1746.12	  404.54
     85.2700	  553.00	  539.56	-1724.31	  404.51
     85.3700	  527.00	  538.34	-1749.09	  404.48
     85.4700	  574.00	  537.58	-1701.33	  404.45
     85.5700	  534.00	  537.21	-1740.96	  404.41
     85.6700	  527.00	  537.17	-1747.92	  404.38
     85.7700	  525.00	  537.45	-1750.20	  404.34
     85.8700	  539.00	  538.08	-1736.83	  404.30
     85.9700	  508.00	  539.10	-1768.85	  404.26
     86.0700	  529.00	  540.64	-1749.39	  404.21
     86.1700	  519.00	  542.83	-1761.58	  404.17
     86.2700	  532.00	  545.84	-1751.59	  404.12
     86.3700	  547.00	  549.84	-1740.59	  404.08
     86.4700	  583.00	  555.00	-1709.75	  404.03
     86.5700	  547.00	  561.42	-1752.17	  403.98
     86.6700	  581.00	  569.13	-1725.88	  403.93
     86.7700	  609.00	  578.02	-1706.77	  403.88
     86.8700	  565.00	  587.85	-1760.60	  403.82
     86.9700	  621.00	  597.85	-1714.60	  403.77
     87.0700	  616.00	  608.07	-1729.82	  403.71
     87.1700	  583.00	  617.45	-1772.20	  403.65
     87.2700	  666.00	  625.11	-1696.86	  403.59
     87.3700	  672.00	  630.23	-1695.98	  403.53
     87.4700	  668.00	  632.17	-1701.92	  403.47
     87.5700	  629.00	  630.69	-1739.44	  403.40
     87.6700	  617.00	  626.07	-1746.82	  403.34
     87.7700	  622.00	  619.00	-1734.75	  403.27
     87.8700	  620.00	  610.37	-1728.12	  403.20
     87.9700	  620.00	  601.11	-1718.86	  403.13
     88.0700	  639.00	  592.06	-1690.81	  403.06
     88.1700	  591.00	  583.94	-1730.69	  402.99
     88.2700	  589.00	  577.29	-1726.04	  402.92
     88.3700	  623.00	  572.48	-1687.23	  402.84
     88.4700	  581.00	  569.68	-1726.43	  402.76
     88.5700	  504.00	  568.91	-1802.66	  402.68
     88.6700	  578.00	  570.02	-1729.77	  402.60
     88.7700	  600.00	  572.73	-1710.48	  402.52
     88.8700	  623.00	  576.64	-1691.39	  402.44
     88.9700	  590.00	  581.28	-1729.03	  402.36
     89.0700	  619.00	  586.10	-1704.85	  402.27
     89.1700	  627.00	  590.51	-1701.26	  402.18
     89.2700	  623.00	  593.92	-1708.67	  402.09
     89.3700	  585.00	  595.82	-1748.57	  402.00
     89.4700	  599.00	  595.88	-1734.63	  401.91
     89.5700	  578.00	  594.02	-1753.77	  401.82
     89.6700	  598.00	  590.45	-1730.20	  401.73
     89.7700	  549.00	  585.57	-1774.32	  401.63
     89.8700	  575.00	  579.86	-1742.61	  401.53
     89.9700	  535.00	  573.77	-1776.52	  401.44
     90.0700	  585.00	  567.71	-1720.46	  401.34
     90.1700	  554.00	  562.00	-1745.75	  401.23
     90.2700	  480.00	  556.86	-1814.61	  401.13
     90.3700	  510.00	  552.44	-1780.19	  401.03
     90.4700	  511.00	  548.80	-1775.55	  400.92
     90.5700	  530.00	  545.92	-1753.67	  400.82
     90.6700	  502.00	  543.75	-1779.50	  400.71
     90.7700	  515.00	  542.22	-1764.97	  400.60
     90.8700	  513.00	  541.25	-1766.00	  400.49
     90.9700	  523.00	  540.74	-1755.49	  400.37
     91.0700	  534.00	  540.65	-1744.40	  400.26
     91.1700	  531.00	  540.94	-1747.69	  400.15
     91.2700	  538.00	  541.61	-1741.36	  400.03
     91.3700	  541.00	  542.72	-1739.47	  399.91
     91.4700	  537.00	  544.33	-1745.08	  399.79
     91.5700	  495.00	  546.58	-1789.33	  399.67
     91.6700	  518.00	  549.61	-1769.36	  399.55
     91.7700	  529.00	  553.62	-1762.37	  399.43
     91.8700	  601.00	  558.80	-1695.55	  399.30
     91.9700	  570.00	  565.36	-1733.11	  399.18
     92.0700	  486.00	  573.24	-1824.99	  399.05
     92.1700	  580.00	  583.04	-1740.79	  398.92
     92.2700	  571.00	  594.61	-1761.36	  398.79
     92.3700	  606.00	  607.89	-1739.64	  398.66
     92.4700	  598.00	  622.74	-1762.49	  398.53
     92.5700	  636.00	  638.88	-1740.63	  398.39
     92.6700	  692.00	  655.90	-1701.65	  398.26
     92.7700	  681.00	  673.27	-1730.02	  398.12
     92.8700	  711.00	  690.34	-1717.09	  397.98
     92.9700	  711.00	  706.43	-1733.18	  397.84
     93.0700	  722.00	  720.96	-1736.71	  397.70
     93.1700	  786.00	  733.61	-1685.36	  397.56
     93.2700	  747.00	  744.41	-1735.16	  397.42
     93.3700	  810.00	  753.69	-1681.44	  397.27
     93.4700	  821.00	  761.97	-1678.72	  397.13
     93.5700	  820.00	  769.81	-1687.56	  396.98
     93.6700	  891.00	  777.67	-1624.42	  396.83
     93.7700	  871.00	  785.98	-1652.73	  396.68
     93.8700	  880.00	  795.15	-1652.90	  396.53
     93.9700	  866.00	  805.61	-1677.36	  396.38
     94.0700	  889.00	  817.72	-1666.47	  396.23
     94.1700	  877.00	  831.68	-1692.43	  396.07
     94.2700	  872.00	  847.33	-1713.08	  395.92
     94.3700	  876.00	  864.09	-1725.84	  395.76
     94.4700	  922.00	  880.90	-1696.65	  395.60
     94.5700	  909.00	  896.33	-1725.08	  395.44
     94.6700	  907.00	  908.63	-1739.38	  395.28
     94.7700	  900.00	  915.96	-1753.71	  395.12
     94.8700	  903.00	  916.81	-1751.56	  394.96
     94.9700	  941.00	  910.29	-1707.04	  394.80
     95.0700	  892.00	  896.51	-1742.26	  394.63
     95.1700	  899.00	  876.44	-1715.19	  394.46
     95.2700	  863.00	  851.73	-1726.48	  394.30
     95.3700	  764.00	  824.31	-1798.06	  394.13
     95.4700	  770.00	  796.21	-1763.96	  393.96
     95.5700	  779.00	  769.32	-1728.07	  393.79
     95.6700	  718.00	  745.40	-1765.15	  393.62
     95.7700	  683.00	  726.05	-1780.80	  393.44
     95.8700	  723.00	  712.67	-1727.42	  393.27
     95.9700	  695.00	  706.50	-1749.25	  393.10
     96.0700	  700.00	  708.61	-1746.36	  392.92
     96.1700	  720.00	  719.86	-1737.61	  392.74
     96.2700	  678.00	  740.93	-1800.68	  392.56
     96.3700	  716.00	  772.22	-1793.97	  392.39
     96.4700	  811.00	  813.81	-1740.56	  392.20
     96.5700	  882.00	  865.32	-1721.07	  392.02
     96.6700	  945.00	  925.88	-1718.63	  391.84
     96.7700	  942.00	  993.99	-1789.74	  391.66
     96.8700	 1044.00	 1067.50	-1761.25	  391.47
     96.9700	 1150.00	 1143.58	-1731.33	  391.29
     97.0700	 1238.00	 1218.72	-1718.47	  391.10
     97.1700	 1256.00	 1288.83	-1770.58	  390.91
     97.2700	 1293.00	 1349.52	-1794.27	  390.73
     97.3700	 1398.00	 1396.36	-1736.11	  390.54
     97.4700	 1438.00	 1425.56	-1725.31	  390.35
     97.5700	 1436.00	 1434.68	-1736.43	  390.16
     97.6700	 1379.00	 1423.25	-1782.00	  389.96
     97.7700	 1464.00	 1392.76	-1666.51	  389.77
     97.8700	 1302.00	 1346.33	-1782.08	  389.58
     97.9700	 1195.00	 1287.98	-1830.73	  389.38
     98.0700	 1167.00	 1222.02	-1792.77	  389.19
     98.1700	 1168.00	 1152.62	-1722.37	  388.99
     98.2700	 1100.00	 1083.68	-1721.43	  388.79
     98.3700	  950.00	 1018.50	-1806.25	  388.60
     98.4700	  959.00	  959.89	-1738.64	  388.40
     98.5700	  913.00	  910.10	-1734.85	  388.20
     98.6700	  824.00	  870.90	-1784.65	  388.00
     98.7700	  853.00	  843.60	-1728.35	  387.80
     98.8700	  810.00	  829.15	-1756.90	  387.59
     98.9700	  801.00	  828.21	-1764.96	  387.39
     99.0700	  791.00	  841.18	-1787.93	  387.19
     99.1700	  841.00	  868.29	-1765.04	  386.98
     99.2700	  937.00	  909.55	-1710.30	  386.78
     99.3700	  951.00	  964.72	-1751.47	  386.57
     99.4700	  954.00	 1033.26	-1817.01	  386.37
     99.5700	 1109.00	 1114.27	-1743.02	  386.16
     99.6700	 1264.00	 1206.35	-1680.10	  385.95
     99.7700	 1290.00	 1307.50	-1755.25	  385.74
     99.8700	 1428.00	 1415.09	-1724.84	  385.54
     99.9700	 1551.00	 1525.73	-1712.48	  385.33
    100.0700	 1607.00	 1635.45	-1766.20	  385.12
    100.1700	 1766.00	 1739.83	-1711.58	  384.91
    100.2700	 1839.00	 1834.36	-1733.11	  384.69
    100.3700	 1982.00	 1915.07	-1670.82	  384.48
    100.4700	 1994.00	 1978.77	-1722.52	  384.27
    100.5700	 2014.00	 2023.28	-1747.03	  384.06
    100.6700	 2070.00	 2047.20	-1714.95	  383.84
    100.7700	 2108.00	 2049.72	-1679.47	  383.63
    100.8700	 2018.00	 2030.66	-1750.41	  383.41
    100.9700	 2032.00	 1990.68	-1696.43	  383.20
    101.0700	 1934.00	 1931.67	-1735.42	  382.98
    101.1700	 1859.00	 1856.86	-1735.61	  382.77
    101.2700	 1717.00	 1770.71	-1791.46	  382.55
    101.3700	 1735.00	 1678.21	-1680.96	  382.33
    101.4700	 1619.00	 1584.37	-1703.12	  382.12
    101.5700	 1568.00	 1493.59	-1663.34	  381.90
    101.6700	 1460.00	 1409.47	-1687.22	  381.68
    101.7700	 1363.00	 1334.60	-1709.35	  381.46
    101.8700	 1253.00	 1270.48	-1755.23	  381.25
    101.9700	 1211.00	 1217.63	-1744.38	  381.03
    102.0700	 1164.00	 1175.55	-1749.30	  380.81
    102.1700	 1175.00	 1142.93	-1705.68	  380.59
    102.2700	 1090.00	 1117.80	-1765.55	  380.37
    102.3700	 1145.00	 1097.68	-1690.43	  380.15
    102.4700	 1059.00	 1079.92	-1758.67	  379.93
    102.5700	 1085.00	 1061.95	-1714.70	  379.71
    102.6700	 1013.00	 1041.70	-1766.45	  379.49
    102.7700	  985.00	 1017.81	-1770.56	  379.27
    102.8700	 1038.00	  989.74	-1689.49	  379.05
    102.9700	  965.00	  957.70	-1730.45	  378.82
    103.0700	  896.00	  922.44	-1764.19	  378.60
    103.1700	  899.00	  885.03	-1723.78	  378.38
    103.2700	  833.00	  846.64	-1751.39	  378.16
    103.3700	  797.00	  808.40	-1749.15	  377.94
    103.4700	  741.00	  771.38	-1768.13	  377.72
    103.5700	  686.00	  736.45	-1788.20	  377.50
    103.6700	  648.00	  704.31	-1794.06	  377.27
    103.7700	  670.00	  675.43	-1743.18	  377.05
    103.8700	  646.00	  650.07	-1741.82	  376.83
    103.9700	  629.00	  628.31	-1737.06	  376.61
    104.0700	  620.00	  610.07	-1727.82	  376.39
    104.1700	  617.00	  595.12	-1715.87	  376.17
    104.2700	  503.00	  583.16	-1817.91	  375.95
    104.3700	  590.00	  573.84	-1721.59	  375.73
    104.4700	  611.00	  566.79	-1693.54	  375.50
    104.5700	  602.00	  561.64	-1697.39	  375.28
    104.6700	  529.00	  558.07	-1766.82	  375.06
    104.7700	  542.00	  555.77	-1751.52	  374.84
    104.8700	  537.00	  554.51	-1755.26	  374.62
    104.9700	  533.00	  554.06	-1758.81	  374.40
    105.0700	  566.00	  554.30	-1726.05	  374.18
    105.1700	  531.00	  555.10	-1761.85	  373.96
    105.2700	  560.00	  556.37	-1734.12	  373.75
    105.3700	  514.00	  558.10	-1781.85	  373.53
    105.4700	  553.00	  560.30	-1745.05	  373.31
    105.5700	  510.00	  562.98	-1790.73	  373.09
    105.6700	  573.00	  566.22	-1730.97	  372.87
    105.7700	  537.00	  570.11	-1770.86	  372.66
    105.8700	  598.00	  574.74	-1714.49	  372.44
    105.9700	  580.00	  580.19	-1737.94	  372.22
    106.0700	  564.00	  586.54	-1760.29	  372.01
    106.1700	  635.00	  593.78	-1696.53	  371.79
    106.2700	  548.00	  601.88	-1791.63	  371.58
    106.3700	  586.00	  610.76	-1762.51	  371.37
    106.4700	  632.00	  620.24	-1725.99	  371.15
    106.5700	  607.00	  630.12	-1760.87	  370.94
    106.6700	  634.00	  640.11	-1743.86	  370.73
    106.7700	  602.00	  649.89	-1785.64	  370.52
    106.8700	  651.00	  659.10	-1745.85	  370.31
    106.9700	  676.00	  667.38	-1729.13	  370.10
    107.0700	  612.00	  674.37	-1800.12	  369.89
    107.1700	  683.00	  679.82	-1734.57	  369.68
    107.2700	  682.00	  683.58	-1739.33	  369.47
    107.3700	  690.00	  685.65	-1733.40	  369.26
    107.4700	  662.00	  686.22	-1761.97	  369.06
    107.5700	  685.00	  685.59	-1738.34	  368.85
    107.6700	  712.00	  684.17	-1709.93	  368.65
    107.7700	  671.00	  682.39	-1749.14	  368.44
    107.8700	  704.00	  680.63	-1714.38	  368.24
    107.9700	  674.00	  679.22	-1742.97	  368.04
    108.0700	  657.00	  678.39	-1759.14	  367.84
    108.1700	  642.00	  678.26	-1774.01	  367.64
    108.2700	  693.00	  678.84	-1723.59	  367.44
    108.3700	  684.00	  680.04	-1733.79	  367.25
    108.4700	  663.00	  681.63	-1756.38	  367.05
    108.5700	  704.00	  683.31	-1717.06	  366.85
    108.6700	  727.00	  684.72	-1695.47	  366.66
    108.7700	  693.00	  685.45	-1730.20	  366.47
    108.8700	  683.00	  685.10	-1739.85	  366.28
    108.9700	  672.00	  683.35	-1749.10	  366.09
    109.0700	  685.00	  680.00	-1732.75	  365.90
    109.1700	  707.00	  674.98	-1705.73	  365.71
    109.2700	  687.00	  668.37	-1719.12	  365.52
    109.3700	  698.00	  660.38	-1700.13	  365.34
    109.4700	  641.00	  651.28	-1748.03	  365.15
    109.5700	  642.00	  641.42	-1737.17	  364.97
    109.6700	  622.00	  631.13	-1746.88	  364.79
    109.7700	  621.00	  620.75	-1737.50	  364.61
    109.8700	  670.00	  610.55	-1678.30	  364.43
    109.9700	  636.00	  600.82	-1702.57	  364.26
    110.0700	  577.00	  591.75	-1752.50	  364.08
    110.1700	  594.00	  583.51	-1727.26	  363.91
    110.2700	  551.00	  576.20	-1762.95	  363.74
    110.3700	  589.00	  569.89	-1718.64	  363.57
    110.4700	  554.00	  564.60	-1748.35	  363.40
    110.5700	  556.00	  560.30	-1742.05	  363.23
    110.6700	  557.00	  556.95	-1737.70	  363.07
    110.7700	  552.00	  554.47	-1740.22	  362.91
    110.8700	  516.00	  552.78	-1774.53	  362.74
    110.9700	  557.00	  551.78	-1732.53	  362.59
    111.0700	  533.00	  551.40	-1756.15	  362.43
    111.1700	  533.00	  551.54	-1756.29	  362.27
    111.2700	  562.00	  552.12	-1727.87	  362.12
    111.3700	  596.00	  553.08	-1694.83	  361.97
    111.4700	  570.00	  554.36	-1722.11	  361.82
    111.5700	  499.00	  555.92	-1794.67	  361.67
    111.6700	  542.00	  557.71	-1753.46	  361.52
    111.7700	  543.00	  559.71	-1754.46	  361.38
    111.8700	  588.00	  561.91	-1711.66	  361.24
    111.9700	  570.00	  564.29	-1732.04	  361.10
    112.0700	  543.00	  566.87	-1761.62	  360.96
    112.1700	  578.00	  569.65	-1729.40	  360.83
    112.2700	  540.00	  572.66	-1770.41	  360.69
    112.3700	  536.00	  575.93	-1777.68	  360.56
    112.4700	  623.00	  579.49	-1694.24	  360.44
    112.5700	  609.00	  583.39	-1712.14	  360.31
    112.6700	  593.00	  587.71	-1732.46	  360.19
    112.7700	  622.00	  592.53	-1708.28	  360.07
    112.8700	  617.00	  597.96	-1718.71	  359.95
    112.9700	  655.00	  604.15	-1686.90	  359.83
    113.0700	  689.00	  611.28	-1660.03	  359.72
    113.1700	  638.00	  619.58	-1719.33	  359.61
    113.2700	  670.00	  629.39	-1697.14	  359.50
    113.3700	  748.00	  641.07	-1630.82	  359.39
    113.4700	  723.00	  655.18	-1669.93	  359.29
    113.5700	  809.00	  672.31	-1601.06	  359.19
    113.6700	  753.00	  693.26	-1678.01	  359.09
    113.7700	  855.00	  718.99	-1601.74	  359.00
    113.8700	  929.00	  750.65	-1559.40	  358.91
    113.9700	  932.00	  789.60	-1595.35	  358.82
    114.0700	  983.00	  837.42	-1592.17	  358.73
    114.1700	  951.00	  895.89	-1682.64	  358.65
    114.2700	 1105.00	  967.01	-1599.76	  358.57
    114.3700	 1237.00	 1052.98	-1553.73	  358.49
    114.4700	 1263.00	 1156.07	-1630.82	  358.42
    114.5700	 1412.00	 1278.64	-1604.39	  358.35
    114.6700	 1529.00	 1422.95	-1631.70	  358.28
    114.7700	 1793.00	 1591.16	-1535.91	  358.21
    114.8700	 1847.00	 1785.15	-1675.90	  358.15
    114.9700	 2101.00	 2006.28	-1643.03	  358.09
    115.0700	 2391.00	 2255.37	-1602.12	  358.04
    115.1700	 2551.00	 2532.38	-1719.13	  357.99
    115.2700	 2856.00	 2836.50	-1718.25	  357.94
    115.3700	 3131.00	 3165.85	-1772.60	  357.89
    115.4700	 3418.00	 3517.34	-1837.09	  357.85
    115.5700	 3658.00	 3886.72	-1966.47	  357.81
    115.6700	 4038.00	 4268.45	-1968.20	  357.78
    115.7700	 4474.00	 4655.85	-1919.60	  357.75
    115.8700	 4763.00	 5041.10	-2015.85	  357.72
    115.9700	 5266.00	 5415.18	-1886.93	  357.70
    116.0700	 5523.00	 5768.19	-1982.94	  357.67
    116.1700	 5972.00	 6089.57	-1855.32	  357.66
    116.2700	 6182.00	 6368.63	-1924.38	  357.65
    116.3700	 6569.00	 6595.03	-1763.78	  357.64
    116.4700	 6776.00	 6759.52	-1721.27	  357.63
    116.5700	 6951.00	 6854.91	-1641.66	  357.63
    116.6700	 6924.00	 6876.97	-1690.72	  357.63
    116.7700	 6933.00	 6824.90	-1629.65	  357.64
    116.8700	 6787.00	 6701.40	-1652.15	  357.65
    116.9700	 6496.00	 6512.43	-1754.18	  357.66
    117.0700	 6394.00	 6266.34	-1610.09	  357.68
    117.1700	 5993.00	 5973.08	-1717.83	  357.71
    117.2700	 5627.00	 5643.22	-1753.97	  357.73
    117.3700	 5179.00	 5287.26	-1846.01	  357.76
    117.4700	 4951.00	 4915.35	-1702.10	  357.80
    117.5700	 4614.00	 4536.76	-1660.51	  357.84
    117.6700	 4269.00	 4159.77	-1628.52	  357.88
    117.7700	 3851.00	 3791.40	-1678.15	  357.93
    117.8700	 3509.00	 3437.48	-1666.23	  357.99
    117.9700	 3233.00	 3102.70	-1607.45	  358.04
    118.0700	 2884.00	 2790.49	-1644.24	  358.10
    118.1700	 2483.00	 2503.21	-1757.96	  358.17
    118.2700	 2284.00	 2242.08	-1695.83	  358.24
    118.3700	 2011.00	 2007.45	-1734.20	  358.32
    118.4700	 1799.00	 1798.97	-1737.72	  358.40
    118.5700	 1512.00	 1615.64	-1841.39	  358.48
    118.6700	 1354.00	 1455.99	-1839.74	  358.57
    118.7700	 1273.00	 1318.17	-1782.92	  358.67
    118.8700	 1195.00	 1200.14	-1742.89	  358.77
    118.9700	  998.00	 1099.80	-1839.55	  358.87
    119.0700	  953.00	 1015.03	-1799.78	  358.98
    119.1700	  877.00	  943.79	-1804.54	  359.10
    119.2700	  830.00	  884.15	-1791.90	  359.22
    119.3700	  795.00	  834.37	-1777.12	  359.34
    119.4700	  736.00	  792.90	-1794.65	  359.47
    119.5700	  682.00	  758.39	-1814.14	  359.61
    119.6700	  711.00	  729.67	-1756.42	  359.75
    119.7700	  621.00	  705.74	-1822.49	  359.90
    119.8700	  665.00	  685.78	-1758.53	  360.05
    119.9700	  673.00	  669.10	-1733.85	  360.20
    120.0700	  615.00	  655.14	-1777.89	  360.37
    120.1700	  621.00	  643.45	-1760.20	  360.53
    120.2700	  586.00	  633.66	-1785.41	  360.71
    120.3700	  593.00	  625.47	-1770.22	  360.89
    120.4700	  573.00	  618.65	-1783.40	  361.07
    120.5700	  579.00	  613.01	-1771.76	  361.26
    120.6700	  550.00	  608.42	-1796.17	  361.46
    120.7700	  616.00	  604.74	-1726.49	  361.66
    120.8700	  604.00	  601.89	-1735.64	  361.87
    120.9700	  545.00	  599.80	-1792.55	  362.08
    121.0700	  608.00	  598.42	-1728.17	  362.30
    121.1700	  543.00	  597.68	-1792.43	  362.53
    121.2700	  548.00	  597.55	-1787.30	  362.76
    121.3700	  583.00	  597.99	-1752.74	  363.00
    121.4700	  592.00	  598.95	-1744.70	  363.24
    121.5700	  581.00	  600.39	-1757.14	  363.49
    121.6700	  578.00	  602.25	-1762.00	  363.75
    121.7700	  608.00	  604.47	-1734.22	  364.01
    121.8700	  584.00	  607.00	-1760.75	  364.28
    121.9700	  583.00	  609.74	-1764.49	  364.56
    122.0700	  628.00	  612.64	-1722.39	  364.84
    122.1700	  616.00	  615.60	-1737.35	  365.13
    122.2700	  633.00	  618.54	-1723.29	  365.42
    122.3700	  639.00	  621.34	-1720.09	  365.73
    122.4700	  658.00	  623.92	-1703.67	  366.03
    122.5700	  662.00	  626.18	-1701.93	  366.35
    122.6700	  627.00	  628.03	-1738.78	  366.67
    122.7700	  607.00	  629.40	-1760.15	  367.00
    122.8700	  686.00	  630.25	-1682.00	  367.34
    122.9700	  627.00	  630.55	-1741.30	  367.68
    123.0700	  664.00	  630.28	-1704.03	  368.03
    123.1700	  621.00	  629.47	-1746.22	  368.39
    123.2700	  665.00	  628.14	-1700.89	  368.75
    123.3700	  661.00	  626.35	-1703.10	  369.12
    123.4700	  612.00	  624.15	-1749.90	  369.50
    123.5700	  625.00	  621.60	-1734.35	  369.89
    123.6700	  641.00	  618.77	-1715.52	  370.28
    123.7700	  670.00	  615.73	-1683.48	  370.68
    123.8700	  599.00	  612.54	-1751.29	  371.09
    123.9700	  625.00	  609.27	-1722.02	  371.51
    124.0700	  606.00	  605.96	-1737.71	  371.93
    124.1700	  645.00	  602.68	-1695.43	  372.36
    124.2700	  594.00	  599.47	-1743.22	  372.80
    124.3700	  548.00	  596.37	-1786.12	  373.25
    124.4700	  659.00	  593.40	-1672.15	  373.71
    124.5700	  596.00	  590.60	-1732.35	  374.17
    124.6700	  580.00	  587.99	-1745.74	  374.64
    124.7700	  600.00	  585.58	-1723.33	  375.12
    124.8700	  596.00	  583.40	-1725.15	  375.60
    124.9700	  610.00	  495.31	-1623.06	  376.10
    125.0700	  527.00	  495.81	-1737.75	  376.60
    125.1700	  589.00	  496.32	-1737.75	  377.11
    125.2700	  587.00	  496.84	-1737.75	  377.63
    125.3700	  563.00	  497.37	-1737.75	  378.16
    125.4700	  564.00	  497.91	-1737.75	  378.70
    125.5700	  565.00	  498.45	-1737.75	  379.24
    125.6700	  555.00	  499.01	-1737.75	  379.80
    125.7700	  523.00	  499.57	-1737.75	  380.36
    125.8700	  560.00	  500.14	-1737.75	  380.93
    125.9700	  566.00	  500.72	-1737.75	  381.51
    126.0700	  591.00	  501.31	-1737.75	  382.10
    126.1700	  557.00	  501.90	-1737.75	  382.69
    126.2700	  585.00	  502.51	-1737.75	  383.30
    126.3700	  589.00	  503.13	-1737.75	  383.92
    126.4700	  614.00	  503.75	-1737.75	  384.54
    126.5700	  616.00	  504.38	-1737.75	  385.17
    126.6700	  657.00	  505.03	-1737.75	  385.82
    126.7700	  621.00	  505.68	-1737.75	  386.47
    126.8700	  578.00	  506.34	-1737.75	  387.13
    126.9700	  596.00	  507.01	-1737.75	  387.80
    127.0700	  639.00	  507.69	-1737.75	  388.48
    127.1700	  662.00	  508.38	-1737.75	  389.17
    127.2700	  676.00	  509.08	-1737.75	  389.87
    127.3700	  674.00	  509.79	-1737.75	  390.58
    127.4700	  653.00	  510.51	-1737.75	  391.30
    127.5700	  635.00	  511.23	-1737.75	  392.02
    127.6700	  686.00	  511.97	-1737.75	  392.76
    127.7700	  723.00	  512.72	-1737.75	  393.51
    127.8700	  727.00	  513.48	-1737.75	  394.27
    127.9700	  738.00	  514.25	-1737.75	  395.04
    128.0700	  783.00	  515.02	-1737.75	  395.82
    128.1700	  739.00	  515.81	-1737.75	  396.60
    128.2700	  796.00	  516.61	-1737.75	  397.40
    128.3700	  761.00	  517.42	-1737.75	  398.21
    128.4700	  801.00	  518.24	-1737.75	  399.03
    128.5700	    0.00	  519.07	-1737.75	  399.86
    128.6700	    0.00	  519.91	-1737.75	  400.70
     12.3054	        	        	        	        	       0	(  0  0  2)	  0  1
     24.8860	        	        	        	        	       0	(  0  0  4)	  0  1
     28.3312	        	        	        	        	       0	(  1  0  0)	  0  1
     29.0281	        	        	        	        	       0	(  1  0  1)	  0  1
     31.0337	        	        	        	        	       0	(  1  0  2)	  0  1
     34.1410	        	        	        	        	       0	(  1  0  3)	  0  1
     37.7823	        	        	        	        	       0	(  0  0  6)	  0  1
     38.1169	        	        	        	        	       0	(  1  0  4)	  0  1
     42.7656	        	        	        	        	       0	(  1  0  5)	  0  1
     47.9481	        	        	        	        	       0	(  1  0  6)	  0  1
     50.2667	        	        	        	        	       0	(  1  1  0)	  0  1
     51.2006	        	        	        	        	       0	(  0  0  8)	  0  1
     51.9891	        	        	        	        	       0	(  1  1  2)	  0  1
     53.5768	        	        	        	        	       0	(  1  0  7)	  0  1
     56.9352	        	        	        	        	       0	(  1  1  4)	  0  1
     58.7631	        	        	        	        	       0	(  2  0  0)	  0  1
     59.1545	        	        	        	        	       0	(  2  0  1)	  0  1
     59.6054	        	        	        	        	       0	(  1  0  8)	  0  1
     60.3195	        	        	        	        	       0	(  2  0  2)	  0  1
     62.2320	        	        	        	        	       0	(  2  0  3)	  0  1
     64.6272	        	        	        	        	       0	(  1  1  6)	  0  1
     64.8551	        	        	        	        	       0	(  2  0  4)	  0  1
     65.4254	        	        	        	        	       0	(  0  0 10)	  0  1
     66.0196	        	        	        	        	       0	(  1  0  9)	  0  1
     68.1481	        	        	        	        	       0	(  2  0  5)	  0  1
     72.0742	        	        	        	        	       0	(  2  0  6)	  0  1
     72.8333	        	        	        	        	       0	(  1  0 10)	  0  1
     74.6612	        	        	        	        	       0	(  1  1  8)	  0  1
     76.6065	        	        	        	        	       0	(  2  0  7)	  0  1
     80.0882	        	        	        	        	       0	(  1  0 11)	  0  1
     80.9002	        	        	        	        	       0	(  0  0 12)	  0  1
     81.0024	        	        	        	        	       0	(  2  1  0)	  0  1
     81.3421	        	        	        	        	       0	(  2  1  1)	  0  1
     81.7348	        	        	        	        	       0	(  2  0  8)	  0  1
     82.3596	        	        	        	        	       0	(  2  1  2)	  0  1
     84.0502	        	        	        	        	       0	(  2  1  3)	  0  1
     86.4089	        	        	        	        	       0	(  2  1  4)	  0  1
     86.9277	        	        	        	        	       0	(  1  1 10)	  0  1
     87.4704	        	        	        	        	       0	(  2  0  9)	  0  1
     87.8592	        	        	        	        	       0	(  1  0 12)	  0  1
     89.4334	        	        	        	        	       0	(  2  1  5)	  0  1
     93.1292	        	        	        	        	       0	(  2  1  6)	  0  1
     93.8550	        	        	        	        	       0	(  2  0 10)	  0  1
     94.8898	        	        	        	        	       0	(  3  0  0)	  0  1
     95.2270	        	        	        	        	       0	(  3  0  1)	  0  1
     96.2397	        	        	        	        	       0	(  3  0  2)	  0  1
     96.2685	        	        	        	        	       0	(  1  0 13)	  0  1
     97.5158	        	        	        	        	       0	(  2  1  7)	  0  1
     97.9323	        	        	        	        	       0	(  3  0  3)	  0  1
     98.4314	        	        	        	        	       0	(  0  0 14)	  0  1
    100.3142	        	        	        	        	       0	(  3  0  4)	  0  1
    100.9733	        	        	        	        	       0	(  2  0 11)	  0  1
    101.7909	        	        	        	        	       0	(  1  1 12)	  0  1
    102.6357	        	        	        	        	       0	(  2  1  8)	  0  1
    103.4043	        	        	        	        	       0	(  3  0  5)	  0  1
    105.5160	        	        	        	        	       0	(  1  0 14)	  0  1
    107.2375	        	        	        	        	       0	(  3  0  6)	  0  1
    108.5694	        	        	        	        	       0	(  2  1  9)	  0  1
    108.9801	        	        	        	        	       0	(  2  0 12)	  0  1
    111.8754	        	        	        	        	       0	(  3  0  7)	  0  1
    115.4622	        	        	        	        	       0	(  2  1 10)	  0  1
    115.9524	        	        	        	        	       0	(  1  0 15)	  0  1
    116.6116	        	        	        	        	       0	(  2  2  0)	  0  1
    117.4256	        	        	        	        	       0	(  3  0  8)	  0  1
    118.1260	        	        	        	        	       0	(  2  2  2)	  0  1
    118.1584	        	        	        	        	       0	(  2  0 13)	  0  1
    119.9053	        	        	        	        	       0	(  0  0 16)	  0  1
    120.6228	        	        	        	        	       0	(  1  1 14)	  0  1
    122.8088	        	        	        	        	       0	(  2  2  4)	  0  1
    123.5837	        	        	        	        	       0	(  2  1 11)	  0  1
    124.0812	        	        	        	        	       0	(  3  0  9)	  0  1
    124.6752	        	        	        	        	       0	(  3  1  0)	  0  1
    125.0852	        	        	        	        	       0	(  3  1  1)	  0  1
    126.3279	        	        	        	        	       0	(  3  1  2)	  0  1
    128.2850	        	        	        	        	       0	(  1  0 16)	  0  1
    128.4448	        	        	        	        	       0	(  3  1  3)	  0  1
    129.0793	        	        	        	        	       0	(  2  0 14)	  0  1
    131.2432	        	        	        	        	       0	(  2  2  6)	  0  1
    131.5187	        	        	        	        	       0	(  3  1  4)	  0  1
    132.2157	        	        	        	        	       0	(  3  0 10)	  0  1
    133.4877	        	        	        	        	       0	(  2  1 12)	  0  1
    135.7028	        	        	        	        	       0	(  3  1  5)	  0  1
    141.2936	        	        	        	        	       0	(  3  1  6)	  0  1
    142.6840	        	        	        	        	       0	(  3  0 11)	  0  1
    143.2027	        	        	        	        	       0	(  2  0 15)	  0  1
    144.4334	        	        	        	        	       0	(  1  0 17)	  0  1
    145.4647	        	        	        	        	       0	(  2  2  8)	  0  1
    146.6279	        	        	        	        	       0	(  2  1 13)	  0  1
    148.9588	        	        	        	        	       0	(  3  1  7)	  0  1
    149.5232	        	        	        	        	       0	(  1  1 16)	  0  1
    153.9054	        	        	        	        	       0	(  0  0 18)	  0  1
    158.5349	        	        	        	        	       0	(  3  0 12)	  0  1
    158.8141	        	        	        	        	       0	(  4  0  0)	  0  1
    159.7694	        	        	        	        	       0	(  4  0  1)	  0  1
    160.9318	        	        	        	        	       0	(  3  1  8)	  0  1
    162.9418	        	        	        	        	       0	(  4  0  2)	  0  1
    169.5379	        	        	        	        	       0	(  2  0 16)	  0  1
    170.2601	        	        	        	        	       0	(  4  0  3)	  0  1
    173.9031	        	        	        	        	       0	(  2  1 14)	  0  1
