MSG Master    CELL:    5.89269   5.89269  23.15770   90.0000   90.0000  120.0000   SPGR: P 63/m m c             TEMP:    683.95
  2   1280     2.52000     0.00000    -0.10589     0.00000     0.00000    0
    96    96     0     0     2
       0.00000      10.00000
     125.00000     130.00000
 2Theta	Yobs	Ycal	Yobs-Ycal	Backg	Posr	(hkl)	K
      0.7700	    0.00	  690.22	-1832.84	  570.32
      0.8700	    0.00	  689.96	-1832.84	  570.06
      0.9700	   42.00	  689.69	-1832.84	  569.79
      1.0700	   39.00	  689.42	-1832.84	  569.52
      1.1700	   52.00	  689.15	-1832.84	  569.25
      1.2700	   43.00	  688.87	-1832.84	  568.97
      1.3700	   49.00	  688.59	-1832.84	  568.69
      1.4700	   97.00	  688.31	-1832.84	  568.40
      1.5700	  299.00	  688.02	-1832.84	  568.11
      1.6700	  415.00	  687.73	-1832.84	  567.82
      1.7700	  603.00	  687.43	-1832.84	  567.53
      1.8700	  673.00	  687.13	-1832.84	  567.23
      1.9700	  716.00	  686.83	-1832.84	  566.92
      2.0700	  759.00	  686.52	-1832.84	  566.62
      2.1700	  778.00	  686.21	-1832.84	  566.31
      2.2700	  827.00	  685.90	-1832.84	  565.99
      2.3700	  734.00	  685.58	-1832.84	  565.68
      2.4700	  736.00	  685.26	-1832.84	  565.36
      2.5700	  709.00	  684.94	-1832.84	  565.03
      2.6700	  684.00	  684.61	-1832.84	  564.71
      2.7700	  628.00	  684.28	-1832.84	  564.38
      2.8700	  660.00	  683.95	-1832.84	  564.04
      2.9700	  690.00	  683.61	-1832.84	  563.71
      3.0700	  595.00	  683.27	-1832.84	  563.37
      3.1700	  617.00	  682.93	-1832.84	  563.02
      3.2700	  759.00	  682.58	-1832.84	  562.68
      3.3700	  882.00	  682.23	-1832.84	  562.33
      3.4700	 1065.00	  681.88	-1832.84	  561.98
      3.5700	 1107.00	  681.53	-1832.84	  561.62
      3.6700	 1239.00	  681.17	-1832.84	  561.26
      3.7700	 1306.00	  680.81	-1832.84	  560.90
      3.8700	 1413.00	  680.44	-1832.84	  560.54
      3.9700	 1444.00	  680.08	-1832.84	  560.17
      4.0700	 1530.00	  679.71	-1832.84	  559.81
      4.1700	 1543.00	  679.34	-1832.84	  559.43
      4.2700	 1612.00	  678.96	-1832.84	  559.06
      4.3700	 1614.00	  678.59	-1832.84	  558.68
      4.4700	 1461.00	  678.21	-1832.84	  558.30
      4.5700	 1413.00	  677.82	-1832.84	  557.92
      4.6700	 1381.00	  677.44	-1832.84	  557.53
      4.7700	 1401.00	  677.05	-1832.84	  557.15
      4.8700	 1351.00	  676.66	-1832.84	  556.76
      4.9700	 1246.00	  676.27	-1832.84	  556.36
      5.0700	 1274.00	  675.87	-1832.84	  555.97
      5.1700	 1194.00	  675.48	-1832.84	  555.57
      5.2700	 1151.00	  675.08	-1832.84	  555.17
      5.3700	 1173.00	  674.67	-1832.84	  554.77
      5.4700	 1148.00	  674.27	-1832.84	  554.37
      5.5700	 1120.00	  673.86	-1832.84	  553.96
      5.6700	 1140.00	  673.45	-1832.84	  553.55
      5.7700	 1073.00	  673.04	-1832.84	  553.14
      5.8700	 1044.00	  672.63	-1832.84	  552.73
      5.9700	  998.00	  672.21	-1832.84	  552.31
      6.0700	 1022.00	  671.80	-1832.84	  551.89
      6.1700	  984.00	  671.38	-1832.84	  551.47
      6.2700	  975.00	  670.96	-1832.84	  551.05
      6.3700	  942.00	  670.53	-1832.84	  550.63
      6.4700	  931.00	  670.11	-1832.84	  550.20
      6.5700	  914.00	  669.68	-1832.84	  549.77
      6.6700	  906.00	  669.25	-1832.84	  549.34
      6.7700	  904.00	  668.82	-1832.84	  548.91
      6.8700	  830.00	  668.38	-1832.84	  548.48
      6.9700	  894.00	  667.95	-1832.84	  548.04
      7.0700	  839.00	  667.51	-1832.84	  547.61
      7.1700	  815.00	  667.07	-1832.84	  547.17
      7.2700	  826.00	  666.63	-1832.84	  546.73
      7.3700	  814.00	  666.19	-1832.84	  546.29
      7.4700	  729.00	  665.75	-1832.84	  545.84
      7.5700	  769.00	  665.30	-1832.84	  545.40
      7.6700	  777.00	  664.85	-1832.84	  544.95
      7.7700	  778.00	  664.40	-1832.84	  544.50
      7.8700	  746.00	  663.95	-1832.84	  544.05
      7.9700	  741.00	  663.50	-1832.84	  543.60
      8.0700	  746.00	  663.05	-1832.84	  543.14
      8.1700	  749.00	  662.59	-1832.84	  542.69
      8.2700	  755.00	  662.14	-1832.84	  542.23
      8.3700	  692.00	  661.68	-1832.84	  541.77
      8.4700	  745.00	  661.22	-1832.84	  541.31
      8.5700	  733.00	  660.76	-1832.84	  540.85
      8.6700	  656.00	  660.30	-1832.84	  540.39
      8.7700	  735.00	  659.83	-1832.84	  539.93
      8.8700	  673.00	  659.37	-1832.84	  539.46
      8.9700	  740.00	  658.90	-1832.84	  539.00
      9.0700	  700.00	  658.44	-1832.84	  538.53
      9.1700	  728.00	  657.97	-1832.84	  538.06
      9.2700	  686.00	  657.50	-1832.84	  537.59
      9.3700	  695.00	  657.03	-1832.84	  537.12
      9.4700	  718.00	  656.55	-1832.84	  536.65
      9.5700	  722.00	  656.08	-1832.84	  536.18
      9.6700	  667.00	  655.61	-1832.84	  535.70
      9.7700	  681.00	  655.13	-1832.84	  535.23
      9.8700	  654.00	  654.66	-1832.84	  534.75
      9.9700	  622.00	  654.18	-1832.84	  534.28
     10.0700	  685.00	  655.77	-1803.61	  533.80
     10.1700	  729.00	  655.53	-1759.37	  533.32
     10.2700	  654.00	  655.33	-1834.17	  532.84
     10.3700	  703.00	  655.20	-1785.04	  532.36
     10.4700	  614.00	  655.17	-1874.01	  531.88
     10.5700	  669.00	  655.29	-1819.13	  531.39
     10.6700	  635.00	  655.64	-1853.48	  530.91
     10.7700	  686.00	  656.31	-1803.15	  530.43
     10.8700	  671.00	  657.40	-1819.24	  529.94
     10.9700	  693.00	  658.99	-1798.83	  529.45
     11.0700	  682.00	  661.11	-1811.95	  528.97
     11.1700	  680.00	  663.75	-1816.59	  528.48
     11.2700	  697.00	  666.95	-1802.79	  527.99
     11.3700	  663.00	  670.78	-1840.62	  527.51
     11.4700	  720.00	  675.37	-1788.21	  527.02
     11.5700	  708.00	  680.89	-1805.73	  526.53
     11.6700	  680.00	  687.65	-1840.49	  526.04
     11.7700	  695.00	  696.00	-1833.84	  525.55
     11.8700	  714.00	  706.26	-1825.10	  525.05
     11.9700	  810.00	  718.37	-1741.21	  524.56
     12.0700	  806.00	  731.29	-1758.13	  524.07
     12.1700	  780.00	  742.32	-1795.16	  523.58
     12.2700	  828.00	  746.63	-1751.47	  523.08
     12.3700	  762.00	  739.00	-1809.84	  522.59
     12.4700	  762.00	  720.12	-1790.96	  522.10
     12.5700	  699.00	  698.10	-1831.94	  521.60
     12.6700	  643.00	  679.58	-1869.42	  521.11
     12.7700	  644.00	  666.35	-1855.19	  520.61
     12.8700	  631.00	  657.71	-1859.55	  520.12
     12.9700	  626.00	  652.24	-1859.08	  519.62
     13.0700	  620.00	  648.70	-1861.54	  519.12
     13.1700	  614.00	  646.27	-1865.11	  518.63
     13.2700	  587.00	  644.41	-1890.25	  518.13
     13.3700	  640.00	  642.91	-1835.75	  517.63
     13.4700	  588.00	  641.63	-1886.47	  517.14
     13.5700	  636.00	  640.52	-1837.36	  516.64
     13.6700	  595.00	  639.52	-1877.36	  516.14
     13.7700	  646.00	  638.62	-1825.46	  515.65
     13.8700	  641.00	  637.79	-1829.63	  515.15
     13.9700	  630.00	  637.01	-1839.85	  514.65
     14.0700	  666.00	  636.27	-1803.11	  514.15
     14.1700	  633.00	  635.57	-1835.41	  513.66
     14.2700	  629.00	  634.90	-1838.74	  513.16
     14.3700	  598.00	  634.25	-1869.09	  512.66
     14.4700	  618.00	  633.62	-1848.46	  512.16
     14.5700	  593.00	  633.01	-1872.85	  511.67
     14.6700	  592.00	  632.41	-1873.25	  511.17
     14.7700	  645.00	  631.83	-1819.67	  510.67
     14.8700	  624.00	  631.25	-1840.09	  510.17
     14.9700	  658.00	  630.68	-1805.52	  509.68
     15.0700	  626.00	  630.12	-1836.96	  509.18
     15.1700	  558.00	  629.56	-1904.40	  508.68
     15.2700	  607.00	  629.01	-1854.85	  508.19
     15.3700	  659.00	  628.47	-1802.31	  507.69
     15.4700	  581.00	  627.93	-1879.77	  507.19
     15.5700	  649.00	  627.40	-1811.24	  506.70
     15.6700	  623.00	  626.87	-1836.71	  506.20
     15.7700	  612.00	  626.34	-1847.18	  505.71
     15.8700	  626.00	  625.81	-1832.65	  505.21
     15.9700	  613.00	  625.29	-1845.13	  504.71
     16.0700	  636.00	  624.77	-1821.61	  504.22
     16.1700	  604.00	  624.25	-1853.09	  503.73
     16.2700	  594.00	  623.74	-1862.58	  503.23
     16.3700	  599.00	  623.22	-1857.06	  502.74
     16.4700	  645.00	  622.71	-1810.55	  502.24
     16.5700	  631.00	  622.20	-1824.04	  501.75
     16.6700	  606.00	  621.70	-1848.54	  501.26
     16.7700	  588.00	  621.19	-1866.03	  500.77
     16.8700	  587.00	  620.68	-1866.52	  500.28
     16.9700	  545.00	  620.18	-1908.02	  499.79
     17.0700	  630.00	  619.68	-1822.52	  499.29
     17.1700	  673.00	  619.18	-1779.02	  498.80
     17.2700	  614.00	  618.68	-1837.52	  498.32
     17.3700	  566.00	  618.18	-1885.02	  497.83
     17.4700	  551.00	  617.68	-1899.52	  497.34
     17.5700	  584.00	  617.19	-1866.03	  496.85
     17.6700	  652.00	  616.69	-1797.53	  496.36
     17.7700	  617.00	  616.20	-1832.04	  495.88
     17.8700	  607.00	  615.71	-1841.55	  495.39
     17.9700	  611.00	  615.22	-1837.06	  494.90
     18.0700	  603.00	  615.56	-1845.40	  494.42
     18.1700	  620.00	  615.09	-1827.93	  493.94
     18.2700	  559.00	  614.62	-1888.46	  493.45
     18.3700	  610.00	  614.68	-1837.52	  492.97
     18.4700	  613.00	  614.22	-1834.06	  492.49
     18.5700	  600.00	  613.77	-1846.61	  492.01
     18.6700	  611.00	  613.31	-1835.15	  491.53
     18.7700	  641.00	  612.86	-1804.70	  491.05
     18.8700	  601.00	  612.41	-1844.25	  490.57
     18.9700	  596.00	  611.97	-1848.81	  490.09
     19.0700	  591.00	  611.52	-1853.36	  489.61
     19.1700	  577.00	  611.08	-1866.92	  489.13
     19.2700	  609.00	  610.64	-1834.48	  488.66
     19.3700	  528.00	  610.20	-1915.04	  488.18
     19.4700	  581.00	  609.77	-1861.61	  487.71
     19.5700	  592.00	  609.34	-1850.18	  487.24
     19.6700	  630.00	  608.91	-1811.75	  486.76
     19.7700	  641.00	  608.54	-1800.38	  486.29
     19.8700	  577.00	  608.11	-1863.96	  485.82
     19.9700	  603.00	  607.69	-1837.53	  485.35
     20.0700	  580.00	  607.28	-1860.12	  484.88
     20.1700	  633.00	  606.86	-1806.70	  484.41
     20.2700	  652.00	  606.45	-1787.29	  483.95
     20.3700	  620.00	  606.05	-1818.89	  483.48
     20.4700	  592.00	  605.64	-1846.48	  483.02
     20.5700	  613.00	  605.24	-1825.08	  482.55
     20.6700	  598.00	  604.85	-1839.69	  482.09
     20.7700	  600.00	  604.46	-1837.30	  481.63
     20.8700	  610.00	  604.07	-1826.91	  481.17
     20.9700	  608.00	  603.68	-1828.52	  480.71
     21.0700	  555.00	  603.31	-1881.15	  480.25
     21.1700	  598.00	  602.93	-1837.77	  479.79
     21.2700	  619.00	  602.57	-1816.41	  479.33
     21.3700	  617.00	  602.20	-1818.04	  478.88
     21.4700	  618.00	  601.85	-1816.69	  478.42
     21.5700	  599.00	  601.50	-1835.34	  477.97
     21.6700	  608.00	  601.16	-1826.00	  477.52
     21.7700	  627.00	  600.82	-1806.66	  477.07
     21.8700	  581.00	  600.49	-1852.33	  476.62
     21.9700	  566.00	  600.17	-1867.01	  476.17
     22.0700	  618.00	  599.86	-1814.70	  475.72
     22.1700	  652.00	  599.73	-1780.57	  475.27
     22.2700	  623.00	  599.44	-1809.28	  474.83
     22.3700	  592.00	  599.17	-1840.01	  474.38
     22.4700	  575.00	  598.91	-1856.75	  473.94
     22.5700	  598.00	  598.66	-1833.50	  473.50
     22.6700	  603.00	  598.43	-1828.27	  473.06
     22.7700	  598.00	  598.21	-1833.05	  472.62
     22.8700	  603.00	  598.02	-1827.86	  472.18
     22.9700	  596.00	  597.85	-1834.69	  471.74
     23.0700	  589.00	  597.71	-1841.55	  471.31
     23.1700	  619.00	  597.60	-1811.44	  470.87
     23.2700	  576.00	  597.52	-1854.36	  470.44
     23.3700	  587.00	  597.50	-1843.34	  470.01
     23.4700	  621.00	  597.53	-1809.37	  469.58
     23.5700	  614.00	  597.62	-1816.46	  469.15
     23.6700	  645.00	  597.81	-1785.65	  468.72
     23.7700	  575.00	  598.13	-1855.97	  468.29
     23.8700	  572.00	  598.58	-1859.42	  467.87
     23.9700	  655.00	  599.37	-1777.21	  467.44
     24.0700	  614.00	  600.61	-1819.45	  467.02
     24.1700	  617.00	  602.58	-1818.42	  466.60
     24.2700	  645.00	  605.65	-1793.49	  466.18
     24.3700	  604.00	  610.31	-1839.15	  465.76
     24.4700	  642.00	  616.96	-1807.80	  465.35
     24.5700	  624.00	  625.74	-1834.58	  464.93
     24.6700	  655.00	  636.24	-1814.08	  464.52
     24.7700	  708.00	  647.11	-1771.95	  464.10
     24.8700	  776.00	  655.63	-1712.47	  463.69
     24.9700	  738.00	  657.92	-1752.76	  463.28
     25.0700	  641.00	  651.58	-1843.42	  462.87
     25.1700	  648.00	  639.56	-1824.40	  462.47
     25.2700	  656.00	  627.24	-1804.08	  462.06
     25.3700	  619.00	  617.61	-1831.45	  461.66
     25.4700	  651.00	  611.15	-1792.99	  461.25
     25.5700	  666.00	  607.33	-1774.17	  460.85
     25.6700	  600.00	  605.36	-1838.20	  460.45
     25.7700	  681.00	  604.57	-1756.41	  460.06
     25.8700	  639.00	  604.51	-1798.35	  459.66
     25.9700	  651.00	  604.94	-1786.78	  459.26
     26.0700	  620.00	  605.77	-1818.61	  458.87
     26.1700	  642.00	  606.96	-1797.80	  458.48
     26.2700	  616.00	  608.51	-1825.35	  458.09
     26.3700	  601.00	  610.46	-1842.30	  457.70
     26.4700	  603.00	  612.84	-1842.68	  457.31
     26.5700	  617.00	  615.75	-1831.59	  456.92
     26.6700	  652.00	  619.27	-1800.11	  456.54
     26.7700	  583.00	  623.53	-1873.37	  456.16
     26.8700	  654.00	  628.73	-1807.57	  455.77
     26.9700	  689.00	  635.10	-1778.94	  455.39
     27.0700	  623.00	  643.00	-1852.84	  455.02
     27.1700	  641.00	  652.93	-1844.77	  454.64
     27.2700	  726.00	  665.71	-1772.55	  454.26
     27.3700	  653.00	  682.79	-1862.63	  453.89
     27.4700	  727.00	  707.02	-1812.86	  453.52
     27.5700	  764.00	  744.09	-1812.93	  453.15
     27.6700	  760.00	  804.69	-1877.53	  452.78
     27.7700	  789.00	  906.93	-1950.77	  452.41
     27.8700	  897.00	 1077.10	-2012.94	  452.05
     27.9700	 1034.00	 1344.12	-2142.96	  451.68
     28.0700	 1462.00	 1723.82	-2094.66	  451.32
     28.1700	 2150.00	 2194.93	-1877.77	  450.96
     28.2700	 2868.00	 2672.52	-1637.36	  450.60
     28.3700	 3448.00	 2995.65	-1380.49	  450.24
     28.4700	 3466.00	 2984.92	-1351.76	  449.89
     28.5700	 2839.00	 2652.25	-1646.09	  449.53
     28.6700	 2094.00	 2259.66	-1998.50	  449.18
     28.7700	 1721.00	 2021.90	-2133.74	  448.83
     28.8700	 1781.00	 1984.34	-2036.18	  448.48
     28.9700	 2149.00	 2072.95	-1756.79	  448.13
     29.0700	 2283.00	 2145.70	-1695.54	  447.79
     29.1700	 2125.00	 2056.94	-1764.78	  447.44
     29.2700	 1905.00	 1780.19	-1708.03	  447.10
     29.3700	 1429.00	 1439.25	-1843.09	  446.76
     29.4700	 1098.00	 1148.38	-1883.22	  446.42
     29.5700	  902.00	  944.70	-1875.54	  446.08
     29.6700	  896.00	  819.25	-1756.09	  445.74
     29.7700	  800.00	  747.32	-1780.16	  445.41
     29.8700	  777.00	  706.00	-1761.84	  445.08
     29.9700	  706.00	  680.52	-1807.36	  444.75
     30.0700	  723.00	  663.37	-1773.21	  444.42
     30.1700	  772.00	  651.25	-1712.09	  444.09
     30.2700	  685.00	  642.88	-1790.72	  443.76
     30.3700	  667.00	  638.06	-1803.90	  443.44
     30.4700	  691.00	  637.37	-1779.21	  443.12
     30.5700	  649.00	  642.05	-1825.89	  442.80
     30.6700	  690.00	  653.69	-1796.53	  442.48
     30.7700	  689.00	  673.11	-1816.95	  442.16
     30.8700	  646.00	  698.83	-1885.67	  441.84
     30.9700	  740.00	  725.68	-1818.52	  441.53
     31.0700	  731.00	  744.15	-1845.99	  441.22
     31.1700	  783.00	  742.82	-1792.66	  440.91
     31.2700	  719.00	  718.54	-1832.38	  440.60
     31.3700	  687.00	  683.01	-1828.85	  440.29
     31.4700	  637.00	  649.70	-1845.54	  439.99
     31.5700	  637.00	  624.49	-1820.33	  439.68
     31.6700	  637.00	  607.74	-1803.58	  439.38
     31.7700	  663.00	  597.46	-1767.30	  439.08
     31.8700	  628.00	  591.28	-1796.12	  438.78
     31.9700	  586.00	  587.39	-1834.23	  438.49
     32.0700	  607.00	  584.74	-1810.58	  438.19
     32.1700	  607.00	  582.82	-1808.66	  437.90
     32.2700	  594.00	  581.38	-1820.22	  437.61
     32.3700	  611.00	  580.33	-1802.17	  437.32
     32.4700	  588.00	  579.60	-1824.44	  437.03
     32.5700	  608.00	  579.18	-1804.02	  436.74
     32.6700	  599.00	  579.08	-1812.92	  436.46
     32.7700	  603.00	  579.31	-1809.15	  436.18
     32.8700	  602.00	  579.92	-1810.76	  435.90
     32.9700	  643.00	  581.01	-1770.85	  435.62
     33.0700	  582.00	  582.67	-1833.51	  435.34
     33.1700	  603.00	  585.14	-1814.98	  435.06
     33.2700	  579.00	  588.87	-1842.71	  434.79
     33.3700	  641.00	  594.71	-1786.55	  434.52
     33.4700	  619.00	  604.29	-1818.13	  434.25
     33.5700	  645.00	  620.44	-1808.28	  433.98
     33.6700	  581.00	  647.43	-1899.27	  433.71
     33.7700	  702.00	  690.37	-1821.21	  433.45
     33.8700	  740.00	  752.93	-1845.77	  433.18
     33.9700	  868.00	  833.39	-1798.23	  432.92
     34.0700	  981.00	  920.22	-1772.06	  432.66
     34.1700	 1075.00	  990.10	-1747.94	  432.40
     34.2700	 1091.00	 1012.09	-1753.93	  432.15
     34.3700	 1052.00	  969.20	-1750.04	  431.89
     34.4700	  873.00	  882.32	-1842.16	  431.64
     34.5700	  796.00	  789.12	-1825.96	  431.39
     34.6700	  673.00	  712.22	-1872.06	  431.14
     34.7700	  632.00	  657.68	-1858.52	  430.89
     34.8700	  628.00	  622.83	-1827.67	  430.65
     34.9700	  564.00	  601.93	-1870.77	  430.40
     35.0700	  564.00	  589.52	-1858.36	  430.16
     35.1700	  593.00	  581.75	-1821.59	  429.92
     35.2700	  601.00	  576.46	-1808.30	  429.68
     35.3700	  550.00	  572.55	-1855.39	  429.44
     35.4700	  545.00	  569.50	-1857.34	  429.21
     35.5700	  552.00	  567.05	-1847.89	  428.97
     35.6700	  577.00	  565.03	-1820.87	  428.74
     35.7700	  565.00	  563.34	-1831.18	  428.51
     35.8700	  527.00	  561.92	-1867.76	  428.28
     35.9700	  584.00	  560.71	-1809.55	  428.06
     36.0700	  574.00	  559.67	-1818.51	  427.83
     36.1700	  578.00	  559.28	-1814.12	  427.61
     36.2700	  578.00	  558.52	-1813.36	  427.39
     36.3700	  519.00	  557.88	-1871.72	  427.17
     36.4700	  556.00	  557.34	-1834.18	  426.95
     36.5700	  601.00	  556.90	-1788.74	  426.73
     36.6700	  563.00	  556.56	-1826.40	  426.52
     36.7700	  553.00	  556.34	-1836.18	  426.31
     36.8700	  571.00	  556.24	-1818.08	  426.09
     36.9700	  579.00	  556.27	-1810.11	  425.89
     37.0700	  539.00	  556.56	-1850.40	  425.68
     37.1700	  581.00	  557.37	-1809.21	  425.47
     37.2700	  548.00	  558.50	-1843.34	  425.27
     37.3700	  550.00	  560.44	-1843.28	  425.06
     37.4700	  566.00	  563.61	-1830.45	  424.86
     37.5700	  549.00	  568.54	-1852.38	  424.66
     37.6700	  573.00	  575.82	-1835.66	  424.47
     37.7700	  568.00	  585.82	-1850.66	  424.27
     37.8700	  561.00	  598.31	-1870.16	  424.08
     37.9700	  580.00	  612.15	-1864.99	  423.88
     38.0700	  638.00	  625.16	-1820.00	  423.69
     38.1700	  633.00	  634.26	-1834.10	  423.51
     38.2700	  613.00	  635.47	-1855.31	  423.32
     38.3700	  603.00	  626.67	-1856.52	  423.13
     38.4700	  603.00	  610.97	-1840.81	  422.95
     38.5700	  588.00	  594.02	-1838.86	  422.77
     38.6700	  557.00	  579.53	-1855.37	  422.59
     38.7700	  538.00	  568.71	-1863.55	  422.41
     38.8700	  558.00	  561.43	-1836.27	  422.23
     38.9700	  499.00	  555.97	-1889.81	  422.05
     39.0700	  547.00	  553.06	-1838.90	  421.88
     39.1700	  543.00	  551.19	-1841.03	  421.71
     39.2700	  556.00	  549.91	-1826.75	  421.54
     39.3700	  572.00	  548.95	-1809.79	  421.37
     39.4700	  583.00	  548.19	-1798.03	  421.20
     39.5700	  553.00	  547.57	-1827.41	  421.04
     39.6700	  551.00	  547.05	-1828.89	  420.87
     39.7700	  544.00	  546.60	-1835.44	  420.71
     39.8700	  545.00	  546.21	-1834.05	  420.55
     39.9700	  575.00	  545.88	-1803.72	  420.39
     40.0700	  578.00	  545.59	-1800.43	  420.23
     40.1700	  539.00	  544.84	-1838.68	  420.08
     40.2700	  498.00	  544.62	-1879.46	  419.92
     40.3700	  550.00	  544.98	-1827.82	  419.77
     40.4700	  555.00	  544.83	-1822.67	  419.62
     40.5700	  506.00	  544.71	-1871.55	  419.47
     40.6700	  549.00	  544.62	-1828.46	  419.32
     40.7700	  537.00	  544.56	-1840.40	  419.17
     40.8700	  540.00	  544.53	-1837.37	  419.03
     40.9700	  530.00	  544.54	-1847.38	  418.89
     41.0700	  549.00	  544.58	-1828.42	  418.74
     41.1700	  527.00	  544.66	-1850.50	  418.60
     41.2700	  551.00	  544.80	-1826.64	  418.47
     41.3700	  495.00	  545.00	-1882.84	  418.33
     41.4700	  477.00	  545.27	-1901.11	  418.19
     41.5700	  528.00	  545.69	-1850.53	  418.06
     41.6700	  538.00	  546.18	-1841.02	  417.93
     41.7700	  527.00	  546.85	-1852.69	  417.80
     41.8700	  549.00	  547.78	-1831.62	  417.67
     41.9700	  551.00	  549.15	-1830.99	  417.54
     42.0700	  546.00	  551.29	-1838.13	  417.42
     42.1700	  626.00	  554.73	-1761.57	  417.29
     42.2700	  513.00	  560.30	-1880.14	  417.17
     42.3700	  527.00	  569.02	-1874.86	  417.05
     42.4700	  558.00	  581.89	-1856.73	  416.93
     42.5700	  594.00	  599.20	-1838.04	  416.81
     42.6700	  571.00	  619.83	-1881.67	  416.69
     42.7700	  662.00	  640.59	-1811.43	  416.58
     42.8700	  630.00	  655.93	-1858.77	  416.46
     42.9700	  623.00	  659.49	-1869.33	  416.35
     43.0700	  637.00	  649.09	-1844.93	  416.24
     43.1700	  630.00	  629.45	-1832.29	  416.13
     43.2700	  572.00	  607.85	-1868.69	  416.02
     43.3700	  552.00	  588.52	-1869.36	  415.92
     43.4700	  571.00	  573.56	-1835.40	  415.81
     43.5700	  562.00	  563.05	-1833.89	  415.71
     43.6700	  497.00	  556.19	-1892.03	  415.61
     43.7700	  565.00	  551.92	-1819.76	  415.51
     43.8700	  563.00	  549.26	-1819.10	  415.41
     43.9700	  529.00	  547.57	-1851.41	  415.31
     44.0700	  494.00	  546.41	-1885.25	  415.21
     44.1700	  609.00	  545.57	-1769.41	  415.12
     44.2700	  556.00	  544.93	-1821.77	  415.03
     44.3700	  545.00	  544.43	-1832.28	  414.93
     44.4700	  531.00	  544.26	-1846.10	  414.84
     44.5700	  569.00	  543.95	-1807.79	  414.75
     44.6700	  558.00	  543.72	-1818.56	  414.67
     44.7700	  599.00	  543.55	-1777.39	  414.58
     44.8700	  560.00	  543.42	-1816.26	  414.50
     44.9700	  573.00	  543.34	-1803.18	  414.41
     45.0700	  552.00	  543.30	-1824.14	  414.33
     45.1700	  552.00	  543.29	-1824.13	  414.25
     45.2700	  620.00	  543.32	-1756.16	  414.17
     45.3700	  530.00	  543.40	-1846.24	  414.09
     45.4700	  599.00	  543.49	-1777.33	  414.01
     45.5700	  507.00	  543.69	-1869.53	  413.94
     45.6700	  540.00	  543.85	-1836.69	  413.86
     45.7700	  554.00	  544.04	-1822.88	  413.79
     45.8700	  552.00	  544.26	-1825.10	  413.72
     45.9700	  527.00	  544.52	-1850.36	  413.65
     46.0700	  528.00	  544.82	-1849.66	  413.58
     46.1700	  533.00	  545.23	-1845.07	  413.51
     46.2700	  601.00	  545.63	-1777.47	  413.45
     46.3700	  547.00	  546.07	-1831.91	  413.38
     46.4700	  562.00	  546.59	-1817.43	  413.32
     46.5700	  545.00	  547.01	-1834.85	  413.26
     46.6700	  564.00	  547.69	-1816.53	  413.20
     46.7700	  524.00	  548.48	-1857.32	  413.14
     46.8700	  571.00	  549.41	-1811.25	  413.08
     46.9700	  565.00	  550.53	-1818.37	  413.02
     47.0700	  568.00	  551.94	-1816.78	  412.96
     47.1700	  525.00	  553.79	-1861.63	  412.91
     47.2700	  574.00	  556.39	-1815.23	  412.85
     47.3700	  561.00	  560.17	-1832.01	  412.80
     47.4700	  590.00	  565.75	-1808.59	  412.75
     47.5700	  567.00	  573.84	-1839.68	  412.70
     47.6700	  576.00	  585.03	-1841.87	  412.65
     47.7700	  570.00	  599.46	-1862.30	  412.60
     47.8700	  612.00	  616.38	-1837.22	  412.56
     47.9700	  561.00	  633.72	-1905.56	  412.51
     48.0700	  639.00	  647.75	-1841.59	  412.47
     48.1700	  658.00	  654.10	-1828.94	  412.43
     48.2700	  642.00	  651.01	-1841.85	  412.38
     48.3700	  638.00	  639.89	-1834.73	  412.34
     48.4700	  576.00	  625.84	-1882.68	  412.30
     48.5700	  578.00	  612.69	-1867.53	  412.27
     48.6700	  561.00	  602.51	-1874.35	  412.23
     48.7700	  573.00	  596.04	-1855.88	  412.19
     48.8700	  556.00	  593.21	-1870.05	  412.16
     48.9700	  546.00	  593.57	-1880.41	  412.12
     49.0700	  535.00	  596.63	-1894.47	  412.09
     49.1700	  586.00	  602.14	-1848.98	  412.06
     49.2700	  621.00	  610.29	-1822.13	  412.03
     49.3700	  560.00	  621.99	-1894.83	  412.00
     49.4700	  612.00	  639.53	-1860.37	  411.97
     49.5700	  644.00	  667.57	-1856.41	  411.94
     49.6700	  684.00	  714.63	-1863.47	  411.92
     49.7700	  783.00	  794.18	-1844.02	  411.89
     49.8700	  930.00	  923.82	-1826.66	  411.87
     49.9700	 1068.00	 1121.15	-1885.99	  411.84
     50.0700	 1461.00	 1394.98	-1766.82	  411.82
     50.1700	 1769.00	 1734.04	-1797.88	  411.80
     50.2700	 2134.00	 2095.55	-1794.39	  411.78
     50.3700	 2462.00	 2399.22	-1770.06	  411.76
     50.4700	 2661.00	 2543.30	-1715.14	  411.74
     50.5700	 2569.00	 2463.91	-1727.75	  411.72
     50.6700	 2170.00	 2196.35	-1859.19	  411.71
     50.7700	 1813.00	 1842.38	-1862.22	  411.69
     50.8700	 1455.00	 1495.15	-1872.99	  411.68
     50.9700	 1074.00	 1207.80	-1966.64	  411.66
     51.0700	  892.00	  998.76	-1939.60	  411.65
     51.1700	  816.00	  862.55	-1879.39	  411.64
     51.2700	  705.00	  781.40	-1909.24	  411.63
     51.3700	  719.00	  734.89	-1848.73	  411.62
     51.4700	  711.00	  706.01	-1827.85	  411.61
     51.5700	  656.00	  684.29	-1861.13	  411.60
     51.6700	  636.00	  665.43	-1862.27	  411.59
     51.7700	  650.00	  648.84	-1831.68	  411.59
     51.8700	  642.00	  634.93	-1825.77	  411.58
     51.9700	  622.00	  623.93	-1834.77	  411.58
     52.0700	  613.00	  615.76	-1835.60	  411.57
     52.1700	  614.00	  609.97	-1828.81	  411.57
     52.2700	  662.00	  606.06	-1776.90	  411.57
     52.3700	  610.00	  603.68	-1826.52	  411.57
     52.4700	  610.00	  602.79	-1825.63	  411.57
     52.5700	  632.00	  603.59	-1804.43	  411.57
     52.6700	  574.00	  606.56	-1865.40	  411.57
     52.7700	  604.00	  612.62	-1841.46	  411.57
     52.8700	  643.00	  623.31	-1813.15	  411.58
     52.9700	  651.00	  640.99	-1822.83	  411.58
     53.0700	  675.00	  668.84	-1826.68	  411.58
     53.1700	  751.00	  710.53	-1792.37	  411.59
     53.2700	  759.00	  769.26	-1843.10	  411.59
     53.3700	  882.00	  846.39	-1797.24	  411.60
     53.4700	  961.00	  939.71	-1811.55	  411.61
     53.5700	 1030.00	 1041.13	-1843.97	  411.62
     53.6700	 1184.00	 1135.15	-1783.99	  411.63
     53.7700	 1211.00	 1198.97	-1820.81	  411.64
     53.8700	 1351.00	 1211.05	-1692.89	  411.65
     53.9700	 1227.00	 1166.42	-1772.26	  411.66
     54.0700	 1050.00	 1081.57	-1864.41	  411.67
     54.1700	  987.00	  980.91	-1826.75	  411.68
     54.2700	  900.00	  883.55	-1816.39	  411.69
     54.3700	  776.00	  800.19	-1857.03	  411.71
     54.4700	  745.00	  734.97	-1822.81	  411.72
     54.5700	  670.00	  687.70	-1850.54	  411.74
     54.6700	  656.00	  655.62	-1832.46	  411.75
     54.7700	  629.00	  635.07	-1838.91	  411.77
     54.8700	  645.00	  622.54	-1810.38	  411.79
     54.9700	  631.00	  615.28	-1817.12	  411.80
     55.0700	  696.00	  611.40	-1748.24	  411.82
     55.1700	  597.00	  609.77	-1845.61	  411.84
     55.2700	  660.00	  609.78	-1782.62	  411.86
     55.3700	  580.00	  611.12	-1863.96	  411.88
     55.4700	  616.00	  613.72	-1830.56	  411.90
     55.5700	  635.00	  617.60	-1815.44	  411.92
     55.6700	  649.00	  622.94	-1806.78	  411.94
     55.7700	  636.00	  630.08	-1826.92	  411.97
     55.8700	  699.00	  639.67	-1773.51	  411.99
     55.9700	  674.00	  652.95	-1811.79	  412.01
     56.0700	  632.00	  672.19	-1873.03	  412.04
     56.1700	  689.00	  701.37	-1845.21	  412.06
     56.2700	  732.00	  746.85	-1847.69	  412.08
     56.3700	  801.00	  817.81	-1849.65	  412.11
     56.4700	  901.00	  925.80	-1857.64	  412.13
     56.5700	 1090.00	 1082.55	-1825.39	  412.16
     56.6700	 1314.00	 1296.42	-1815.26	  412.19
     56.7700	 1444.00	 1567.13	-1955.97	  412.21
     56.8700	 1941.00	 1880.06	-1771.90	  412.24
     56.9700	 2257.00	 2201.07	-1776.91	  412.27
     57.0700	 2550.00	 2472.80	-1755.64	  412.30
     57.1700	 2630.00	 2623.52	-1826.36	  412.33
     57.2700	 2521.00	 2601.35	-1913.19	  412.36
     57.3700	 2379.00	 2414.47	-1868.31	  412.39
     57.4700	 2087.00	 2124.67	-1870.51	  412.42
     57.5700	 1714.00	 1803.26	-1922.10	  412.45
     57.6700	 1384.00	 1501.87	-1950.71	  412.48
     57.7700	 1181.00	 1249.10	-1900.94	  412.51
     57.8700	  995.00	 1055.41	-1893.25	  412.54
     57.9700	  866.00	  918.69	-1885.53	  412.57
     58.0700	  861.00	  830.14	-1801.98	  412.60
     58.1700	  785.00	  779.18	-1827.02	  412.64
     58.2700	  791.00	  756.89	-1798.73	  412.67
     58.3700	  784.00	  757.49	-1806.33	  412.70
     58.4700	  762.00	  778.19	-1849.03	  412.74
     58.5700	  811.00	  817.88	-1839.72	  412.77
     58.6700	  891.00	  875.56	-1817.40	  412.80
     58.7700	  992.00	  948.50	-1789.34	  412.84
     58.8700	 1001.00	 1030.78	-1862.62	  412.87
     58.9700	 1077.00	 1112.68	-1868.52	  412.91
     59.0700	 1176.00	 1183.22	-1840.06	  412.94
     59.1700	 1270.00	 1235.44	-1798.28	  412.98
     59.2700	 1293.00	 1267.64	-1807.48	  413.01
     59.3700	 1273.00	 1278.60	-1838.44	  413.05
     59.4700	 1287.00	 1266.84	-1812.68	  413.09
     59.5700	 1246.00	 1236.62	-1823.46	  413.12
     59.6700	 1184.00	 1199.93	-1848.77	  413.16
     59.7700	 1129.00	 1170.09	-1873.93	  413.20
     59.8700	 1236.00	 1156.49	-1753.33	  413.23
     59.9700	 1237.00	 1164.87	-1760.71	  413.27
     60.0700	 1237.00	 1199.49	-1795.33	  413.31
     60.1700	 1322.00	 1262.30	-1773.14	  413.34
     60.2700	 1379.00	 1348.89	-1802.73	  413.38
     60.3700	 1443.00	 1445.45	-1835.29	  413.42
     60.4700	 1583.00	 1528.17	-1778.01	  413.46
     60.5700	 1575.00	 1567.61	-1825.45	  413.50
     60.6700	 1607.00	 1542.10	-1767.94	  413.53
     60.7700	 1393.00	 1452.84	-1892.68	  413.57
     60.8700	 1342.00	 1322.29	-1813.13	  413.61
     60.9700	 1178.00	 1178.09	-1832.93	  413.65
     61.0700	 1064.00	 1041.77	-1810.61	  413.69
     61.1700	  917.00	  926.36	-1842.20	  413.73
     61.2700	  848.00	  837.88	-1822.72	  413.76
     61.3700	  800.00	  777.23	-1810.07	  413.80
     61.4700	  811.00	  742.58	-1764.42	  413.84
     61.5700	  743.00	  731.59	-1821.43	  413.88
     61.6700	  779.00	  743.00	-1796.84	  413.92
     61.7700	  844.00	  777.10	-1765.94	  413.96
     61.8700	  906.00	  835.17	-1762.01	  414.00
     61.9700	  923.00	  917.97	-1827.81	  414.03
     62.0700	 1065.00	 1023.74	-1791.58	  414.07
     62.1700	 1182.00	 1146.29	-1797.13	  414.11
     62.2700	 1272.00	 1273.26	-1834.10	  414.15
     62.3700	 1393.00	 1385.22	-1825.06	  414.19
     62.4700	 1395.00	 1457.42	-1895.26	  414.23
     62.5700	 1479.00	 1468.71	-1822.55	  414.27
     62.6700	 1444.00	 1414.85	-1803.69	  414.30
     62.7700	 1291.00	 1311.90	-1853.74	  414.34
     62.8700	 1125.00	 1184.71	-1892.55	  414.38
     62.9700	 1009.00	 1055.20	-1879.04	  414.42
     63.0700	  842.00	  938.13	-1928.97	  414.46
     63.1700	  786.00	  841.27	-1888.11	  414.50
     63.2700	  721.00	  767.05	-1878.89	  414.53
     63.3700	  693.00	  714.01	-1853.85	  414.57
     63.4700	  687.00	  678.55	-1824.39	  414.61
     63.5700	  648.00	  656.51	-1841.35	  414.65
     63.6700	  652.00	  644.32	-1825.16	  414.68
     63.7700	  637.00	  639.47	-1835.31	  414.72
     63.8700	  647.00	  640.73	-1826.57	  414.76
     63.9700	  666.00	  648.15	-1814.99	  414.80
     64.0700	  685.00	  662.77	-1810.61	  414.83
     64.1700	  717.00	  686.36	-1802.20	  414.87
     64.2700	  741.00	  721.01	-1812.85	  414.91
     64.3700	  789.00	  768.52	-1812.36	  414.94
     64.4700	  843.00	  829.65	-1819.49	  414.98
     64.5700	  941.00	  903.30	-1795.14	  415.01
     64.6700	 1049.00	  985.66	-1769.50	  415.05
     64.7700	 1169.00	 1069.38	-1733.22	  415.08
     64.8700	 1146.00	 1143.62	-1830.46	  415.12
     64.9700	 1171.00	 1195.60	-1857.44	  415.15
     65.0700	 1248.00	 1216.37	-1801.21	  415.19
     65.1700	 1229.00	 1202.40	-1806.24	  415.22
     65.2700	 1109.00	 1157.68	-1881.52	  415.26
     65.3700	 1062.00	 1091.97	-1862.81	  415.29
     65.4700	 1010.00	 1017.10	-1839.94	  415.32
     65.5700	  954.00	  943.00	-1821.84	  415.36
     65.6700	  841.00	  875.79	-1867.63	  415.39
     65.7700	  781.00	  818.21	-1870.05	  415.42
     65.8700	  778.00	  770.27	-1825.11	  415.45
     65.9700	  759.00	  731.55	-1805.39	  415.49
     66.0700	  712.00	  701.17	-1822.01	  415.52
     66.1700	  656.00	  678.03	-1854.87	  415.55
     66.2700	  703.00	  660.92	-1790.76	  415.58
     66.3700	  628.00	  648.69	-1853.53	  415.61
     66.4700	  625.00	  640.40	-1848.24	  415.64
     66.5700	  597.00	  635.38	-1871.22	  415.67
     66.6700	  658.00	  633.25	-1808.09	  415.70
     66.7700	  615.00	  633.53	-1851.37	  415.73
     66.8700	  625.00	  636.43	-1844.27	  415.76
     66.9700	  651.00	  641.95	-1823.79	  415.79
     67.0700	  624.00	  650.98	-1859.82	  415.81
     67.1700	  639.00	  664.94	-1858.78	  415.84
     67.2700	  673.00	  686.25	-1846.09	  415.87
     67.3700	  743.00	  718.56	-1808.40	  415.89
     67.4700	  757.00	  766.89	-1842.73	  415.92
     67.5700	  848.00	  837.42	-1822.26	  415.94
     67.6700	  931.00	  936.84	-1838.68	  415.97
     67.7700	 1093.00	 1071.06	-1810.90	  415.99
     67.8700	 1219.00	 1243.43	-1857.27	  416.02
     67.9700	 1439.00	 1452.49	-1846.33	  416.04
     68.0700	 1700.00	 1690.13	-1822.97	  416.07
     68.1700	 1958.00	 1939.61	-1814.45	  416.09
     68.2700	 2107.00	 2174.36	-1900.20	  416.11
     68.3700	 2303.00	 2358.59	-1888.43	  416.13
     68.4700	 2499.00	 2454.25	-1788.09	  416.15
     68.5700	 2392.00	 2437.17	-1878.01	  416.17
     68.6700	 2273.00	 2311.90	-1871.74	  416.19
     68.7700	 2085.00	 2108.66	-1856.50	  416.21
     68.8700	 1838.00	 1866.13	-1860.97	  416.23
     68.9700	 1554.00	 1617.83	-1896.67	  416.25
     69.0700	 1313.00	 1387.34	-1907.18	  416.27
     69.1700	 1123.00	 1188.68	-1898.52	  416.28
     69.2700	 1025.00	 1027.75	-1835.59	  416.30
     69.3700	  863.00	  904.36	-1874.20	  416.32
     69.4700	  810.00	  814.17	-1837.01	  416.33
     69.5700	  747.00	  750.86	-1836.70	  416.35
     69.6700	  733.00	  707.78	-1807.62	  416.36
     69.7700	  691.00	  678.98	-1820.82	  416.38
     69.8700	  673.00	  659.79	-1819.63	  416.39
     69.9700	  665.00	  646.88	-1814.72	  416.40
     70.0700	  590.00	  638.04	-1880.88	  416.41
     70.1700	  609.00	  631.90	-1855.74	  416.42
     70.2700	  622.00	  627.65	-1838.49	  416.43
     70.3700	  666.00	  624.85	-1791.69	  416.44
     70.4700	  635.00	  623.28	-1821.12	  416.45
     70.5700	  579.00	  622.85	-1876.69	  416.46
     70.6700	  595.00	  623.44	-1861.28	  416.47
     70.7700	  649.00	  625.61	-1809.45	  416.48
     70.8700	  665.00	  629.58	-1797.42	  416.48
     70.9700	  642.00	  636.02	-1826.86	  416.49
     71.0700	  638.00	  646.09	-1840.93	  416.49
     71.1700	  710.00	  661.49	-1784.33	  416.50
     71.2700	  743.00	  684.65	-1774.49	  416.50
     71.3700	  710.00	  718.75	-1841.59	  416.51
     71.4700	  780.00	  767.59	-1820.43	  416.51
     71.5700	  831.00	  836.03	-1837.87	  416.51
     71.6700	  901.00	  925.83	-1857.67	  416.51
     71.7700	 1070.00	 1039.91	-1802.75	  416.51
     71.8700	 1149.00	 1177.82	-1861.66	  416.51
     71.9700	 1302.00	 1335.47	-1866.31	  416.51
     72.0700	 1491.00	 1504.23	-1846.07	  416.51
     72.1700	 1678.00	 1670.17	-1825.01	  416.50
     72.2700	 1782.00	 1813.95	-1864.79	  416.50
     72.3700	 1976.00	 1912.70	-1769.54	  416.49
     72.4700	 1957.00	 1946.35	-1822.19	  416.49
     72.5700	 1817.00	 1907.06	-1922.90	  416.48
     72.6700	 1802.00	 1803.84	-1834.68	  416.48
     72.7700	 1683.00	 1657.27	-1807.11	  416.47
     72.8700	 1480.00	 1490.08	-1842.92	  416.46
     72.9700	 1368.00	 1321.26	-1786.10	  416.45
     73.0700	 1206.00	 1164.24	-1791.08	  416.44
     73.1700	 1046.00	 1027.23	-1814.07	  416.43
     73.2700	  946.00	  913.91	-1800.75	  416.42
     73.3700	  830.00	  824.52	-1827.36	  416.40
     73.4700	  753.00	  756.89	-1836.73	  416.39
     73.5700	  710.00	  707.52	-1830.36	  416.38
     73.6700	  691.00	  672.49	-1814.33	  416.36
     73.7700	  644.00	  648.10	-1836.94	  416.34
     73.8700	  666.00	  631.30	-1798.14	  416.33
     73.9700	  692.00	  619.77	-1760.61	  416.31
     74.0700	  633.00	  611.89	-1811.73	  416.29
     74.1700	  660.00	  606.06	-1778.90	  416.27
     74.2700	  598.00	  602.70	-1837.54	  416.25
     74.3700	  608.00	  600.82	-1825.67	  416.23
     74.4700	  605.00	  600.14	-1827.98	  416.21
     74.5700	  655.00	  600.40	-1778.24	  416.18
     74.6700	  644.00	  601.31	-1790.15	  416.16
     74.7700	  707.00	  602.57	-1728.41	  416.14
     74.8700	  662.00	  603.77	-1774.61	  416.11
     74.9700	  649.00	  604.48	-1788.32	  416.08
     75.0700	  678.00	  604.32	-1759.16	  416.06
     75.1700	  717.00	  603.11	-1718.95	  416.03
     75.2700	  666.00	  601.00	-1767.84	  416.00
     75.3700	  672.00	  598.39	-1759.23	  415.97
     75.4700	  651.00	  595.84	-1777.68	  415.94
     75.5700	  663.00	  593.91	-1763.75	  415.90
     75.6700	  676.00	  593.13	-1749.97	  415.87
     75.7700	  623.00	  594.22	-1804.06	  415.84
     75.8700	  646.00	  597.74	-1784.58	  415.80
     75.9700	  605.00	  604.32	-1832.16	  415.76
     76.0700	  634.00	  614.56	-1813.41	  415.73
     76.1700	  654.00	  628.96	-1807.80	  415.69
     76.2700	  655.00	  647.77	-1825.61	  415.65
     76.3700	  701.00	  670.90	-1802.74	  415.61
     76.4700	  759.00	  697.66	-1771.50	  415.57
     76.5700	  707.00	  727.02	-1852.86	  415.53
     76.6700	  736.00	  757.01	-1853.85	  415.48
     76.7700	  756.00	  784.93	-1861.78	  415.44
     76.8700	  812.00	  807.44	-1828.28	  415.39
     76.9700	  860.00	  821.01	-1793.85	  415.35
     77.0700	  792.00	  823.05	-1863.89	  415.30
     77.1700	  818.00	  813.08	-1827.92	  415.25
     77.2700	  821.00	  792.94	-1804.78	  415.20
     77.3700	  784.00	  765.95	-1814.79	  415.15
     77.4700	  758.00	  735.59	-1810.43	  415.10
     77.5700	  735.00	  704.81	-1802.65	  415.05
     77.6700	  683.00	  675.76	-1825.60	  415.00
     77.7700	  638.00	  649.86	-1844.70	  414.94
     77.8700	  609.00	  627.88	-1851.72	  414.89
     77.9700	  591.00	  610.00	-1851.84	  414.83
     78.0700	  599.00	  596.03	-1829.87	  414.78
     78.1700	  578.00	  585.27	-1840.11	  414.72
     78.2700	  614.00	  577.54	-1796.38	  414.66
     78.3700	  562.00	  572.02	-1842.86	  414.60
     78.4700	  538.00	  568.09	-1862.93	  414.54
     78.5700	  548.00	  565.39	-1850.23	  414.47
     78.6700	  573.00	  563.54	-1823.38	  414.41
     78.7700	  538.00	  562.27	-1857.11	  414.35
     78.8700	  600.00	  561.41	-1794.25	  414.28
     78.9700	  563.00	  560.88	-1830.72	  414.21
     79.0700	  554.00	  560.60	-1839.44	  414.15
     79.1700	  537.00	  560.56	-1856.40	  414.08
     79.2700	  527.00	  560.75	-1866.59	  414.01
     79.3700	  569.00	  561.19	-1825.03	  413.94
     79.4700	  569.00	  561.91	-1825.75	  413.87
     79.5700	  525.00	  562.97	-1870.81	  413.79
     79.6700	  597.00	  564.44	-1800.28	  413.72
     79.7700	  565.00	  566.43	-1834.27	  413.64
     79.8700	  564.00	  569.08	-1837.92	  413.57
     79.9700	  584.00	  572.61	-1821.45	  413.49
     80.0700	  531.00	  577.32	-1879.16	  413.41
     80.1700	  579.00	  583.60	-1837.44	  413.33
     80.2700	  547.00	  591.95	-1877.79	  413.25
     80.3700	  611.00	  602.98	-1824.82	  413.17
     80.4700	  642.00	  617.35	-1808.19	  413.09
     80.5700	  565.00	  635.76	-1903.60	  413.00
     80.6700	  681.00	  658.85	-1810.69	  412.92
     80.7700	  731.00	  686.86	-1788.70	  412.83
     80.8700	  716.00	  720.34	-1837.18	  412.74
     80.9700	  750.00	  758.64	-1841.48	  412.66
     81.0700	  764.00	  800.65	-1869.49	  412.57
     81.1700	  809.00	  844.46	-1868.30	  412.48
     81.2700	  858.00	  887.34	-1862.18	  412.38
     81.3700	  908.00	  926.05	-1850.89	  412.29
     81.4700	  957.00	  957.42	-1833.26	  412.20
     81.5700	  960.00	  979.08	-1851.92	  412.10
     81.6700	  944.00	  989.88	-1878.72	  412.01
     81.7700	 1004.00	  989.77	-1818.61	  411.91
     81.8700	  941.00	  979.60	-1871.44	  411.81
     81.9700	  891.00	  960.94	-1902.78	  411.71
     82.0700	  915.00	  935.79	-1853.63	  411.61
     82.1700	  912.00	  906.15	-1826.99	  411.51
     82.2700	  863.00	  873.84	-1843.68	  411.41
     82.3700	  792.00	  840.55	-1881.39	  411.30
     82.4700	  724.00	  807.79	-1916.63	  411.20
     82.5700	  723.00	  776.73	-1886.57	  411.09
     82.6700	  768.00	  747.99	-1812.83	  410.99
     82.7700	  699.00	  721.70	-1855.54	  410.88
     82.8700	  693.00	  697.72	-1837.56	  410.77
     82.9700	  666.00	  675.96	-1842.80	  410.66
     83.0700	  597.00	  656.44	-1892.28	  410.55
     83.1700	  620.00	  639.30	-1852.14	  410.43
     83.2700	  578.00	  624.71	-1879.55	  410.32
     83.3700	  598.00	  612.75	-1847.59	  410.21
     83.4700	  588.00	  603.46	-1848.30	  410.09
     83.5700	  572.00	  596.77	-1857.61	  409.97
     83.6700	  635.00	  592.55	-1790.39	  409.85
     83.7700	  574.00	  590.60	-1849.44	  409.74
     83.8700	  596.00	  590.61	-1827.45	  409.62
     83.9700	  567.00	  592.18	-1858.02	  409.49
     84.0700	  564.00	  594.86	-1863.70	  409.37
     84.1700	  585.00	  598.07	-1845.91	  409.25
     84.2700	  594.00	  601.22	-1840.06	  409.12
     84.3700	  616.00	  603.57	-1820.41	  409.00
     84.4700	  585.00	  604.60	-1852.44	  408.87
     84.5700	  595.00	  604.01	-1841.85	  408.74
     84.6700	  592.00	  601.63	-1842.47	  408.61
     84.7700	  583.00	  597.68	-1847.52	  408.48
     84.8700	  609.00	  592.60	-1816.44	  408.35
     84.9700	  623.00	  586.91	-1796.75	  408.22
     85.0700	  596.00	  581.08	-1817.92	  408.09
     85.1700	  596.00	  575.49	-1812.33	  407.95
     85.2700	  590.00	  570.44	-1813.28	  407.82
     85.3700	  578.00	  566.16	-1821.00	  407.68
     85.4700	  560.00	  562.77	-1835.61	  407.54
     85.5700	  530.00	  560.35	-1863.19	  407.40
     85.6700	  559.00	  558.93	-1832.77	  407.26
     85.7700	  554.00	  558.51	-1837.35	  407.12
     85.8700	  577.00	  559.07	-1814.91	  406.98
     85.9700	  574.00	  560.60	-1819.44	  406.84
     86.0700	  558.00	  563.05	-1837.89	  406.69
     86.1700	  565.00	  566.42	-1834.26	  406.55
     86.2700	  560.00	  570.65	-1843.49	  406.40
     86.3700	  584.00	  575.69	-1824.53	  406.25
     86.4700	  565.00	  581.49	-1849.33	  406.10
     86.5700	  592.00	  587.96	-1828.80	  405.96
     86.6700	  564.00	  594.98	-1863.82	  405.81
     86.7700	  569.00	  602.41	-1866.25	  405.65
     86.8700	  609.00	  610.11	-1833.95	  405.50
     86.9700	  594.00	  618.03	-1856.87	  405.35
     87.0700	  621.00	  626.21	-1838.05	  405.19
     87.1700	  577.00	  634.79	-1890.63	  405.04
     87.2700	  659.00	  643.92	-1817.76	  404.88
     87.3700	  582.00	  653.67	-1904.51	  404.72
     87.4700	  685.00	  663.88	-1811.72	  404.56
     87.5700	  693.00	  674.19	-1814.03	  404.40
     87.6700	  682.00	  683.95	-1834.79	  404.24
     87.7700	  726.00	  692.32	-1799.16	  404.08
     87.8700	  689.00	  698.28	-1842.12	  403.92
     87.9700	  662.00	  700.90	-1871.74	  403.76
     88.0700	  712.00	  699.59	-1820.43	  403.59
     88.1700	  694.00	  694.32	-1833.16	  403.42
     88.2700	  666.00	  685.60	-1852.44	  403.26
     88.3700	  655.00	  674.32	-1852.16	  403.09
     88.4700	  663.00	  661.53	-1831.37	  402.92
     88.5700	  654.00	  648.20	-1827.04	  402.75
     88.6700	  623.00	  635.22	-1845.06	  402.58
     88.7700	  590.00	  623.30	-1866.14	  402.41
     88.8700	  637.00	  612.97	-1808.81	  402.24
     88.9700	  588.00	  604.18	-1849.02	  402.06
     89.0700	  647.00	  597.94	-1783.78	  401.89
     89.1700	  601.00	  593.84	-1825.68	  401.71
     89.2700	  604.00	  591.71	-1820.55	  401.54
     89.3700	  607.00	  591.27	-1817.11	  401.36
     89.4700	  616.00	  592.14	-1808.98	  401.18
     89.5700	  617.00	  593.87	-1809.71	  401.00
     89.6700	  621.00	  595.92	-1807.76	  400.82
     89.7700	  640.00	  597.76	-1790.60	  400.64
     89.8700	  615.00	  598.86	-1816.70	  400.46
     89.9700	  637.00	  598.82	-1794.66	  400.28
     90.0700	  692.00	  597.42	-1738.26	  400.09
     90.1700	  620.00	  594.68	-1807.52	  399.91
     90.2700	  637.00	  590.83	-1786.67	  399.72
     90.3700	  644.00	  586.19	-1775.03	  399.54
     90.4700	  593.00	  581.12	-1820.96	  399.35
     90.5700	  576.00	  575.94	-1832.78	  399.16
     90.6700	  559.00	  570.93	-1844.77	  398.97
     90.7700	  585.00	  566.29	-1814.13	  398.78
     90.8700	  559.00	  562.17	-1836.01	  398.59
     90.9700	  566.00	  558.66	-1825.50	  398.40
     91.0700	  581.00	  555.79	-1807.63	  398.21
     91.1700	  520.00	  553.56	-1866.40	  398.02
     91.2700	  526.00	  551.95	-1858.79	  397.82
     91.3700	  547.00	  550.91	-1836.75	  397.63
     91.4700	  556.00	  550.39	-1827.23	  397.43
     91.5700	  582.00	  550.38	-1801.22	  397.24
     91.6700	  559.00	  550.85	-1824.69	  397.04
     91.7700	  563.00	  551.84	-1821.68	  396.84
     91.8700	  548.00	  553.40	-1838.24	  396.64
     91.9700	  539.00	  555.61	-1849.45	  396.45
     92.0700	  572.00	  558.63	-1819.47	  396.25
     92.1700	  556.00	  562.61	-1839.45	  396.04
     92.2700	  556.00	  567.75	-1844.59	  395.84
     92.3700	  526.00	  574.28	-1881.12	  395.64
     92.4700	  570.00	  582.40	-1845.24	  395.44
     92.5700	  569.00	  592.32	-1856.16	  395.23
     92.6700	  601.00	  604.20	-1836.04	  395.03
     92.7700	  616.00	  618.12	-1834.96	  394.83
     92.8700	  595.00	  634.09	-1871.93	  394.62
     92.9700	  587.00	  651.99	-1897.83	  394.41
     93.0700	  648.00	  671.58	-1856.42	  394.21
     93.1700	  672.00	  692.47	-1853.31	  394.00
     93.2700	  677.00	  714.12	-1869.96	  393.79
     93.3700	  674.00	  735.84	-1894.68	  393.58
     93.4700	  686.00	  756.81	-1903.65	  393.37
     93.5700	  736.00	  776.24	-1873.08	  393.16
     93.6700	  727.00	  793.49	-1899.33	  392.95
     93.7700	  773.00	  808.30	-1868.14	  392.74
     93.8700	  834.00	  820.83	-1819.67	  392.53
     93.9700	  829.00	  831.59	-1835.43	  392.32
     94.0700	  872.00	  841.23	-1802.07	  392.10
     94.1700	  815.00	  850.34	-1868.18	  391.89
     94.2700	  853.00	  859.33	-1839.17	  391.68
     94.3700	  821.00	  868.15	-1879.99	  391.46
     94.4700	  839.00	  877.55	-1871.39	  391.25
     94.5700	  895.00	  887.36	-1825.20	  391.03
     94.6700	  936.00	  897.80	-1794.64	  390.81
     94.7700	  892.00	  909.03	-1849.87	  390.60
     94.8700	  927.00	  920.99	-1826.83	  390.38
     94.9700	  908.00	  933.31	-1858.15	  390.16
     95.0700	  992.00	  945.18	-1786.02	  389.94
     95.1700	  944.00	  955.41	-1844.25	  389.73
     95.2700	  993.00	  962.51	-1802.35	  389.51
     95.3700	  935.00	  964.91	-1862.75	  389.29
     95.4700	  968.00	  961.34	-1826.18	  389.07
     95.5700	  982.00	  951.18	-1802.02	  388.85
     95.6700	  923.00	  934.64	-1844.48	  388.63
     95.7700	  976.00	  912.79	-1769.63	  388.41
     95.8700	  875.00	  887.21	-1845.05	  388.18
     95.9700	  902.00	  859.81	-1790.65	  387.96
     96.0700	  852.00	  832.51	-1813.35	  387.74
     96.1700	  742.00	  807.14	-1897.98	  387.52
     96.2700	  775.00	  785.40	-1843.24	  387.30
     96.3700	  748.00	  768.82	-1853.66	  387.07
     96.4700	  777.00	  758.72	-1814.56	  386.85
     96.5700	  770.00	  756.24	-1819.08	  386.63
     96.6700	  792.00	  762.32	-1803.16	  386.40
     96.7700	  785.00	  777.70	-1825.54	  386.18
     96.8700	  850.00	  802.86	-1785.70	  385.95
     96.9700	  841.00	  838.07	-1829.91	  385.73
     97.0700	  909.00	  883.25	-1807.09	  385.51
     97.1700	  886.00	  938.00	-1884.84	  385.28
     97.2700	 1012.00	 1001.43	-1822.27	  385.06
     97.3700	 1090.00	 1072.20	-1815.04	  384.83
     97.4700	 1139.00	 1148.36	-1842.20	  384.60
     97.5700	 1264.00	 1227.41	-1796.25	  384.38
     97.6700	 1297.00	 1306.23	-1842.07	  384.15
     97.7700	 1359.00	 1381.07	-1854.91	  383.93
     97.8700	 1476.00	 1447.71	-1804.55	  383.70
     97.9700	 1500.00	 1501.77	-1834.61	  383.48
     98.0700	 1543.00	 1539.20	-1829.04	  383.25
     98.1700	 1596.00	 1557.07	-1793.91	  383.02
     98.2700	 1516.00	 1554.13	-1870.97	  382.80
     98.3700	 1523.00	 1531.20	-1841.04	  382.57
     98.4700	 1468.00	 1490.86	-1855.70	  382.35
     98.5700	 1366.00	 1436.80	-1903.64	  382.12
     98.6700	 1393.00	 1373.19	-1813.03	  381.89
     98.7700	 1235.00	 1304.22	-1902.06	  381.67
     98.8700	 1228.00	 1233.74	-1838.58	  381.44
     98.9700	 1170.00	 1165.18	-1828.02	  381.22
     99.0700	 1042.00	 1101.46	-1892.30	  380.99
     99.1700	 1067.00	 1045.01	-1810.85	  380.76
     99.2700	  989.00	  997.83	-1841.67	  380.54
     99.3700	  908.00	  961.52	-1886.36	  380.31
     99.4700	  968.00	  937.28	-1802.12	  380.09
     99.5700	  909.00	  926.00	-1849.84	  379.86
     99.6700	  947.00	  928.26	-1814.10	  379.64
     99.7700	  970.00	  944.33	-1807.17	  379.41
     99.8700	 1005.00	  974.23	-1802.07	  379.19
     99.9700	 1032.00	 1017.66	-1818.50	  378.96
    100.0700	 1098.00	 1074.05	-1808.89	  378.74
    100.1700	 1100.00	 1142.47	-1875.31	  378.51
    100.2700	 1243.00	 1221.60	-1811.44	  378.29
    100.3700	 1349.00	 1309.66	-1793.50	  378.07
    100.4700	 1375.00	 1404.36	-1862.20	  377.85
    100.5700	 1485.00	 1502.88	-1850.72	  377.62
    100.6700	 1580.00	 1601.86	-1854.70	  377.40
    100.7700	 1667.00	 1697.72	-1863.56	  377.18
    100.8700	 1721.00	 1786.62	-1898.46	  376.96
    100.9700	 1907.00	 1865.11	-1790.95	  376.74
    101.0700	 1966.00	 1930.40	-1797.24	  376.51
    101.1700	 2041.00	 1980.60	-1772.44	  376.29
    101.2700	 2039.00	 2014.58	-1808.42	  376.07
    101.3700	 2017.00	 2031.67	-1847.51	  375.86
    101.4700	 2069.00	 2031.50	-1795.34	  375.64
    101.5700	 1991.00	 2013.98	-1855.82	  375.42
    101.6700	 1998.00	 1979.64	-1814.48	  375.20
    101.7700	 1934.00	 1929.97	-1828.81	  374.98
    101.8700	 1941.00	 1867.57	-1759.41	  374.77
    101.9700	 1864.00	 1795.98	-1764.82	  374.55
    102.0700	 1761.00	 1719.25	-1791.09	  374.34
    102.1700	 1593.00	 1641.33	-1881.17	  374.12
    102.2700	 1619.00	 1565.73	-1779.57	  373.91
    102.3700	 1556.00	 1495.21	-1772.05	  373.69
    102.4700	 1417.00	 1431.68	-1847.52	  373.48
    102.5700	 1423.00	 1376.23	-1786.07	  373.27
    102.6700	 1363.00	 1329.14	-1798.98	  373.06
    102.7700	 1301.00	 1289.99	-1821.83	  372.85
    102.8700	 1294.00	 1257.71	-1796.55	  372.64
    102.9700	 1229.00	 1230.73	-1834.57	  372.43
    103.0700	 1162.00	 1207.06	-1877.90	  372.22
    103.1700	 1182.00	 1184.55	-1835.39	  372.01
    103.2700	 1085.00	 1161.16	-1909.00	  371.81
    103.3700	 1112.00	 1135.25	-1856.09	  371.60
    103.4700	 1060.00	 1105.79	-1878.63	  371.39
    103.5700	 1039.00	 1072.51	-1866.35	  371.19
    103.6700	 1023.00	 1035.76	-1845.60	  370.99
    103.7700	  959.00	  996.30	-1870.14	  370.79
    103.8700	  981.00	  955.18	-1807.02	  370.59
    103.9700	  935.00	  913.45	-1811.29	  370.39
    104.0700	  908.00	  872.13	-1796.97	  370.19
    104.1700	  841.00	  832.12	-1823.96	  369.99
    104.2700	  798.00	  794.16	-1829.00	  369.79
    104.3700	  791.00	  758.85	-1800.69	  369.60
    104.4700	  733.00	  726.61	-1826.45	  369.40
    104.5700	  719.00	  697.71	-1811.55	  369.21
    104.6700	  705.00	  672.25	-1800.09	  369.02
    104.7700	  678.00	  650.21	-1805.05	  368.83
    104.8700	  652.00	  631.46	-1812.30	  368.64
    104.9700	  698.00	  615.76	-1750.60	  368.45
    105.0700	  632.00	  602.86	-1803.70	  368.26
    105.1700	  599.00	  592.44	-1826.28	  368.07
    105.2700	  607.00	  584.19	-1810.03	  367.89
    105.3700	  604.00	  577.82	-1806.66	  367.71
    105.4700	  582.00	  573.06	-1823.90	  367.52
    105.5700	  602.00	  569.68	-1800.52	  367.34
    105.6700	  575.00	  567.47	-1825.31	  367.16
    105.7700	  600.00	  566.36	-1799.20	  366.99
    105.8700	  586.00	  566.21	-1813.05	  366.81
    105.9700	  588.00	  566.98	-1811.82	  366.64
    106.0700	  571.00	  568.63	-1830.47	  366.46
    106.1700	  617.00	  571.19	-1787.03	  366.29
    106.2700	  574.00	  574.65	-1833.49	  366.12
    106.3700	  624.00	  579.12	-1787.96	  365.95
    106.4700	  583.00	  584.65	-1834.49	  365.78
    106.5700	  566.00	  591.27	-1858.11	  365.62
    106.6700	  599.00	  599.03	-1832.87	  365.46
    106.7700	  628.00	  607.94	-1812.78	  365.29
    106.8700	  634.00	  617.98	-1816.82	  365.13
    106.9700	  585.00	  629.07	-1876.91	  364.97
    107.0700	  633.00	  641.08	-1840.92	  364.82
    107.1700	  621.00	  653.82	-1865.66	  364.66
    107.2700	  622.00	  667.03	-1877.87	  364.51
    107.3700	  701.00	  680.42	-1812.26	  364.36
    107.4700	  692.00	  693.61	-1834.45	  364.21
    107.5700	  694.00	  706.19	-1845.03	  364.06
    107.6700	  688.00	  717.73	-1862.57	  363.91
    107.7700	  716.00	  727.80	-1844.64	  363.77
    107.8700	  662.00	  736.04	-1906.88	  363.63
    107.9700	  740.00	  742.16	-1835.00	  363.49
    108.0700	  740.00	  746.07	-1838.91	  363.35
    108.1700	  727.00	  747.93	-1853.77	  363.22
    108.2700	  714.00	  747.98	-1866.82	  363.08
    108.3700	  692.00	  746.65	-1887.49	  362.95
    108.4700	  731.00	  744.40	-1846.24	  362.82
    108.5700	  688.00	  741.73	-1886.57	  362.69
    108.6700	  787.00	  739.06	-1784.90	  362.57
    108.7700	  705.00	  736.74	-1864.58	  362.45
    108.8700	  712.00	  735.00	-1855.84	  362.33
    108.9700	  703.00	  733.99	-1863.83	  362.21
    109.0700	  685.00	  733.71	-1881.55	  362.09
    109.1700	  679.00	  734.08	-1887.92	  361.98
    109.2700	  716.00	  734.89	-1851.73	  361.87
    109.3700	  756.00	  735.83	-1812.67	  361.76
    109.4700	  736.00	  736.52	-1833.36	  361.65
    109.5700	  697.00	  736.54	-1872.38	  361.55
    109.6700	  743.00	  735.48	-1825.32	  361.45
    109.7700	  708.00	  732.99	-1857.83	  361.35
    109.8700	  778.00	  728.85	-1783.69	  361.25
    109.9700	  705.00	  722.96	-1850.80	  361.16
    110.0700	  682.00	  715.41	-1866.25	  361.07
    110.1700	  719.00	  706.40	-1820.24	  360.98
    110.2700	  727.00	  696.23	-1802.07	  360.89
    110.3700	  660.00	  685.23	-1858.07	  360.81
    110.4700	  677.00	  673.73	-1829.57	  360.73
    110.5700	  684.00	  662.10	-1810.94	  360.65
    110.6700	  686.00	  650.60	-1797.44	  360.58
    110.7700	  664.00	  639.51	-1808.35	  360.51
    110.8700	  615.00	  629.04	-1846.88	  360.44
    110.9700	  609.00	  619.36	-1843.20	  360.37
    111.0700	  576.00	  610.61	-1867.45	  360.31
    111.1700	  645.00	  602.86	-1790.70	  360.25
    111.2700	  604.00	  596.18	-1825.02	  360.19
    111.3700	  662.00	  590.58	-1761.42	  360.14
    111.4700	  594.00	  586.04	-1824.88	  360.09
    111.5700	  534.00	  582.51	-1881.35	  360.04
    111.6700	  604.00	  579.93	-1808.77	  359.99
    111.7700	  597.00	  578.22	-1814.06	  359.95
    111.8700	  573.00	  577.30	-1837.14	  359.91
    111.9700	  569.00	  577.07	-1840.91	  359.88
    112.0700	  556.00	  577.42	-1854.26	  359.85
    112.1700	  583.00	  578.28	-1828.12	  359.82
    112.2700	  567.00	  579.55	-1845.40	  359.79
    112.3700	  562.00	  581.16	-1852.00	  359.77
    112.4700	  574.00	  583.03	-1841.87	  359.75
    112.5700	  602.00	  585.10	-1815.94	  359.74
    112.6700	  577.00	  587.34	-1843.18	  359.73
    112.7700	  571.00	  589.71	-1851.55	  359.72
    112.8700	  604.00	  592.21	-1821.05	  359.71
    112.9700	  589.00	  594.86	-1838.70	  359.71
    113.0700	  548.00	  597.67	-1882.51	  359.72
    113.1700	  568.00	  600.69	-1865.53	  359.72
    113.2700	  600.00	  603.97	-1836.81	  359.73
    113.3700	  581.00	  607.59	-1859.43	  359.75
    113.4700	  598.00	  611.63	-1846.47	  359.76
    113.5700	  574.00	  616.20	-1875.04	  359.79
    113.6700	  632.00	  621.41	-1822.25	  359.81
    113.7700	  657.00	  627.43	-1803.27	  359.84
    113.8700	  640.00	  634.45	-1827.29	  359.87
    113.9700	  648.00	  642.73	-1827.57	  359.91
    114.0700	  647.00	  652.57	-1838.41	  359.95
    114.1700	  687.00	  664.39	-1810.23	  360.00
    114.2700	  687.00	  678.68	-1824.52	  360.05
    114.3700	  690.00	  696.07	-1838.91	  360.10
    114.4700	  717.00	  717.33	-1833.17	  360.16
    114.5700	  801.00	  743.40	-1775.24	  360.22
    114.6700	  811.00	  775.41	-1797.25	  360.28
    114.7700	  783.00	  814.68	-1864.52	  360.35
    114.8700	  903.00	  862.76	-1792.60	  360.43
    114.9700	  906.00	  921.41	-1848.25	  360.51
    115.0700	  969.00	  992.60	-1856.44	  360.59
    115.1700	 1103.00	 1078.49	-1808.33	  360.68
    115.2700	 1276.00	 1181.32	-1738.16	  360.77
    115.3700	 1309.00	 1303.49	-1827.33	  360.86
    115.4700	 1539.00	 1447.30	-1741.14	  360.96
    115.5700	 1733.00	 1615.02	-1714.86	  361.07
    115.6700	 1919.00	 1808.58	-1722.42	  361.18
    115.7700	 2140.00	 2029.55	-1722.40	  361.29
    115.8700	 2372.00	 2279.05	-1739.89	  361.41
    115.9700	 2658.00	 2557.36	-1732.20	  361.54
    116.0700	 3075.00	 2864.08	-1621.92	  361.67
    116.1700	 3249.00	 3197.72	-1781.56	  361.80
    116.2700	 3676.00	 3555.69	-1712.53	  361.94
    116.3700	 3950.00	 3934.42	-1817.26	  362.08
    116.4700	 4235.00	 4328.84	-1926.68	  362.23
    116.5700	 4685.00	 4733.01	-1880.85	  362.38
    116.6700	 5071.00	 5139.51	-1901.35	  362.54
    116.7700	 5648.00	 5539.84	-1724.68	  362.70
    116.8700	 5891.00	 5924.65	-1866.49	  362.87
    116.9700	 6193.00	 6283.57	-1923.41	  363.05
    117.0700	 6532.00	 6605.94	-1906.78	  363.22
    117.1700	 6799.00	 6880.92	-1914.76	  363.41
    117.2700	 6918.00	 7098.36	-2013.20	  363.60
    117.3700	 7115.00	 7249.63	-1967.47	  363.79
    117.4700	 7165.00	 7328.37	-1996.21	  363.99
    117.5700	 7089.00	 7331.36	-2075.20	  364.20
    117.6700	 7244.00	 7258.84	-1847.68	  364.41
    117.7700	 7014.00	 7114.57	-1933.41	  364.62
    117.8700	 6726.00	 6905.21	-2012.05	  364.85
    117.9700	 6467.00	 6639.71	-2005.55	  365.07
    118.0700	 6225.00	 6328.15	-1935.99	  365.31
    118.1700	 5965.00	 5981.26	-1849.10	  365.54
    118.2700	 5617.00	 5609.65	-1825.49	  365.79
    118.3700	 5307.00	 5223.16	-1749.00	  366.04
    118.4700	 4890.00	 4831.03	-1773.87	  366.29
    118.5700	 4535.00	 4441.18	-1739.02	  366.56
    118.6700	 4141.00	 4060.58	-1752.42	  366.82
    118.7700	 3753.00	 3694.99	-1774.83	  367.10
    118.8700	 3447.00	 3348.78	-1734.62	  367.38
    118.9700	 3137.00	 3025.37	-1721.21	  367.66
    119.0700	 2983.00	 2726.87	-1576.71	  367.95
    119.1700	 2513.00	 2454.55	-1774.39	  368.25
    119.2700	 2302.00	 2208.81	-1739.65	  368.55
    119.3700	 2113.00	 1989.21	-1709.05	  368.86
    119.4700	 1855.00	 1794.84	-1772.68	  369.18
    119.5700	 1696.00	 1624.26	-1761.10	  369.50
    119.6700	 1496.00	 1475.74	-1812.58	  369.83
    119.7700	 1419.00	 1347.37	-1761.21	  370.17
    119.8700	 1219.00	 1237.06	-1850.90	  370.51
    119.9700	 1252.00	 1142.79	-1723.63	  370.86
    120.0700	 1098.00	 1062.53	-1797.37	  371.21
    120.1700	 1010.00	  994.42	-1817.26	  371.57
    120.2700	  997.00	  936.74	-1772.58	  371.94
    120.3700	  943.00	  887.93	-1777.77	  372.31
    120.4700	  849.00	  846.64	-1830.48	  372.70
    120.5700	  850.00	  811.68	-1794.52	  373.08
    120.6700	  839.00	  782.06	-1775.90	  373.48
    120.7700	  755.00	  756.94	-1834.78	  373.88
    120.8700	  743.00	  735.61	-1825.45	  374.29
    120.9700	  682.00	  717.51	-1868.35	  374.70
    121.0700	  740.00	  702.16	-1795.00	  375.13
    121.1700	  634.00	  689.17	-1888.01	  375.56
    121.2700	  656.00	  678.24	-1855.08	  375.99
    121.3700	  652.00	  669.11	-1849.95	  376.44
    121.4700	  625.00	  661.58	-1869.42	  376.89
    121.5700	  666.00	  655.47	-1822.31	  377.35
    121.6700	  674.00	  650.66	-1809.50	  377.81
    121.7700	  628.00	  647.01	-1851.85	  378.29
    121.8700	  644.00	  644.44	-1833.28	  378.77
    121.9700	  587.00	  642.86	-1888.70	  379.25
    122.0700	  626.00	  642.20	-1849.04	  379.75
    122.1700	  616.00	  642.39	-1859.23	  380.25
    122.2700	  635.00	  643.36	-1841.20	  380.76
    122.3700	  605.00	  645.05	-1872.89	  381.28
    122.4700	  634.00	  647.39	-1846.23	  381.81
    122.5700	  628.00	  650.32	-1855.16	  382.34
    122.6700	  628.00	  653.77	-1858.61	  382.88
    122.7700	  658.00	  657.66	-1832.50	  383.43
    122.8700	  663.00	  661.90	-1831.74	  383.99
    122.9700	  683.00	  666.42	-1816.26	  384.56
    123.0700	  644.00	  671.10	-1859.94	  385.13
    123.1700	  644.00	  675.86	-1864.70	  385.71
    123.2700	  681.00	  680.59	-1832.43	  386.30
    123.3700	  668.00	  685.17	-1850.01	  386.90
    123.4700	  666.00	  689.51	-1856.35	  387.51
    123.5700	  712.00	  693.50	-1814.34	  388.12
    123.6700	  746.00	  697.06	-1783.90	  388.74
    123.7700	  665.00	  700.10	-1867.94	  389.37
    123.8700	  660.00	  702.59	-1875.43	  390.01
    123.9700	  731.00	  704.50	-1806.34	  390.66
    124.0700	  694.00	  705.83	-1844.67	  391.32
    124.1700	  709.00	  706.61	-1830.45	  391.99
    124.2700	  695.00	  706.88	-1844.72	  392.66
    124.3700	  700.00	  706.69	-1839.53	  393.34
    124.4700	  706.00	  706.09	-1832.93	  394.04
    124.5700	  668.00	  705.18	-1870.02	  394.74
    124.6700	  691.00	  704.01	-1845.85	  395.45
    124.7700	  704.00	  702.62	-1831.46	  396.16
    124.8700	  729.00	  701.07	-1804.91	  396.89
    124.9700	  676.00	  517.53	-1674.37	  397.63
    125.0700	  668.00	  518.28	-1832.84	  398.38
    125.1700	  683.00	  519.04	-1832.84	  399.13
    125.2700	  678.00	  519.80	-1832.84	  399.90
    125.3700	  692.00	  520.57	-1832.84	  400.67
    125.4700	  611.00	  521.36	-1832.84	  401.45
    125.5700	  640.00	  522.15	-1832.84	  402.24
    125.6700	  616.00	  522.95	-1832.84	  403.05
    125.7700	  592.00	  523.76	-1832.84	  403.86
    125.8700	  674.00	  524.58	-1832.84	  404.68
    125.9700	  612.00	  525.42	-1832.84	  405.51
    126.0700	  656.00	  526.26	-1832.84	  406.35
    126.1700	  622.00	  527.11	-1832.84	  407.20
    126.2700	  622.00	  527.97	-1832.84	  408.06
    126.3700	  645.00	  528.84	-1832.84	  408.93
    126.4700	  649.00	  529.72	-1832.84	  409.81
    126.5700	  640.00	  530.61	-1832.84	  410.70
    126.6700	  617.00	  531.51	-1832.84	  411.60
    126.7700	  603.00	  532.42	-1832.84	  412.51
    126.8700	  612.00	  533.34	-1832.84	  413.44
    126.9700	  615.00	  534.27	-1832.84	  414.37
    127.0700	  636.00	  535.21	-1832.84	  415.31
    127.1700	  613.00	  536.16	-1832.84	  416.26
    127.2700	  550.00	  537.13	-1832.84	  417.22
    127.3700	  569.00	  538.10	-1832.84	  418.20
    127.4700	  611.00	  539.08	-1832.84	  419.18
    127.5700	  545.00	  540.08	-1832.84	  420.17
    127.6700	  611.00	  541.08	-1832.84	  421.18
    127.7700	  597.00	  542.10	-1832.84	  422.19
    127.8700	  623.00	  543.12	-1832.84	  423.22
    127.9700	  608.00	  544.16	-1832.84	  424.26
    128.0700	  651.00	  545.21	-1832.84	  425.30
    128.1700	  620.00	  546.27	-1832.84	  426.36
    128.2700	  659.00	  547.34	-1832.84	  427.43
    128.3700	  647.00	  548.42	-1832.84	  428.52
    128.4700	  690.00	  549.51	-1832.84	  429.61
    128.5700	    0.00	  550.62	-1832.84	  430.71
    128.6700	    0.00	  551.73	-1832.84	  431.83
     12.3886	        	        	        	        	       0	(  0  0  2)	  0  1
     12.3886	        	        	        	        	    -458	(  0  0  2)	  0  1
     25.0348	        	        	        	        	       0	(  0  0  4)	  0  1
     25.0348	        	        	        	        	    -458	(  0  0  4)	  0  1
     28.4828	        	        	        	        	       0	(  1  0  0)	  0  1
     28.4828	        	        	        	        	    -458	(  1  0  0)	  0  1
     29.1839	        	        	        	        	       0	(  1  0  1)	  0  1
     29.1839	        	        	        	        	    -458	(  1  0  1)	  0  1
     31.2012	        	        	        	        	       0	(  1  0  2)	  0  1
     31.2012	        	        	        	        	    -458	(  1  0  2)	  0  1
     34.3269	        	        	        	        	       0	(  1  0  3)	  0  1
     34.3269	        	        	        	        	    -458	(  1  0  3)	  0  1
     38.0019	        	        	        	        	       0	(  0  0  6)	  0  1
     38.0019	        	        	        	        	    -458	(  0  0  6)	  0  1
     38.3263	        	        	        	        	       0	(  1  0  4)	  0  1
     38.3263	        	        	        	        	    -458	(  1  0  4)	  0  1
     43.0029	        	        	        	        	       0	(  1  0  5)	  0  1
     43.0029	        	        	        	        	    -458	(  1  0  5)	  0  1
     48.2172	        	        	        	        	       0	(  1  0  6)	  0  1
     48.2172	        	        	        	        	    -458	(  1  0  6)	  0  1
     50.5310	        	        	        	        	       0	(  1  1  0)	  0  1
     50.5310	        	        	        	        	    -458	(  1  1  0)	  0  1
     51.4999	        	        	        	        	       0	(  0  0  8)	  0  1
     51.4999	        	        	        	        	    -458	(  0  0  8)	  0  1
     52.2649	        	        	        	        	       0	(  1  1  2)	  0  1
     52.2649	        	        	        	        	    -458	(  1  1  2)	  0  1
     53.8818	        	        	        	        	       0	(  1  0  7)	  0  1
     53.8818	        	        	        	        	    -458	(  1  0  7)	  0  1
     57.2445	        	        	        	        	       0	(  1  1  4)	  0  1
     57.2445	        	        	        	        	    -458	(  1  1  4)	  0  1
     59.0763	        	        	        	        	       0	(  2  0  0)	  0  1
     59.0763	        	        	        	        	    -458	(  2  0  0)	  0  1
     59.4705	        	        	        	        	       0	(  2  0  1)	  0  1
     59.4705	        	        	        	        	    -458	(  2  0  1)	  0  1
     59.9505	        	        	        	        	       0	(  1  0  8)	  0  1
     59.9505	        	        	        	        	    -458	(  1  0  8)	  0  1
     60.6437	        	        	        	        	       0	(  2  0  2)	  0  1
     60.6437	        	        	        	        	    -458	(  2  0  2)	  0  1
     62.5700	        	        	        	        	       0	(  2  0  3)	  0  1
     62.5700	        	        	        	        	    -458	(  2  0  3)	  0  1
     64.9911	        	        	        	        	       0	(  1  1  6)	  0  1
     64.9911	        	        	        	        	    -458	(  1  1  6)	  0  1
     65.2124	        	        	        	        	       0	(  2  0  4)	  0  1
     65.2124	        	        	        	        	    -458	(  2  0  4)	  0  1
     65.8198	        	        	        	        	       0	(  0  0 10)	  0  1
     65.8198	        	        	        	        	    -458	(  0  0 10)	  0  1
     66.4101	        	        	        	        	       0	(  1  0  9)	  0  1
     66.4101	        	        	        	        	    -458	(  1  0  9)	  0  1
     68.5302	        	        	        	        	       0	(  2  0  5)	  0  1
     68.5302	        	        	        	        	    -458	(  2  0  5)	  0  1
     72.4869	        	        	        	        	       0	(  2  0  6)	  0  1
     72.4869	        	        	        	        	    -458	(  2  0  6)	  0  1
     73.2756	        	        	        	        	       0	(  1  0 10)	  0  1
     73.2756	        	        	        	        	    -458	(  1  0 10)	  0  1
     75.1027	        	        	        	        	       0	(  1  1  8)	  0  1
     75.1027	        	        	        	        	    -458	(  1  1  8)	  0  1
     77.0564	        	        	        	        	       0	(  2  0  7)	  0  1
     77.0564	        	        	        	        	    -458	(  2  0  7)	  0  1
     80.5908	        	        	        	        	       0	(  1  0 11)	  0  1
     80.5908	        	        	        	        	    -458	(  1  0 11)	  0  1
     81.4175	        	        	        	        	       0	(  0  0 12)	  0  1
     81.4175	        	        	        	        	    -458	(  0  0 12)	  0  1
     81.4675	        	        	        	        	       0	(  2  1  0)	  0  1
     81.4675	        	        	        	        	    -458	(  2  1  0)	  0  1
     81.8103	        	        	        	        	       0	(  2  1  1)	  0  1
     81.8103	        	        	        	        	    -458	(  2  1  1)	  0  1
     82.2292	        	        	        	        	       0	(  2  0  8)	  0  1
     82.2292	        	        	        	        	    -458	(  2  0  8)	  0  1
     82.8370	        	        	        	        	       0	(  2  1  2)	  0  1
     82.8370	        	        	        	        	    -458	(  2  1  2)	  0  1
     84.5432	        	        	        	        	       0	(  2  1  3)	  0  1
     84.5432	        	        	        	        	    -458	(  2  1  3)	  0  1
     86.9243	        	        	        	        	       0	(  2  1  4)	  0  1
     86.9243	        	        	        	        	    -458	(  2  1  4)	  0  1
     87.4782	        	        	        	        	       0	(  1  1 10)	  0  1
     87.4782	        	        	        	        	    -458	(  1  1 10)	  0  1
     88.0187	        	        	        	        	       0	(  2  0  9)	  0  1
     88.0187	        	        	        	        	    -458	(  2  0  9)	  0  1
     88.4339	        	        	        	        	       0	(  1  0 12)	  0  1
     88.4339	        	        	        	        	    -458	(  1  0 12)	  0  1
     89.9788	        	        	        	        	       0	(  2  1  5)	  0  1
     89.9788	        	        	        	        	    -458	(  2  1  5)	  0  1
     93.7132	        	        	        	        	       0	(  2  1  6)	  0  1
     93.7132	        	        	        	        	    -458	(  2  1  6)	  0  1
     94.4694	        	        	        	        	       0	(  2  0 10)	  0  1
     94.4694	        	        	        	        	    -458	(  2  0 10)	  0  1
     95.4780	        	        	        	        	       0	(  3  0  0)	  0  1
     95.4780	        	        	        	        	    -458	(  3  0  0)	  0  1
     95.8189	        	        	        	        	       0	(  3  0  1)	  0  1
     95.8189	        	        	        	        	    -458	(  3  0  1)	  0  1
     96.8431	        	        	        	        	       0	(  3  0  2)	  0  1
     96.8431	        	        	        	        	    -458	(  3  0  2)	  0  1
     96.9326	        	        	        	        	       0	(  1  0 13)	  0  1
     96.9326	        	        	        	        	    -458	(  1  0 13)	  0  1
     98.1490	        	        	        	        	       0	(  2  1  7)	  0  1
     98.1490	        	        	        	        	    -458	(  2  1  7)	  0  1
     98.5552	        	        	        	        	       0	(  3  0  3)	  0  1
     98.5552	        	        	        	        	    -458	(  3  0  3)	  0  1
     99.1286	        	        	        	        	       0	(  0  0 14)	  0  1
     99.1286	        	        	        	        	    -458	(  0  0 14)	  0  1
    100.9657	        	        	        	        	       0	(  3  0  4)	  0  1
    100.9657	        	        	        	        	    -458	(  3  0  4)	  0  1
    101.6713	        	        	        	        	       0	(  2  0 11)	  0  1
    101.6713	        	        	        	        	    -458	(  2  0 11)	  0  1
    102.5070	        	        	        	        	       0	(  1  1 12)	  0  1
    102.5070	        	        	        	        	    -458	(  1  1 12)	  0  1
    103.3318	        	        	        	        	       0	(  2  1  8)	  0  1
    103.3318	        	        	        	        	    -458	(  2  1  8)	  0  1
    104.0950	        	        	        	        	       0	(  3  0  5)	  0  1
    104.0950	        	        	        	        	    -458	(  3  0  5)	  0  1
    106.2975	        	        	        	        	       0	(  1  0 14)	  0  1
    106.2975	        	        	        	        	    -458	(  1  0 14)	  0  1
    107.9806	        	        	        	        	       0	(  3  0  6)	  0  1
    107.9806	        	        	        	        	    -458	(  3  0  6)	  0  1
    109.3476	        	        	        	        	       0	(  2  1  9)	  0  1
    109.3476	        	        	        	        	    -458	(  2  1  9)	  0  1
    109.7883	        	        	        	        	       0	(  2  0 12)	  0  1
    109.7883	        	        	        	        	    -458	(  2  0 12)	  0  1
    112.6883	        	        	        	        	       0	(  3  0  7)	  0  1
    112.6883	        	        	        	        	    -458	(  3  0  7)	  0  1
    116.3518	        	        	        	        	       0	(  2  1 10)	  0  1
    116.3518	        	        	        	        	    -458	(  2  1 10)	  0  1
    116.9012	        	        	        	        	       0	(  1  0 15)	  0  1
    116.9012	        	        	        	        	    -458	(  1  0 15)	  0  1
    117.4795	        	        	        	        	       0	(  2  2  0)	  0  1
    117.4795	        	        	        	        	    -458	(  2  2  0)	  0  1
    118.3338	        	        	        	        	       0	(  3  0  8)	  0  1
    118.3338	        	        	        	        	    -458	(  3  0  8)	  0  1
    119.0216	        	        	        	        	       0	(  2  2  2)	  0  1
    119.0216	        	        	        	        	    -458	(  2  2  2)	  0  1
    119.1233	        	        	        	        	       0	(  2  0 13)	  0  1
    119.1233	        	        	        	        	    -458	(  2  0 13)	  0  1
    120.9399	        	        	        	        	       0	(  0  0 16)	  0  1
    120.9399	        	        	        	        	    -458	(  0  0 16)	  0  1
    121.6461	        	        	        	        	       0	(  1  1 14)	  0  1
    121.6461	        	        	        	        	    -458	(  1  1 14)	  0  1
    123.7981	        	        	        	        	       0	(  2  2  4)	  0  1
    123.7981	        	        	        	        	    -458	(  2  2  4)	  0  1
    124.6355	        	        	        	        	       0	(  2  1 11)	  0  1
    124.6355	        	        	        	        	    -458	(  2  1 11)	  0  1
    125.1260	        	        	        	        	       0	(  3  0  9)	  0  1
    125.1260	        	        	        	        	    -458	(  3  0  9)	  0  1
    125.6966	        	        	        	        	       0	(  3  1  0)	  0  1
    125.6966	        	        	        	        	    -458	(  3  1  0)	  0  1
    126.1160	        	        	        	        	       0	(  3  1  1)	  0  1
    126.1160	        	        	        	        	    -458	(  3  1  1)	  0  1
    127.3880	        	        	        	        	       0	(  3  1  2)	  0  1
    127.3880	        	        	        	        	    -458	(  3  1  2)	  0  1
    129.5106	        	        	        	        	       0	(  1  0 16)	  0  1
    129.5106	        	        	        	        	    -458	(  1  0 16)	  0  1
    129.5578	        	        	        	        	       0	(  3  1  3)	  0  1
    129.5578	        	        	        	        	    -458	(  3  1  3)	  0  1
    130.2975	        	        	        	        	       0	(  2  0 14)	  0  1
    130.2975	        	        	        	        	    -458	(  2  0 14)	  0  1
    132.4430	        	        	        	        	       0	(  2  2  6)	  0  1
    132.4430	        	        	        	        	    -458	(  2  2  6)	  0  1
    132.7163	        	        	        	        	       0	(  3  1  4)	  0  1
    132.7163	        	        	        	        	    -458	(  3  1  4)	  0  1
    133.4753	        	        	        	        	       0	(  3  0 10)	  0  1
    133.4753	        	        	        	        	    -458	(  3  0 10)	  0  1
    134.8087	        	        	        	        	       0	(  2  1 12)	  0  1
    134.8087	        	        	        	        	    -458	(  2  1 12)	  0  1
    137.0337	        	        	        	        	       0	(  3  1  5)	  0  1
    137.0337	        	        	        	        	    -458	(  3  1  5)	  0  1
    142.8471	        	        	        	        	       0	(  3  1  6)	  0  1
    142.8471	        	        	        	        	    -458	(  3  1  6)	  0  1
    144.3550	        	        	        	        	       0	(  3  0 11)	  0  1
    144.3550	        	        	        	        	    -458	(  3  0 11)	  0  1
    144.9658	        	        	        	        	       0	(  2  0 15)	  0  1
    144.9658	        	        	        	        	    -458	(  2  0 15)	  0  1
    146.3056	        	        	        	        	       0	(  1  0 17)	  0  1
    146.3056	        	        	        	        	    -458	(  1  0 17)	  0  1
    147.2462	        	        	        	        	       0	(  2  2  8)	  0  1
    147.2462	        	        	        	        	    -458	(  2  2  8)	  0  1
    148.5515	        	        	        	        	       0	(  2  1 13)	  0  1
    148.5515	        	        	        	        	    -458	(  2  1 13)	  0  1
    150.9523	        	        	        	        	       0	(  3  1  7)	  0  1
    150.9523	        	        	        	        	    -458	(  3  1  7)	  0  1
    151.7168	        	        	        	        	       0	(  1  1 16)	  0  1
    151.7168	        	        	        	        	    -458	(  1  1 16)	  0  1
    156.5783	        	        	        	        	       0	(  0  0 18)	  0  1
    156.5783	        	        	        	        	    -458	(  0  0 18)	  0  1
    161.6804	        	        	        	        	       0	(  3  0 12)	  0  1
    161.6804	        	        	        	        	    -458	(  3  0 12)	  0  1
    161.8394	        	        	        	        	       0	(  4  0  0)	  0  1
    161.8394	        	        	        	        	    -458	(  4  0  0)	  0  1
    162.9681	        	        	        	        	       0	(  4  0  1)	  0  1
    162.9681	        	        	        	        	    -458	(  4  0  1)	  0  1
    164.4572	        	        	        	        	       0	(  3  1  8)	  0  1
    164.4572	        	        	        	        	    -458	(  3  1  8)	  0  1
    166.9130	        	        	        	        	       0	(  4  0  2)	  0  1
    166.9130	        	        	        	        	    -458	(  4  0  2)	  0  1
