MSG Master    CELL:    5.91725   5.91725  23.27472   90.0000   90.0000  120.0000   SPGR: P 63/m m c             TEMP:   1032.65
  1   1280     2.52000     0.00000    -0.12534     0.00000     0.00000    0
    99     0     2
       0.00000      10.00000
     125.00000     130.00000
 2Theta	Yobs	Ycal	Yobs-Ycal	Backg	Posr	(hkl)	K
      0.7700	    0.00	  516.40	-1719.75	  400.23
      0.8700	    0.00	  517.49	-1719.75	  401.32
      0.9700	   42.00	  518.56	-1719.75	  402.39
      1.0700	   37.00	  519.62	-1719.75	  403.45
      1.1700	   43.00	  520.67	-1719.75	  404.50
      1.2700	   31.00	  521.70	-1719.75	  405.53
      1.3700	   38.00	  522.72	-1719.75	  406.55
      1.4700	  103.00	  523.73	-1719.75	  407.55
      1.5700	  322.00	  524.72	-1719.75	  408.55
      1.6700	  448.00	  525.70	-1719.75	  409.53
      1.7700	  576.00	  526.66	-1719.75	  410.49
      1.8700	  606.00	  527.61	-1719.75	  411.44
      1.9700	  695.00	  528.55	-1719.75	  412.38
      2.0700	  776.00	  529.48	-1719.75	  413.31
      2.1700	  795.00	  530.39	-1719.75	  414.22
      2.2700	  746.00	  531.29	-1719.75	  415.12
      2.3700	  751.00	  532.18	-1719.75	  416.01
      2.4700	  708.00	  533.06	-1719.75	  416.89
      2.5700	  674.00	  533.92	-1719.75	  417.75
      2.6700	  648.00	  534.77	-1719.75	  418.60
      2.7700	  650.00	  535.61	-1719.75	  419.44
      2.8700	  620.00	  536.43	-1719.75	  420.26
      2.9700	  646.00	  537.25	-1719.75	  421.08
      3.0700	  579.00	  538.05	-1719.75	  421.88
      3.1700	  634.00	  538.84	-1719.75	  422.67
      3.2700	  585.00	  539.62	-1719.75	  423.44
      3.3700	  646.00	  540.38	-1719.75	  424.21
      3.4700	  798.00	  541.13	-1719.75	  424.96
      3.5700	  863.00	  541.88	-1719.75	  425.71
      3.6700	  915.00	  542.61	-1719.75	  426.44
      3.7700	  976.00	  543.33	-1719.75	  427.16
      3.8700	 1070.00	  544.03	-1719.75	  427.86
      3.9700	 1067.00	  544.73	-1719.75	  428.56
      4.0700	 1087.00	  545.41	-1719.75	  429.24
      4.1700	 1123.00	  546.09	-1719.75	  429.92
      4.2700	 1210.00	  546.75	-1719.75	  430.58
      4.3700	 1163.00	  547.40	-1719.75	  431.23
      4.4700	 1162.00	  548.04	-1719.75	  431.87
      4.5700	 1114.00	  548.67	-1719.75	  432.50
      4.6700	 1044.00	  549.29	-1719.75	  433.12
      4.7700	 1044.00	  549.90	-1719.75	  433.73
      4.8700	  963.00	  550.50	-1719.75	  434.33
      4.9700	 1009.00	  551.08	-1719.75	  434.91
      5.0700	  941.00	  551.66	-1719.75	  435.49
      5.1700	  914.00	  552.23	-1719.75	  436.05
      5.2700	  953.00	  552.78	-1719.75	  436.61
      5.3700	  939.00	  553.33	-1719.75	  437.15
      5.4700	  927.00	  553.86	-1719.75	  437.69
      5.5700	  802.00	  554.39	-1719.75	  438.21
      5.6700	  854.00	  554.90	-1719.75	  438.73
      5.7700	  898.00	  555.41	-1719.75	  439.23
      5.8700	  877.00	  555.90	-1719.75	  439.73
      5.9700	  784.00	  556.39	-1719.75	  440.21
      6.0700	  847.00	  556.86	-1719.75	  440.69
      6.1700	  780.00	  557.33	-1719.75	  441.16
      6.2700	  800.00	  557.78	-1719.75	  441.61
      6.3700	  764.00	  558.23	-1719.75	  442.06
      6.4700	  764.00	  558.67	-1719.75	  442.49
      6.5700	  721.00	  559.09	-1719.75	  442.92
      6.6700	  703.00	  559.51	-1719.75	  443.34
      6.7700	  742.00	  559.92	-1719.75	  443.75
      6.8700	  767.00	  560.32	-1719.75	  444.15
      6.9700	  699.00	  560.71	-1719.75	  444.54
      7.0700	  703.00	  561.09	-1719.75	  444.92
      7.1700	  677.00	  561.47	-1719.75	  445.30
      7.2700	  683.00	  561.83	-1719.75	  445.66
      7.3700	  673.00	  562.19	-1719.75	  446.01
      7.4700	  654.00	  562.53	-1719.75	  446.36
      7.5700	  654.00	  562.87	-1719.75	  446.70
      7.6700	  681.00	  563.20	-1719.75	  447.03
      7.7700	  682.00	  563.52	-1719.75	  447.35
      7.8700	  626.00	  563.83	-1719.75	  447.66
      7.9700	  649.00	  564.14	-1719.75	  447.96
      8.0700	  666.00	  564.43	-1719.75	  448.26
      8.1700	  616.00	  564.72	-1719.75	  448.55
      8.2700	  620.00	  565.00	-1719.75	  448.83
      8.3700	  617.00	  565.27	-1719.75	  449.10
      8.4700	  672.00	  565.53	-1719.75	  449.36
      8.5700	  605.00	  565.78	-1719.75	  449.61
      8.6700	  623.00	  566.03	-1719.75	  449.86
      8.7700	  626.00	  566.27	-1719.75	  450.10
      8.8700	  635.00	  566.50	-1719.75	  450.33
      8.9700	  611.00	  566.72	-1719.75	  450.55
      9.0700	  628.00	  566.94	-1719.75	  450.77
      9.1700	  598.00	  567.15	-1719.75	  450.98
      9.2700	  589.00	  567.35	-1719.75	  451.18
      9.3700	  611.00	  567.54	-1719.75	  451.37
      9.4700	  587.00	  567.73	-1719.75	  451.56
      9.5700	  598.00	  567.91	-1719.75	  451.74
      9.6700	  606.00	  568.08	-1719.75	  451.91
      9.7700	  608.00	  568.24	-1719.75	  452.07
      9.8700	  593.00	  568.40	-1719.75	  452.23
      9.9700	  584.00	  568.55	-1719.75	  452.38
     10.0700	  597.00	  569.92	-1692.67	  452.52
     10.1700	  599.00	  570.20	-1690.95	  452.65
     10.2700	  576.00	  570.50	-1714.25	  452.78
     10.3700	  573.00	  570.84	-1717.59	  452.91
     10.4700	  629.00	  571.27	-1662.02	  453.02
     10.5700	  580.00	  571.84	-1711.59	  453.13
     10.6700	  581.00	  572.64	-1711.39	  453.23
     10.7700	  605.00	  573.80	-1688.55	  453.33
     10.8700	  597.00	  575.37	-1698.12	  453.41
     10.9700	  561.00	  577.36	-1736.11	  453.50
     11.0700	  571.00	  579.76	-1728.51	  453.57
     11.1700	  569.00	  582.56	-1733.31	  453.64
     11.2700	  587.00	  585.82	-1718.57	  453.71
     11.3700	  565.00	  589.61	-1744.36	  453.76
     11.4700	  596.00	  594.08	-1717.83	  453.81
     11.5700	  591.00	  599.48	-1728.23	  453.86
     11.6700	  639.00	  606.20	-1686.95	  453.90
     11.7700	  556.00	  614.82	-1778.57	  453.93
     11.8700	  650.00	  626.02	-1695.77	  453.96
     11.9700	  648.00	  639.78	-1711.53	  453.98
     12.0700	  654.00	  653.96	-1719.71	  453.99
     12.1700	  652.00	  663.01	-1730.76	  454.00
     12.2700	  712.00	  658.98	-1666.73	  454.00
     12.3700	  652.00	  639.84	-1707.59	  454.00
     12.4700	  589.00	  616.10	-1746.85	  453.99
     12.5700	  587.00	  597.45	-1730.20	  453.98
     12.6700	  601.00	  585.98	-1704.73	  453.96
     12.7700	  584.00	  579.91	-1715.66	  453.94
     12.8700	  587.00	  576.85	-1709.60	  453.91
     12.9700	  565.00	  575.18	-1729.93	  453.87
     13.0700	  606.00	  574.11	-1687.86	  453.83
     13.1700	  570.00	  573.35	-1723.10	  453.79
     13.2700	  592.00	  572.76	-1700.51	  453.74
     13.3700	  609.00	  572.30	-1683.05	  453.68
     13.4700	  548.00	  571.91	-1743.66	  453.62
     13.5700	  560.00	  571.59	-1731.34	  453.56
     13.6700	  594.00	  571.31	-1697.06	  453.49
     13.7700	  577.00	  571.06	-1713.81	  453.41
     13.8700	  531.00	  570.83	-1759.58	  453.33
     13.9700	  589.00	  570.63	-1701.38	  453.24
     14.0700	  593.00	  570.43	-1697.18	  453.15
     14.1700	  543.00	  570.25	-1747.00	  453.06
     14.2700	  596.00	  570.07	-1693.82	  452.96
     14.3700	  562.00	  569.90	-1727.65	  452.86
     14.4700	  535.00	  569.74	-1754.49	  452.75
     14.5700	  592.00	  569.57	-1697.32	  452.64
     14.6700	  573.00	  569.41	-1716.16	  452.52
     14.7700	  553.00	  569.25	-1736.00	  452.40
     14.8700	  561.00	  569.09	-1727.84	  452.27
     14.9700	  567.00	  568.92	-1721.67	  452.14
     15.0700	  584.00	  568.76	-1704.51	  452.01
     15.1700	  536.00	  568.63	-1752.38	  451.87
     15.2700	  544.00	  568.46	-1744.21	  451.73
     15.3700	  583.00	  568.29	-1705.04	  451.58
     15.4700	  593.00	  568.12	-1694.87	  451.43
     15.5700	  564.00	  567.95	-1723.70	  451.28
     15.6700	  550.00	  567.78	-1737.53	  451.12
     15.7700	  536.00	  567.60	-1751.35	  450.96
     15.8700	  557.00	  567.42	-1730.17	  450.79
     15.9700	  589.00	  567.24	-1697.99	  450.62
     16.0700	  535.00	  567.05	-1751.80	  450.45
     16.1700	  586.00	  566.87	-1700.62	  450.27
     16.2700	  593.00	  566.68	-1693.43	  450.09
     16.3700	  540.00	  566.48	-1746.23	  449.90
     16.4700	  570.00	  566.29	-1716.04	  449.71
     16.5700	  570.00	  566.09	-1715.84	  449.52
     16.6700	  526.00	  565.89	-1759.64	  449.33
     16.7700	  547.00	  565.68	-1738.43	  449.13
     16.8700	  560.00	  565.47	-1725.22	  448.93
     16.9700	  560.00	  565.26	-1725.01	  448.72
     17.0700	  575.00	  565.05	-1709.80	  448.51
     17.1700	  541.00	  564.83	-1743.58	  448.30
     17.2700	  531.00	  564.62	-1753.37	  448.09
     17.3700	  557.00	  564.39	-1727.14	  447.87
     17.4700	  556.00	  564.17	-1727.92	  447.65
     17.5700	  562.00	  563.94	-1721.69	  447.42
     17.6700	  583.00	  563.71	-1700.46	  447.20
     17.7700	  540.00	  563.48	-1743.23	  446.97
     17.8700	  534.00	  563.36	-1749.11	  446.74
     17.9700	  556.00	  563.12	-1726.87	  446.50
     18.0700	  605.00	  562.88	-1677.63	  446.26
     18.1700	  572.00	  562.64	-1710.39	  446.02
     18.2700	  524.00	  562.40	-1758.15	  445.78
     18.3700	  527.00	  562.15	-1754.90	  445.53
     18.4700	  576.00	  561.91	-1705.66	  445.28
     18.5700	  569.00	  561.75	-1712.50	  445.03
     18.6700	  526.00	  561.50	-1755.25	  444.77
     18.7700	  546.00	  561.24	-1734.99	  444.51
     18.8700	  537.00	  560.99	-1743.74	  444.26
     18.9700	  519.00	  560.73	-1761.48	  443.99
     19.0700	  544.00	  560.47	-1736.22	  443.73
     19.1700	  566.00	  560.21	-1713.96	  443.46
     19.2700	  560.00	  559.95	-1719.70	  443.19
     19.3700	  546.00	  559.69	-1733.44	  442.92
     19.4700	  549.00	  559.42	-1730.17	  442.65
     19.5700	  533.00	  559.15	-1745.90	  442.37
     19.6700	  530.00	  558.88	-1748.63	  442.09
     19.7700	  522.00	  558.61	-1756.36	  441.81
     19.8700	  562.00	  558.34	-1716.09	  441.53
     19.9700	  563.00	  558.06	-1714.81	  441.25
     20.0700	  517.00	  557.79	-1760.54	  440.96
     20.1700	  535.00	  557.51	-1742.26	  440.67
     20.2700	  611.00	  557.23	-1665.98	  440.38
     20.3700	  537.00	  556.99	-1739.74	  440.09
     20.4700	  524.00	  556.71	-1752.46	  439.79
     20.5700	  557.00	  556.43	-1719.18	  439.50
     20.6700	  569.00	  556.15	-1706.90	  439.20
     20.7700	  564.00	  555.86	-1711.61	  438.90
     20.8700	  573.00	  555.58	-1702.33	  438.60
     20.9700	  522.00	  555.30	-1753.05	  438.30
     21.0700	  579.00	  555.01	-1695.76	  437.99
     21.1700	  526.00	  554.73	-1748.48	  437.68
     21.2700	  574.00	  554.44	-1700.19	  437.38
     21.3700	  547.00	  554.16	-1726.91	  437.07
     21.4700	  555.00	  553.87	-1718.62	  436.76
     21.5700	  560.00	  553.59	-1713.34	  436.44
     21.6700	  535.00	  553.27	-1738.02	  436.13
     21.7700	  533.00	  552.99	-1739.74	  435.82
     21.8700	  558.00	  552.71	-1714.46	  435.50
     21.9700	  568.00	  552.43	-1704.18	  435.18
     22.0700	  551.00	  552.15	-1720.90	  434.86
     22.1700	  550.00	  551.88	-1721.63	  434.54
     22.2700	  533.00	  551.61	-1738.36	  434.22
     22.3700	  498.00	  551.35	-1773.10	  433.90
     22.4700	  574.00	  551.09	-1696.84	  433.57
     22.5700	  569.00	  550.83	-1701.58	  433.25
     22.6700	  561.00	  550.58	-1709.33	  432.92
     22.7700	  547.00	  550.34	-1723.09	  432.59
     22.8700	  558.00	  550.12	-1711.87	  432.26
     22.9700	  594.00	  549.90	-1675.65	  431.94
     23.0700	  576.00	  549.70	-1693.45	  431.60
     23.1700	  547.00	  549.67	-1722.42	  431.27
     23.2700	  575.00	  549.53	-1694.28	  430.94
     23.3700	  555.00	  549.41	-1714.16	  430.61
     23.4700	  551.00	  549.35	-1718.10	  430.27
     23.5700	  535.00	  549.35	-1734.10	  429.94
     23.6700	  585.00	  549.44	-1684.19	  429.60
     23.7700	  541.00	  549.69	-1728.44	  429.27
     23.8700	  567.00	  550.22	-1702.97	  428.93
     23.9700	  555.00	  551.25	-1716.00	  428.59
     24.0700	  521.00	  553.19	-1751.94	  428.25
     24.1700	  565.00	  556.64	-1711.39	  427.91
     24.2700	  570.00	  562.34	-1712.09	  427.58
     24.3700	  572.00	  571.05	-1718.80	  427.23
     24.4700	  587.00	  583.30	-1716.05	  426.89
     24.5700	  599.00	  598.61	-1719.36	  426.55
     24.6700	  623.00	  614.23	-1710.98	  426.21
     24.7700	  643.00	  624.20	-1700.95	  425.87
     24.8700	  638.00	  621.10	-1702.85	  425.53
     24.9700	  627.00	  604.42	-1697.17	  425.18
     25.0700	  578.00	  583.87	-1725.62	  424.84
     25.1700	  559.00	  567.41	-1728.16	  424.50
     25.2700	  604.00	  556.94	-1672.69	  424.15
     25.3700	  582.00	  551.18	-1688.93	  423.81
     25.4700	  576.00	  548.19	-1691.94	  423.46
     25.5700	  552.00	  546.54	-1714.29	  423.12
     25.6700	  551.00	  545.49	-1714.24	  422.77
     25.7700	  566.00	  544.74	-1698.49	  422.43
     25.8700	  576.00	  544.18	-1687.93	  422.08
     25.9700	  569.00	  543.76	-1694.51	  421.73
     26.0700	  578.00	  543.44	-1685.19	  421.39
     26.1700	  564.00	  543.23	-1698.98	  421.04
     26.2700	  526.00	  543.10	-1736.85	  420.70
     26.3700	  557.00	  543.07	-1705.81	  420.35
     26.4700	  556.00	  543.12	-1706.87	  420.00
     26.5700	  534.00	  543.29	-1729.04	  419.66
     26.6700	  538.00	  543.58	-1725.33	  419.31
     26.7700	  569.00	  544.02	-1694.77	  418.97
     26.8700	  548.00	  544.64	-1716.39	  418.62
     26.9700	  575.00	  545.51	-1690.26	  418.27
     27.0700	  568.00	  546.70	-1698.45	  417.93
     27.1700	  555.00	  548.34	-1713.09	  417.58
     27.2700	  573.00	  550.70	-1697.45	  417.24
     27.3700	  529.00	  554.28	-1745.03	  416.89
     27.4700	  590.00	  560.06	-1689.81	  416.55
     27.5700	  483.00	  569.77	-1806.52	  416.20
     27.6700	  535.00	  586.17	-1770.92	  415.86
     27.7700	  559.00	  612.85	-1773.60	  415.52
     27.8700	  645.00	  653.00	-1727.75	  415.17
     27.9700	  689.00	  706.96	-1737.71	  414.83
     28.0700	  762.00	  769.12	-1726.87	  414.49
     28.1700	  871.00	  825.04	-1673.79	  414.14
     28.2700	  966.00	  852.18	-1605.93	  413.80
     28.3700	  904.00	  834.84	-1650.59	  413.46
     28.4700	  807.00	  790.95	-1703.70	  413.12
     28.5700	  706.00	  756.47	-1770.22	  412.78
     28.6700	  697.00	  749.76	-1772.51	  412.44
     28.7700	  735.00	  768.01	-1752.76	  412.10
     28.8700	  799.00	  793.40	-1714.15	  411.76
     28.9700	  845.00	  799.61	-1674.36	  411.42
     29.0700	  764.00	  767.71	-1723.46	  411.08
     29.1700	  714.00	  708.79	-1714.54	  410.74
     29.2700	  674.00	  649.76	-1695.51	  410.41
     29.3700	  587.00	  605.21	-1737.96	  410.07
     29.4700	  615.00	  576.91	-1681.66	  409.73
     29.5700	  588.00	  560.84	-1692.59	  409.40
     29.6700	  575.00	  552.06	-1696.81	  409.06
     29.7700	  590.00	  547.06	-1676.81	  408.73
     29.8700	  571.00	  543.95	-1692.70	  408.40
     29.9700	  559.00	  541.97	-1702.72	  408.07
     30.0700	  623.00	  540.87	-1637.62	  407.73
     30.1700	  549.00	  540.75	-1711.50	  407.40
     30.2700	  558.00	  542.09	-1703.84	  407.07
     30.3700	  548.00	  545.66	-1717.41	  406.74
     30.4700	  545.00	  552.74	-1727.49	  406.42
     30.5700	  552.00	  564.58	-1732.33	  406.09
     30.6700	  540.00	  581.44	-1761.19	  405.76
     30.7700	  610.00	  601.27	-1711.02	  405.44
     30.8700	  650.00	  618.81	-1688.56	  405.11
     30.9700	  622.00	  625.95	-1723.70	  404.79
     31.0700	  540.00	  616.47	-1796.22	  404.47
     31.1700	  574.00	  594.78	-1740.53	  404.14
     31.2700	  547.00	  571.70	-1744.45	  403.82
     31.3700	  527.00	  553.68	-1746.43	  403.50
     31.4700	  579.00	  541.97	-1682.72	  403.18
     31.5700	  552.00	  535.24	-1702.99	  402.87
     31.6700	  575.00	  531.57	-1676.32	  402.55
     31.7700	  492.00	  529.51	-1757.26	  402.23
     31.8700	  531.00	  528.23	-1716.98	  401.92
     31.9700	  571.00	  527.37	-1676.12	  401.61
     32.0700	  597.00	  526.78	-1649.53	  401.29
     32.1700	  513.00	  526.39	-1733.14	  400.98
     32.2700	  531.00	  526.18	-1714.93	  400.67
     32.3700	  548.00	  526.15	-1697.90	  400.36
     32.4700	  537.00	  526.29	-1709.04	  400.05
     32.5700	  568.00	  526.63	-1678.38	  399.75
     32.6700	  544.00	  527.21	-1702.96	  399.44
     32.7700	  546.00	  528.07	-1701.82	  399.14
     32.8700	  574.00	  529.31	-1675.06	  398.83
     32.9700	  570.00	  531.05	-1680.80	  398.53
     33.0700	  569.00	  533.57	-1684.32	  398.23
     33.1700	  567.00	  537.39	-1690.14	  397.93
     33.2700	  551.00	  543.65	-1712.40	  397.63
     33.3700	  555.00	  554.65	-1719.40	  397.34
     33.4700	  525.00	  574.50	-1769.25	  397.04
     33.5700	  592.00	  609.30	-1737.05	  396.75
     33.6700	  650.00	  665.49	-1735.24	  396.46
     33.7700	  759.00	  745.31	-1706.06	  396.16
     33.8700	  880.00	  840.30	-1680.05	  395.87
     33.9700	  977.00	  926.97	-1669.72	  395.58
     34.0700	 1044.00	  969.03	-1644.78	  395.30
     34.1700	 1035.00	  937.36	-1622.11	  395.01
     34.2700	  869.00	  846.46	-1697.21	  394.73
     34.3700	  766.00	  742.50	-1696.25	  394.44
     34.4700	  676.00	  657.13	-1700.88	  394.16
     34.5700	  559.00	  599.32	-1760.07	  393.88
     34.6700	  567.00	  565.15	-1717.91	  393.60
     34.7700	  579.00	  546.55	-1687.30	  393.32
     34.8700	  571.00	  536.40	-1685.15	  393.05
     34.9700	  529.00	  530.34	-1721.09	  392.77
     35.0700	  553.00	  526.26	-1693.01	  392.50
     35.1700	  493.00	  523.23	-1749.98	  392.23
     35.2700	  539.00	  520.85	-1701.60	  391.96
     35.3700	  504.00	  518.92	-1734.67	  391.69
     35.4700	  503.00	  517.33	-1734.08	  391.42
     35.5700	  516.00	  515.98	-1719.73	  391.16
     35.6700	  515.00	  514.83	-1719.58	  390.89
     35.7700	  484.00	  513.83	-1749.58	  390.63
     35.8700	  514.00	  513.42	-1719.17	  390.37
     35.9700	  467.00	  512.66	-1765.41	  390.11
     36.0700	  536.00	  511.97	-1695.72	  389.85
     36.1700	  538.00	  511.36	-1693.11	  389.59
     36.2700	  497.00	  510.80	-1733.55	  389.34
     36.3700	  544.00	  510.30	-1686.05	  389.09
     36.4700	  502.00	  509.86	-1727.61	  388.84
     36.5700	  536.00	  509.46	-1693.21	  388.59
     36.6700	  495.00	  509.12	-1733.87	  388.34
     36.7700	  525.00	  508.85	-1703.60	  388.09
     36.8700	  527.00	  508.68	-1701.43	  387.85
     36.9700	  483.00	  508.70	-1745.45	  387.60
     37.0700	  500.00	  509.05	-1728.80	  387.36
     37.1700	  546.00	  509.96	-1683.71	  387.12
     37.2700	  484.00	  511.76	-1747.51	  386.88
     37.3700	  535.00	  514.63	-1699.38	  386.65
     37.4700	  510.00	  518.44	-1728.19	  386.41
     37.5700	  536.00	  522.40	-1706.15	  386.18
     37.6700	  518.00	  525.13	-1726.88	  385.95
     37.7700	  514.00	  525.13	-1730.88	  385.72
     37.8700	  526.00	  522.19	-1715.94	  385.49
     37.9700	  516.00	  517.83	-1721.58	  385.26
     38.0700	  489.00	  513.56	-1744.31	  385.04
     38.1700	  520.00	  510.08	-1709.83	  384.81
     38.2700	  468.00	  507.52	-1759.27	  384.59
     38.3700	  557.00	  505.79	-1668.54	  384.37
     38.4700	  512.00	  504.65	-1712.40	  384.16
     38.5700	  481.00	  503.87	-1742.62	  383.94
     38.6700	  476.00	  503.48	-1747.23	  383.73
     38.7700	  547.00	  502.95	-1675.70	  383.51
     38.8700	  506.00	  502.60	-1716.35	  383.30
     38.9700	  515.00	  502.29	-1707.04	  383.09
     39.0700	  490.00	  502.02	-1731.77	  382.89
     39.1700	  513.00	  501.77	-1708.52	  382.68
     39.2700	  511.00	  501.53	-1710.28	  382.48
     39.3700	  539.00	  501.31	-1682.06	  382.28
     39.4700	  529.00	  501.10	-1691.85	  382.08
     39.5700	  529.00	  500.82	-1691.57	  381.88
     39.6700	  473.00	  500.64	-1747.39	  381.68
     39.7700	  515.00	  500.47	-1705.22	  381.49
     39.8700	  505.00	  500.30	-1715.05	  381.30
     39.9700	  470.00	  500.15	-1749.90	  381.11
     40.0700	  481.00	  500.01	-1738.76	  380.92
     40.1700	  514.00	  499.88	-1705.63	  380.73
     40.2700	  519.00	  499.77	-1700.52	  380.54
     40.3700	  483.00	  499.67	-1736.42	  380.36
     40.4700	  496.00	  499.58	-1723.33	  380.18
     40.5700	  515.00	  499.51	-1704.26	  380.00
     40.6700	  480.00	  499.46	-1739.21	  379.82
     40.7700	  488.00	  499.43	-1731.18	  379.64
     40.8700	  493.00	  499.43	-1726.18	  379.47
     40.9700	  461.00	  499.46	-1758.21	  379.30
     41.0700	  471.00	  500.00	-1748.75	  379.13
     41.1700	  445.00	  500.12	-1774.87	  378.96
     41.2700	  507.00	  500.30	-1713.05	  378.79
     41.3700	  446.00	  500.55	-1774.30	  378.63
     41.4700	  499.00	  500.89	-1721.64	  378.46
     41.5700	  494.00	  501.37	-1727.12	  378.30
     41.6700	  553.00	  502.06	-1668.81	  378.14
     41.7700	  523.00	  503.08	-1699.83	  377.99
     41.8700	  542.00	  504.82	-1682.57	  377.83
     41.9700	  488.00	  507.89	-1739.64	  377.68
     42.0700	  508.00	  513.44	-1725.19	  377.53
     42.1700	  495.00	  523.13	-1747.88	  377.38
     42.2700	  543.00	  538.54	-1715.29	  377.23
     42.3700	  586.00	  560.48	-1694.23	  377.08
     42.4700	  579.00	  587.34	-1728.09	  376.94
     42.5700	  547.00	  613.60	-1786.35	  376.79
     42.6700	  572.00	  630.53	-1778.28	  376.65
     42.7700	  623.00	  629.75	-1726.50	  376.51
     42.8700	  572.00	  611.03	-1758.78	  376.38
     42.9700	  552.00	  583.39	-1751.14	  376.24
     43.0700	  504.00	  556.31	-1772.06	  376.11
     43.1700	  529.00	  534.86	-1725.61	  375.98
     43.2700	  514.00	  520.15	-1725.90	  375.85
     43.3700	  525.00	  511.35	-1706.10	  375.72
     43.4700	  485.00	  506.25	-1741.00	  375.60
     43.5700	  512.00	  503.41	-1711.16	  375.47
     43.6700	  538.00	  501.75	-1683.50	  375.35
     43.7700	  482.00	  500.67	-1738.42	  375.23
     43.8700	  460.00	  499.89	-1759.64	  375.11
     43.9700	  523.00	  499.31	-1696.06	  375.00
     44.0700	  517.00	  498.85	-1701.60	  374.88
     44.1700	  486.00	  498.49	-1732.24	  374.77
     44.2700	  488.00	  498.20	-1729.95	  374.66
     44.3700	  473.00	  497.98	-1744.73	  374.55
     44.4700	  509.00	  497.80	-1708.55	  374.44
     44.5700	  497.00	  497.66	-1720.41	  374.34
     44.6700	  516.00	  497.56	-1701.31	  374.24
     44.7700	  485.00	  497.69	-1732.44	  374.14
     44.8700	  514.00	  497.65	-1703.40	  374.04
     44.9700	  491.00	  497.65	-1726.40	  373.94
     45.0700	  509.00	  497.67	-1708.42	  373.84
     45.1700	  498.00	  497.71	-1719.46	  373.75
     45.2700	  491.00	  497.64	-1726.39	  373.66
     45.3700	  501.00	  497.74	-1716.49	  373.57
     45.4700	  513.00	  497.87	-1704.62	  373.48
     45.5700	  516.00	  498.02	-1701.77	  373.39
     45.6700	  516.00	  498.19	-1701.94	  373.31
     45.7700	  515.00	  498.40	-1703.15	  373.23
     45.8700	  476.00	  498.64	-1742.40	  373.15
     45.9700	  485.00	  498.92	-1733.67	  373.07
     46.0700	  493.00	  499.24	-1725.99	  372.99
     46.1700	  475.00	  499.61	-1744.36	  372.91
     46.2700	  473.00	  500.07	-1746.82	  372.84
     46.3700	  529.00	  500.54	-1691.29	  372.77
     46.4700	  492.00	  501.09	-1728.84	  372.70
     46.5700	  490.00	  501.79	-1731.54	  372.63
     46.6700	  467.00	  502.57	-1755.32	  372.57
     46.7700	  509.00	  503.48	-1714.23	  372.50
     46.8700	  487.00	  504.61	-1737.36	  372.44
     46.9700	  553.00	  506.15	-1672.90	  372.38
     47.0700	  539.00	  508.41	-1689.16	  372.32
     47.1700	  528.00	  511.98	-1703.73	  372.26
     47.2700	  510.00	  517.74	-1727.49	  372.21
     47.3700	  510.00	  526.73	-1736.48	  372.15
     47.4700	  545.00	  539.80	-1714.55	  372.10
     47.5700	  588.00	  556.93	-1688.68	  372.05
     47.6700	  571.00	  576.46	-1725.21	  372.00
     47.7700	  601.00	  594.60	-1713.35	  371.96
     47.8700	  626.00	  605.84	-1699.59	  371.91
     47.9700	  592.00	  605.68	-1733.43	  371.87
     48.0700	  584.00	  594.80	-1730.55	  371.83
     48.1700	  571.00	  578.63	-1727.38	  371.79
     48.2700	  572.00	  562.69	-1710.44	  371.75
     48.3700	  562.00	  550.22	-1707.97	  371.72
     48.4700	  519.00	  542.36	-1743.11	  371.68
     48.5700	  492.00	  538.88	-1766.63	  371.65
     48.6700	  548.00	  538.93	-1710.68	  371.62
     48.7700	  551.00	  541.63	-1710.38	  371.59
     48.8700	  557.00	  546.47	-1709.22	  371.56
     48.9700	  520.00	  553.72	-1753.47	  371.54
     49.0700	  509.00	  563.20	-1773.95	  371.51
     49.1700	  523.00	  576.68	-1773.43	  371.49
     49.2700	  566.00	  597.20	-1750.95	  371.47
     49.3700	  599.00	  630.56	-1751.31	  371.45
     49.4700	  646.00	  686.59	-1760.34	  371.44
     49.5700	  722.00	  779.50	-1777.25	  371.42
     49.6700	  847.00	  925.98	-1798.73	  371.41
     49.7700	 1074.00	 1139.43	-1785.18	  371.39
     49.8700	 1354.00	 1420.88	-1786.63	  371.38
     49.9700	 1775.00	 1748.18	-1692.93	  371.38
     50.0700	 2011.00	 2066.93	-1775.68	  371.37
     50.1700	 2444.00	 2290.90	-1566.65	  371.36
     50.2700	 2446.00	 2333.32	-1607.07	  371.36
     50.3700	 2279.00	 2173.12	-1613.87	  371.36
     50.4700	 1893.00	 1879.18	-1705.93	  371.36
     50.5700	 1517.00	 1548.56	-1751.31	  371.36
     50.6700	 1184.00	 1250.70	-1786.45	  371.36
     50.7700	  865.00	 1018.82	-1873.57	  371.37
     50.8700	  774.00	  858.48	-1804.23	  371.37
     50.9700	  653.00	  758.02	-1824.77	  371.38
     51.0700	  711.00	  698.46	-1707.21	  371.39
     51.1700	  642.00	  661.47	-1739.22	  371.40
     51.2700	  624.00	  634.42	-1730.17	  371.41
     51.3700	  599.00	  611.73	-1732.48	  371.43
     51.4700	  585.00	  592.25	-1727.00	  371.44
     51.5700	  553.00	  576.43	-1743.18	  371.46
     51.6700	  516.00	  563.95	-1767.70	  371.48
     51.7700	  581.00	  554.88	-1693.63	  371.50
     51.8700	  494.00	  548.69	-1774.44	  371.52
     51.9700	  547.00	  544.74	-1717.49	  371.54
     52.0700	  602.00	  542.48	-1660.23	  371.57
     52.1700	  558.00	  541.55	-1703.30	  371.59
     52.2700	  537.00	  541.82	-1724.57	  371.62
     52.3700	  576.00	  543.43	-1687.18	  371.65
     52.4700	  574.00	  546.93	-1692.68	  371.68
     52.5700	  601.00	  553.57	-1672.32	  371.71
     52.6700	  574.00	  565.68	-1711.43	  371.75
     52.7700	  596.00	  587.12	-1710.87	  371.78
     52.8700	  631.00	  623.23	-1711.98	  371.82
     52.9700	  731.00	  679.93	-1668.68	  371.86
     53.0700	  785.00	  761.45	-1696.20	  371.89
     53.1700	  917.00	  867.15	-1669.90	  371.94
     53.2700	  987.00	  987.99	-1720.74	  371.98
     53.3700	 1069.00	 1104.06	-1754.81	  372.02
     53.4700	 1195.00	 1185.28	-1710.03	  372.07
     53.5700	 1208.00	 1202.13	-1713.88	  372.11
     53.6700	 1057.00	 1147.01	-1809.76	  372.16
     53.7700	 1052.00	 1042.00	-1709.75	  372.21
     53.8700	  925.00	  919.94	-1714.69	  372.26
     53.9700	  774.00	  806.01	-1751.76	  372.31
     54.0700	  681.00	  713.79	-1752.54	  372.36
     54.1700	  626.00	  647.08	-1740.83	  372.42
     54.2700	  605.00	  603.29	-1718.04	  372.48
     54.3700	  559.00	  576.83	-1737.58	  372.53
     54.4700	  572.00	  561.85	-1709.60	  372.59
     54.5700	  586.00	  553.80	-1687.55	  372.65
     54.6700	  565.00	  549.65	-1704.40	  372.71
     54.7700	  524.00	  547.75	-1743.50	  372.77
     54.8700	  580.00	  547.28	-1687.03	  372.84
     54.9700	  588.00	  547.87	-1679.62	  372.90
     55.0700	  546.00	  549.38	-1723.13	  372.97
     55.1700	  556.00	  551.78	-1715.53	  373.04
     55.2700	  548.00	  555.13	-1726.88	  373.10
     55.3700	  574.00	  559.53	-1705.28	  373.17
     55.4700	  547.00	  565.28	-1738.03	  373.25
     55.5700	  630.00	  572.80	-1662.55	  373.32
     55.6700	  573.00	  582.95	-1729.70	  373.39
     55.7700	  615.00	  597.46	-1702.21	  373.47
     55.8700	  588.00	  619.62	-1751.37	  373.54
     55.9700	  645.00	  655.31	-1730.06	  373.62
     56.0700	  691.00	  713.94	-1742.69	  373.70
     56.1700	  784.00	  808.73	-1744.48	  373.78
     56.2700	  866.00	  954.97	-1808.72	  373.86
     56.3700	 1124.00	 1165.85	-1761.60	  373.94
     56.4700	 1413.00	 1445.60	-1752.35	  374.02
     56.5700	 1768.00	 1781.56	-1733.31	  374.10
     56.6700	 2145.00	 2137.50	-1712.25	  374.19
     56.7700	 2403.00	 2449.55	-1766.30	  374.28
     56.8700	 2610.00	 2634.71	-1744.46	  374.36
     56.9700	 2585.00	 2627.73	-1762.48	  374.45
     57.0700	 2378.00	 2430.96	-1772.71	  374.54
     57.1700	 2089.00	 2113.44	-1744.19	  374.63
     57.2700	 1704.00	 1758.84	-1774.59	  374.72
     57.3700	 1410.00	 1429.13	-1738.88	  374.81
     57.4700	 1143.00	 1158.37	-1735.12	  374.91
     57.5700	  914.00	  957.59	-1763.34	  375.00
     57.6700	  809.00	  821.76	-1732.51	  375.10
     57.7700	  791.00	  737.92	-1666.67	  375.19
     57.8700	  728.00	  691.85	-1683.60	  375.29
     57.9700	  699.00	  672.28	-1693.03	  375.39
     58.0700	  700.00	  672.31	-1692.06	  375.49
     58.1700	  774.00	  688.79	-1634.54	  375.59
     58.2700	  708.00	  720.95	-1732.70	  375.69
     58.3700	  773.00	  768.67	-1715.42	  375.79
     58.4700	  863.00	  830.93	-1687.68	  375.89
     58.5700	  943.00	  904.34	-1681.09	  376.00
     58.6700	 1058.00	  982.30	-1644.05	  376.10
     58.7700	 1160.00	 1056.36	-1616.11	  376.21
     58.8700	 1305.00	 1120.00	-1534.75	  376.31
     58.9700	 1308.00	 1169.82	-1581.57	  376.42
     59.0700	 1367.00	 1201.92	-1554.67	  376.53
     59.1700	 1357.00	 1211.66	-1574.41	  376.64
     59.2700	 1363.00	 1199.92	-1556.67	  376.75
     59.3700	 1374.00	 1175.93	-1521.68	  376.86
     59.4700	 1257.00	 1150.96	-1613.71	  376.97
     59.5700	 1152.00	 1133.40	-1701.15	  377.08
     59.6700	 1177.00	 1130.45	-1673.20	  377.19
     59.7700	 1199.00	 1150.57	-1671.32	  377.31
     59.8700	 1221.00	 1199.96	-1698.71	  377.42
     59.9700	 1329.00	 1276.68	-1667.43	  377.54
     60.0700	 1364.00	 1367.50	-1723.25	  377.65
     60.1700	 1468.00	 1447.95	-1699.70	  377.77
     60.2700	 1516.00	 1487.05	-1690.80	  377.89
     60.3700	 1530.00	 1461.58	-1651.33	  378.01
     60.4700	 1382.00	 1372.13	-1709.88	  378.12
     60.5700	 1296.00	 1241.48	-1665.23	  378.24
     60.6700	 1104.00	 1097.71	-1713.46	  378.36
     60.7700	  957.00	  962.71	-1725.46	  378.48
     60.8700	  837.00	  849.65	-1732.40	  378.61
     60.9700	  720.00	  764.25	-1764.00	  378.73
     61.0700	  686.00	  706.86	-1740.61	  378.85
     61.1700	  649.00	  675.12	-1745.87	  378.97
     61.2700	  670.00	  666.52	-1716.27	  379.10
     61.3700	  682.00	  680.04	-1717.79	  379.22
     61.4700	  661.00	  716.73	-1775.48	  379.35
     61.5700	  761.00	  778.76	-1737.51	  379.47
     61.6700	  837.00	  867.70	-1750.45	  379.60
     61.7700	  930.00	  981.82	-1771.57	  379.73
     61.8700	 1028.00	 1113.93	-1805.68	  379.85
     61.9700	 1180.00	 1249.45	-1789.20	  379.98
     62.0700	 1345.00	 1365.77	-1740.52	  380.11
     62.1700	 1377.00	 1435.35	-1778.10	  380.24
     62.2700	 1418.00	 1436.61	-1738.36	  380.37
     62.3700	 1256.00	 1368.54	-1832.29	  380.50
     62.4700	 1170.00	 1251.53	-1801.28	  380.63
     62.5700	 1020.00	 1113.32	-1813.07	  380.76
     62.6700	  954.00	  976.89	-1742.64	  380.89
     62.7700	  783.00	  857.12	-1793.87	  381.02
     62.8700	  718.00	  761.20	-1762.95	  381.15
     62.9700	  648.00	  690.24	-1761.99	  381.28
     63.0700	  622.00	  641.34	-1739.09	  381.41
     63.1700	  628.00	  609.74	-1701.49	  381.55
     63.2700	  568.00	  590.55	-1742.30	  381.68
     63.3700	  567.00	  579.86	-1732.61	  381.81
     63.4700	  569.00	  575.14	-1725.89	  381.95
     63.5700	  581.00	  575.24	-1713.99	  382.08
     63.6700	  620.00	  580.28	-1680.03	  382.22
     63.7700	  626.00	  591.31	-1685.06	  382.35
     63.8700	  672.00	  610.05	-1657.80	  382.49
     63.9700	  642.00	  638.30	-1716.05	  382.62
     64.0700	  711.00	  677.41	-1686.16	  382.76
     64.1700	  767.00	  727.42	-1680.17	  382.89
     64.2700	  825.00	  786.26	-1681.01	  383.03
     64.3700	  900.00	  849.06	-1668.81	  383.17
     64.4700	  974.00	  907.98	-1653.73	  383.30
     64.5700	  962.00	  952.91	-1710.66	  383.44
     64.6700	 1029.00	  974.58	-1665.33	  383.58
     64.7700	 1055.00	  970.27	-1635.02	  383.72
     64.8700	  953.00	  942.24	-1708.99	  383.85
     64.9700	  971.00	  897.51	-1646.26	  383.99
     65.0700	  879.00	  844.83	-1685.58	  384.13
     65.1700	  811.00	  791.98	-1700.73	  384.27
     65.2700	  717.00	  743.95	-1746.70	  384.40
     65.3700	  720.00	  702.68	-1702.43	  384.54
     65.4700	  657.00	  668.22	-1730.97	  384.68
     65.5700	  652.00	  639.97	-1707.72	  384.82
     65.6700	  617.00	  617.40	-1720.15	  384.96
     65.7700	  580.00	  599.92	-1739.67	  385.10
     65.8700	  515.00	  587.00	-1791.75	  385.23
     65.9700	  565.00	  577.77	-1732.52	  385.37
     66.0700	  579.00	  571.73	-1712.48	  385.51
     66.1700	  586.00	  568.37	-1702.12	  385.65
     66.2700	  544.00	  567.24	-1742.99	  385.79
     66.3700	  530.00	  568.01	-1757.76	  385.93
     66.4700	  531.00	  570.46	-1759.21	  386.07
     66.5700	  568.00	  574.64	-1726.39	  386.20
     66.6700	  552.00	  580.92	-1748.67	  386.34
     66.7700	  581.00	  590.20	-1728.95	  386.48
     66.8700	  594.00	  604.18	-1729.93	  386.62
     66.9700	  621.00	  625.88	-1724.63	  386.76
     67.0700	  637.00	  659.52	-1742.27	  386.90
     67.1700	  686.00	  711.42	-1745.17	  387.03
     67.2700	  791.00	  789.24	-1717.99	  387.17
     67.3700	  933.00	  901.19	-1687.94	  387.31
     67.4700	 1058.00	 1054.08	-1715.83	  387.45
     67.5700	 1271.00	 1250.34	-1699.09	  387.58
     67.6700	 1484.00	 1485.71	-1721.46	  387.72
     67.7700	 1801.00	 1746.31	-1665.06	  387.86
     67.8700	 2047.00	 2007.31	-1680.06	  388.00
     67.9700	 2261.00	 2232.45	-1691.20	  388.13
     68.0700	 2387.00	 2378.89	-1711.64	  388.27
     68.1700	 2431.00	 2410.68	-1699.43	  388.41
     68.2700	 2303.00	 2319.15	-1735.90	  388.54
     68.3700	 2065.00	 2128.53	-1783.28	  388.68
     68.4700	 1921.00	 1880.74	-1679.49	  388.81
     68.5700	 1586.00	 1616.26	-1750.01	  388.95
     68.6700	 1402.00	 1366.18	-1683.93	  389.08
     68.7700	 1074.00	 1149.64	-1795.39	  389.22
     68.8700	  929.00	  975.42	-1766.17	  389.35
     68.9700	  835.00	  844.10	-1728.85	  389.49
     69.0700	  731.00	  750.60	-1739.35	  389.62
     69.1700	  669.00	  687.20	-1737.95	  389.75
     69.2700	  650.00	  645.78	-1715.53	  389.89
     69.3700	  615.00	  619.28	-1724.03	  390.02
     69.4700	  562.00	  602.39	-1760.14	  390.15
     69.5700	  604.00	  591.46	-1707.21	  390.29
     69.6700	  604.00	  584.15	-1699.90	  390.42
     69.7700	  595.00	  579.13	-1703.88	  390.55
     69.8700	  604.00	  575.66	-1691.41	  390.68
     69.9700	  593.00	  573.34	-1700.09	  390.81
     70.0700	  549.00	  571.96	-1742.71	  390.94
     70.1700	  564.00	  571.45	-1727.20	  391.07
     70.2700	  595.00	  571.84	-1696.59	  391.20
     70.3700	  572.00	  573.19	-1720.94	  391.33
     70.4700	  606.00	  575.80	-1689.55	  391.46
     70.5700	  577.00	  580.11	-1722.86	  391.58
     70.6700	  573.00	  587.02	-1733.77	  391.71
     70.7700	  541.00	  598.00	-1776.75	  391.84
     70.8700	  582.00	  615.31	-1753.06	  391.96
     70.9700	  628.00	  642.20	-1733.95	  392.09
     71.0700	  681.00	  682.89	-1721.64	  392.21
     71.1700	  780.00	  742.33	-1682.08	  392.34
     71.2700	  813.00	  826.26	-1733.01	  392.46
     71.3700	  921.00	  936.74	-1735.49	  392.58
     71.4700	 1040.00	 1075.59	-1755.34	  392.71
     71.5700	 1222.00	 1239.48	-1737.23	  392.83
     71.6700	 1306.00	 1419.56	-1833.31	  392.95
     71.7700	 1518.00	 1600.67	-1802.42	  393.07
     71.8700	 1745.00	 1761.34	-1736.09	  393.19
     71.9700	 1865.00	 1875.70	-1730.45	  393.31
     72.0700	 1931.00	 1920.20	-1708.95	  393.43
     72.1700	 1863.00	 1884.26	-1741.01	  393.55
     72.2700	 1755.00	 1776.57	-1741.32	  393.67
     72.3700	 1689.00	 1619.79	-1650.54	  393.78
     72.4700	 1417.00	 1439.93	-1742.68	  393.90
     72.5700	 1379.00	 1259.04	-1599.79	  394.01
     72.6700	 1190.00	 1092.91	-1622.66	  394.13
     72.7700	  963.00	  950.89	-1707.64	  394.24
     72.8700	  864.00	  836.71	-1692.46	  394.36
     72.9700	  820.00	  749.32	-1649.07	  394.47
     73.0700	  725.00	  686.22	-1680.97	  394.58
     73.1700	  725.00	  642.19	-1636.94	  394.69
     73.2700	  682.00	  612.33	-1650.08	  394.80
     73.3700	  641.00	  592.40	-1671.15	  394.91
     73.4700	  675.00	  579.10	-1623.85	  395.02
     73.5700	  594.00	  570.10	-1695.85	  395.13
     73.6700	  577.00	  563.90	-1706.65	  395.23
     73.7700	  583.00	  559.56	-1696.31	  395.34
     73.8700	  580.00	  556.53	-1696.28	  395.44
     73.9700	  580.00	  554.48	-1694.23	  395.55
     74.0700	  568.00	  553.21	-1704.96	  395.65
     74.1700	  620.00	  552.54	-1652.29	  395.75
     74.2700	  583.00	  552.30	-1689.05	  395.86
     74.3700	  590.00	  552.30	-1682.05	  395.96
     74.4700	  613.00	  552.31	-1659.06	  396.06
     74.5700	  600.00	  552.11	-1671.86	  396.16
     74.6700	  622.00	  551.51	-1649.26	  396.25
     74.7700	  634.00	  550.44	-1636.19	  396.35
     74.8700	  620.00	  549.01	-1648.76	  396.45
     74.9700	  656.00	  547.44	-1611.19	  396.54
     75.0700	  590.00	  546.00	-1675.75	  396.64
     75.1700	  614.00	  544.98	-1650.73	  396.73
     75.2700	  580.00	  544.72	-1684.47	  396.82
     75.3700	  562.00	  545.51	-1703.26	  396.91
     75.4700	  591.00	  547.88	-1676.63	  397.00
     75.5700	  580.00	  552.22	-1691.97	  397.09
     75.6700	  605.00	  559.02	-1673.77	  397.18
     75.7700	  579.00	  568.70	-1709.45	  397.27
     75.8700	  588.00	  581.44	-1713.19	  397.35
     75.9700	  607.00	  597.40	-1710.15	  397.44
     76.0700	  617.00	  616.04	-1718.79	  397.52
     76.1700	  604.00	  636.38	-1752.13	  397.60
     76.2700	  674.00	  656.99	-1702.74	  397.69
     76.3700	  698.00	  675.72	-1697.47	  397.77
     76.4700	  652.00	  690.07	-1757.82	  397.85
     76.5700	  634.00	  697.58	-1783.33	  397.93
     76.6700	  674.00	  696.73	-1742.48	  398.00
     76.7700	  719.00	  687.66	-1688.41	  398.08
     76.8700	  632.00	  672.11	-1759.86	  398.15
     76.9700	  649.00	  652.57	-1723.32	  398.23
     77.0700	  634.00	  631.52	-1717.27	  398.30
     77.1700	  561.00	  610.93	-1769.68	  398.37
     77.2700	  611.00	  592.21	-1700.96	  398.44
     77.3700	  575.00	  576.02	-1720.77	  398.51
     77.4700	  527.00	  563.05	-1755.80	  398.58
     77.5700	  537.00	  553.06	-1735.81	  398.65
     77.6700	  504.00	  545.68	-1761.43	  398.71
     77.7700	  537.00	  540.44	-1723.19	  398.78
     77.8700	  506.00	  536.83	-1750.58	  398.84
     77.9700	  483.00	  534.42	-1771.17	  398.90
     78.0700	  493.00	  532.82	-1759.57	  398.96
     78.1700	  527.00	  531.76	-1724.51	  399.02
     78.2700	  544.00	  531.07	-1706.82	  399.08
     78.3700	  501.00	  530.62	-1749.37	  399.14
     78.4700	  498.00	  530.34	-1752.09	  399.20
     78.5700	  536.00	  530.19	-1713.94	  399.25
     78.6700	  518.00	  530.16	-1731.91	  399.30
     78.7700	  514.00	  530.26	-1736.01	  399.36
     78.8700	  524.00	  530.49	-1726.24	  399.41
     78.9700	  549.00	  530.88	-1701.63	  399.46
     79.0700	  486.00	  531.48	-1765.23	  399.50
     79.1700	  550.00	  532.30	-1702.05	  399.55
     79.2700	  521.00	  533.40	-1732.15	  399.60
     79.3700	  508.00	  534.81	-1746.56	  399.64
     79.4700	  535.00	  536.58	-1721.33	  399.68
     79.5700	  537.00	  538.75	-1721.50	  399.73
     79.6700	  512.00	  541.37	-1749.12	  399.77
     79.7700	  518.00	  544.32	-1746.07	  399.81
     79.8700	  567.00	  548.07	-1700.82	  399.84
     79.9700	  509.00	  552.56	-1763.31	  399.88
     80.0700	  549.00	  557.95	-1728.70	  399.91
     80.1700	  544.00	  564.51	-1740.26	  399.95
     80.2700	  576.00	  572.57	-1716.32	  399.98
     80.3700	  552.00	  582.44	-1750.19	  400.01
     80.4700	  624.00	  594.38	-1690.13	  400.04
     80.5700	  618.00	  608.44	-1710.19	  400.07
     80.6700	  614.00	  624.42	-1730.17	  400.09
     80.7700	  620.00	  641.80	-1741.55	  400.12
     80.8700	  621.00	  659.76	-1758.51	  400.14
     80.9700	  664.00	  677.19	-1732.94	  400.16
     81.0700	  674.00	  692.95	-1738.70	  400.18
     81.1700	  724.00	  705.98	-1701.73	  400.20
     81.2700	  740.00	  715.43	-1695.18	  400.22
     81.3700	  728.00	  720.68	-1712.43	  400.24
     81.4700	  745.00	  721.39	-1696.14	  400.25
     81.5700	  761.00	  717.55	-1676.30	  400.27
     81.6700	  706.00	  709.40	-1723.15	  400.28
     81.7700	  733.00	  697.44	-1684.19	  400.29
     81.8700	  724.00	  682.48	-1678.23	  400.30
     81.9700	  692.00	  665.61	-1693.36	  400.30
     82.0700	  673.00	  648.06	-1694.81	  400.31
     82.1700	  673.00	  630.84	-1677.59	  400.32
     82.2700	  629.00	  614.72	-1705.47	  400.32
     82.3700	  649.00	  600.15	-1670.90	  400.32
     82.4700	  600.00	  587.37	-1707.12	  400.32
     82.5700	  559.00	  576.51	-1737.26	  400.32
     82.6700	  552.00	  567.62	-1735.37	  400.32
     82.7700	  558.00	  560.62	-1722.37	  400.31
     82.8700	  549.00	  555.56	-1726.31	  400.30
     82.9700	  564.00	  552.28	-1708.03	  400.30
     83.0700	  518.00	  550.68	-1752.43	  400.29
     83.1700	  555.00	  550.60	-1715.35	  400.28
     83.2700	  552.00	  551.95	-1719.70	  400.26
     83.3700	  545.00	  554.54	-1729.29	  400.25
     83.4700	  534.00	  558.11	-1743.86	  400.24
     83.5700	  510.00	  562.37	-1772.12	  400.22
     83.6700	  563.00	  566.91	-1723.66	  400.20
     83.7700	  507.00	  571.29	-1784.04	  400.18
     83.8700	  582.00	  574.97	-1712.72	  400.16
     83.9700	  554.00	  577.40	-1743.15	  400.14
     84.0700	  584.00	  578.17	-1713.92	  400.11
     84.1700	  591.00	  577.07	-1705.82	  400.08
     84.2700	  565.00	  574.24	-1728.99	  400.06
     84.3700	  523.00	  570.05	-1766.80	  400.03
     84.4700	  496.00	  565.00	-1788.75	  400.00
     84.5700	  571.00	  559.57	-1708.32	  399.96
     84.6700	  562.00	  554.16	-1711.91	  399.93
     84.7700	  559.00	  549.10	-1709.85	  399.89
     84.8700	  503.00	  544.59	-1761.34	  399.86
     84.9700	  540.00	  540.76	-1720.51	  399.82
     85.0700	  524.00	  537.64	-1733.39	  399.78
     85.1700	  519.00	  535.22	-1735.97	  399.73
     85.2700	  534.00	  533.41	-1719.16	  399.69
     85.3700	  536.00	  532.14	-1715.89	  399.65
     85.4700	  498.00	  531.33	-1753.08	  399.60
     85.5700	  522.00	  530.91	-1728.66	  399.55
     85.6700	  496.00	  530.82	-1754.57	  399.50
     85.7700	  512.00	  531.07	-1738.82	  399.45
     85.8700	  543.00	  531.68	-1708.43	  399.39
     85.9700	  550.00	  532.72	-1702.47	  399.34
     86.0700	  541.00	  534.30	-1713.05	  399.28
     86.1700	  512.00	  536.58	-1744.33	  399.22
     86.2700	  540.00	  539.71	-1719.46	  399.16
     86.3700	  528.00	  543.88	-1735.63	  399.10
     86.4700	  544.00	  549.25	-1725.00	  399.04
     86.5700	  529.00	  555.94	-1746.69	  398.98
     86.6700	  551.00	  563.97	-1732.72	  398.91
     86.7700	  609.00	  573.26	-1684.01	  398.84
     86.8700	  609.00	  583.57	-1694.32	  398.77
     86.9700	  633.00	  594.48	-1681.23	  398.70
     87.0700	  640.00	  605.43	-1685.18	  398.63
     87.1700	  645.00	  615.67	-1690.42	  398.55
     87.2700	  678.00	  624.33	-1666.08	  398.48
     87.3700	  647.00	  630.52	-1703.27	  398.40
     87.4700	  668.00	  633.15	-1684.90	  398.32
     87.5700	  662.00	  632.57	-1690.32	  398.24
     87.6700	  607.00	  628.59	-1741.34	  398.16
     87.7700	  640.00	  621.83	-1701.58	  398.07
     87.8700	  608.00	  613.19	-1724.94	  397.99
     87.9700	  610.00	  603.60	-1713.35	  397.90
     88.0700	  578.00	  593.97	-1735.72	  397.81
     88.1700	  606.00	  585.06	-1698.81	  397.72
     88.2700	  561.00	  577.46	-1736.21	  397.63
     88.3700	  624.00	  571.60	-1667.35	  397.53
     88.4700	  571.00	  567.72	-1716.47	  397.44
     88.5700	  587.00	  565.90	-1698.65	  397.34
     88.6700	  596.00	  566.04	-1689.79	  397.24
     88.7700	  586.00	  567.91	-1701.66	  397.14
     88.8700	  582.00	  571.16	-1708.91	  397.04
     88.9700	  575.00	  575.36	-1720.11	  396.93
     89.0700	  570.00	  579.97	-1729.72	  396.83
     89.1700	  599.00	  584.42	-1705.17	  396.72
     89.2700	  536.00	  588.13	-1771.88	  396.61
     89.3700	  572.00	  590.52	-1738.27	  396.50
     89.4700	  618.00	  591.18	-1692.93	  396.39
     89.5700	  628.00	  589.94	-1681.69	  396.28
     89.6700	  545.00	  586.91	-1761.66	  396.16
     89.7700	  600.00	  582.42	-1702.17	  396.05
     89.8700	  577.00	  576.93	-1719.68	  395.93
     89.9700	  577.00	  570.90	-1713.65	  395.81
     90.0700	  560.00	  564.76	-1724.51	  395.69
     90.1700	  594.00	  558.84	-1684.59	  395.56
     90.2700	  541.00	  553.42	-1732.17	  395.44
     90.3700	  522.00	  548.65	-1746.40	  395.31
     90.4700	  530.00	  544.63	-1734.38	  395.19
     90.5700	  536.00	  541.38	-1725.13	  395.06
     90.6700	  498.00	  538.88	-1760.63	  394.93
     90.7700	  480.00	  537.05	-1776.80	  394.80
     90.8700	  513.00	  535.84	-1742.59	  394.66
     90.9700	  490.00	  535.15	-1764.90	  394.53
     91.0700	  505.00	  534.93	-1749.68	  394.39
     91.1700	  550.00	  535.14	-1704.89	  394.25
     91.2700	  499.00	  535.79	-1756.54	  394.11
     91.3700	  524.00	  536.89	-1732.64	  393.97
     91.4700	  543.00	  538.54	-1715.29	  393.83
     91.5700	  525.00	  540.84	-1735.59	  393.68
     91.6700	  519.00	  543.95	-1744.70	  393.54
     91.7700	  556.00	  548.05	-1711.80	  393.39
     91.8700	  565.00	  553.34	-1708.09	  393.24
     91.9700	  581.00	  560.03	-1698.78	  393.09
     92.0700	  570.00	  568.31	-1718.06	  392.94
     92.1700	  565.00	  578.33	-1733.08	  392.78
     92.2700	  605.00	  590.18	-1704.93	  392.63
     92.3700	  561.00	  603.86	-1762.61	  392.47
     92.4700	  643.00	  619.24	-1695.99	  392.32
     92.5700	  600.00	  636.07	-1755.82	  392.16
     92.6700	  685.00	  653.73	-1688.48	  391.99
     92.7700	  639.00	  672.18	-1752.93	  391.83
     92.8700	  707.00	  690.52	-1703.27	  391.67
     92.9700	  709.00	  708.00	-1718.75	  391.50
     93.0700	  763.00	  723.93	-1680.68	  391.34
     93.1700	  704.00	  737.81	-1753.56	  391.17
     93.2700	  714.00	  749.52	-1755.27	  391.00
     93.3700	  690.00	  759.25	-1789.00	  390.83
     93.4700	  767.00	  767.47	-1720.22	  390.66
     93.5700	  846.00	  774.70	-1648.45	  390.48
     93.6700	  801.00	  781.43	-1700.18	  390.31
     93.7700	  870.00	  788.10	-1637.85	  390.13
     93.8700	  834.00	  795.12	-1680.87	  389.95
     93.9700	  814.00	  802.98	-1708.73	  389.78
     94.0700	  806.00	  812.17	-1725.92	  389.60
     94.1700	  792.00	  823.05	-1750.80	  389.41
     94.2700	  893.00	  835.72	-1662.47	  389.23
     94.3700	  869.00	  849.86	-1700.61	  389.05
     94.4700	  887.00	  864.71	-1697.46	  388.86
     94.5700	  928.00	  879.07	-1670.82	  388.67
     94.6700	  941.00	  891.40	-1670.15	  388.49
     94.7700	  897.00	  899.95	-1722.70	  388.30
     94.8700	  859.00	  903.09	-1763.84	  388.10
     94.9700	  955.00	  899.66	-1664.41	  387.91
     95.0700	  922.00	  889.31	-1687.06	  387.72
     95.1700	  875.00	  872.63	-1717.38	  387.52
     95.2700	  826.00	  850.96	-1744.71	  387.33
     95.3700	  864.00	  826.05	-1681.80	  387.13
     95.4700	  766.00	  799.84	-1753.59	  386.93
     95.5700	  806.00	  774.22	-1687.97	  386.73
     95.6700	  763.00	  750.95	-1707.70	  386.53
     95.7700	  687.00	  731.65	-1764.40	  386.33
     95.8700	  665.00	  717.77	-1772.52	  386.13
     95.9700	  703.00	  710.58	-1727.33	  385.92
     96.0700	  700.00	  711.20	-1730.95	  385.72
     96.1700	  793.00	  720.54	-1647.29	  385.51
     96.2700	  664.00	  739.33	-1795.08	  385.30
     96.3700	  782.00	  768.03	-1705.78	  385.10
     96.4700	  812.00	  806.78	-1714.53	  384.89
     96.5700	  900.00	  855.37	-1675.12	  384.68
     96.6700	  919.00	  913.09	-1713.84	  384.46
     96.7700	  982.00	  978.69	-1716.44	  384.25
     96.8700	 1028.00	 1050.30	-1742.05	  384.04
     96.9700	 1118.00	 1125.38	-1727.13	  383.82
     97.0700	 1183.00	 1200.81	-1737.56	  383.60
     97.1700	 1242.00	 1272.82	-1750.57	  383.39
     97.2700	 1334.00	 1337.20	-1722.95	  383.17
     97.3700	 1366.00	 1389.53	-1743.28	  382.95
     97.4700	 1434.00	 1425.78	-1711.53	  382.73
     97.5700	 1434.00	 1442.98	-1728.73	  382.51
     97.6700	 1472.00	 1439.86	-1687.61	  382.29
     97.7700	 1368.00	 1417.19	-1768.94	  382.06
     97.8700	 1345.00	 1377.50	-1752.25	  381.84
     97.9700	 1298.00	 1324.47	-1746.22	  381.61
     98.0700	 1219.00	 1262.22	-1762.97	  381.39
     98.1700	 1200.00	 1194.88	-1714.63	  381.16
     98.2700	 1089.00	 1126.34	-1757.09	  380.93
     98.3700	 1078.00	 1060.01	-1701.76	  380.71
     98.4700	 1047.00	  998.86	-1671.61	  380.48
     98.5700	  840.00	  945.32	-1825.07	  380.25
     98.6700	  871.00	  901.35	-1750.10	  380.02
     98.7700	  870.00	  868.47	-1718.22	  379.78
     98.8700	  829.00	  847.88	-1738.63	  379.55
     98.9700	  868.00	  840.39	-1692.14	  379.32
     99.0700	  813.00	  846.52	-1753.27	  379.09
     99.1700	  824.00	  866.61	-1762.36	  378.85
     99.2700	  910.00	  900.75	-1710.50	  378.62
     99.3700	  976.00	  948.80	-1692.55	  378.38
     99.4700	 1018.00	 1010.33	-1712.08	  378.14
     99.5700	 1099.00	 1084.55	-1705.30	  377.91
     99.6700	 1133.00	 1170.27	-1757.02	  377.67
     99.7700	 1238.00	 1265.71	-1747.46	  377.43
     99.8700	 1302.00	 1368.52	-1786.27	  377.19
     99.9700	 1544.00	 1475.63	-1651.38	  376.95
    100.0700	 1465.00	 1583.36	-1838.11	  376.71
    100.1700	 1713.00	 1687.50	-1694.25	  376.47
    100.2700	 1777.00	 1783.63	-1726.38	  376.23
    100.3700	 1788.00	 1867.60	-1799.35	  375.99
    100.4700	 1898.00	 1935.93	-1757.68	  375.74
    100.5700	 2141.00	 1986.08	-1564.83	  375.50
    100.6700	 2006.00	 2016.43	-1730.18	  375.26
    100.7700	 2107.00	 2026.03	-1638.78	  375.01
    100.8700	 2102.00	 2014.54	-1632.29	  374.77
    100.9700	 1963.00	 1982.41	-1739.16	  374.53
    101.0700	 1932.00	 1931.19	-1718.94	  374.28
    101.1700	 1861.00	 1863.76	-1722.51	  374.04
    101.2700	 1888.00	 1784.23	-1615.98	  373.79
    101.3700	 1637.00	 1697.38	-1780.13	  373.54
    101.4700	 1604.00	 1608.10	-1723.85	  373.30
    101.5700	 1471.00	 1520.85	-1769.60	  373.05
    101.6700	 1441.00	 1439.27	-1718.02	  372.80
    101.7700	 1450.00	 1366.02	-1635.77	  372.56
    101.8700	 1334.00	 1302.79	-1688.54	  372.31
    101.9700	 1286.00	 1250.27	-1684.02	  372.06
    102.0700	 1160.00	 1208.21	-1767.96	  371.82
    102.1700	 1115.00	 1175.52	-1780.27	  371.57
    102.2700	 1172.00	 1150.40	-1698.15	  371.32
    102.3700	 1157.00	 1130.56	-1693.31	  371.07
    102.4700	 1148.00	 1113.38	-1685.13	  370.82
    102.5700	 1086.00	 1096.30	-1730.05	  370.58
    102.6700	 1132.00	 1077.05	-1664.80	  370.33
    102.7700	 1031.00	 1054.04	-1742.79	  370.08
    102.8700	 1026.00	 1026.53	-1720.28	  369.83
    102.9700	 1020.00	  994.55	-1694.30	  369.58
    103.0700	  970.00	  958.78	-1708.53	  369.33
    103.1700	  895.00	  920.27	-1745.02	  369.09
    103.2700	  860.00	  880.22	-1739.97	  368.84
    103.3700	  792.00	  839.85	-1767.60	  368.59
    103.4700	  764.00	  800.29	-1756.04	  368.34
    103.5700	  830.00	  762.50	-1652.25	  368.10
    103.6700	  723.00	  727.26	-1724.01	  367.85
    103.7700	  731.00	  695.15	-1683.90	  367.60
    103.8700	  688.00	  666.53	-1698.28	  367.35
    103.9700	  590.00	  641.58	-1771.33	  367.11
    104.0700	  619.00	  620.28	-1721.03	  366.86
    104.1700	  645.00	  602.47	-1677.22	  366.61
    104.2700	  581.00	  587.91	-1726.66	  366.37
    104.3700	  571.00	  576.25	-1725.00	  366.12
    104.4700	  597.00	  567.14	-1689.89	  365.88
    104.5700	  516.00	  560.21	-1763.96	  365.63
    104.6700	  579.00	  555.09	-1695.84	  365.39
    104.7700	  543.00	  551.48	-1728.23	  365.15
    104.8700	  525.00	  549.10	-1743.85	  364.90
    104.9700	  500.00	  547.71	-1767.46	  364.66
    105.0700	  551.00	  547.13	-1715.88	  364.42
    105.1700	  525.00	  547.22	-1741.97	  364.18
    105.2700	  536.00	  547.90	-1731.66	  363.94
    105.3700	  565.00	  549.11	-1703.86	  363.70
    105.4700	  545.00	  550.81	-1725.56	  363.46
    105.5700	  544.00	  553.06	-1728.81	  363.22
    105.6700	  549.00	  555.89	-1726.64	  362.98
    105.7700	  592.00	  559.39	-1687.14	  362.74
    105.8700	  565.00	  563.61	-1718.36	  362.51
    105.9700	  596.00	  568.67	-1692.42	  362.27
    106.0700	  612.00	  574.62	-1682.37	  362.04
    106.1700	  556.00	  581.47	-1745.22	  361.80
    106.2700	  557.00	  589.22	-1751.97	  361.57
    106.3700	  631.00	  597.79	-1686.54	  361.34
    106.4700	  577.00	  607.04	-1749.79	  361.10
    106.5700	  599.00	  616.80	-1737.55	  360.87
    106.6700	  606.00	  626.83	-1740.58	  360.64
    106.7700	  637.00	  636.83	-1719.58	  360.42
    106.8700	  641.00	  646.48	-1725.23	  360.19
    106.9700	  649.00	  655.42	-1726.17	  359.96
    107.0700	  645.00	  663.32	-1738.07	  359.74
    107.1700	  656.00	  669.87	-1733.62	  359.51
    107.2700	  715.00	  674.86	-1679.61	  359.29
    107.3700	  664.00	  678.24	-1733.99	  359.07
    107.4700	  638.00	  680.09	-1761.84	  358.85
    107.5700	  637.00	  680.64	-1763.39	  358.63
    107.6700	  695.00	  680.24	-1704.99	  358.41
    107.7700	  700.00	  679.29	-1699.04	  358.20
    107.8700	  683.00	  678.17	-1714.92	  357.98
    107.9700	  677.00	  677.20	-1719.95	  357.77
    108.0700	  685.00	  676.64	-1711.39	  357.56
    108.1700	  706.00	  676.64	-1690.39	  357.35
    108.2700	  738.00	  677.23	-1658.98	  357.14
    108.3700	  640.00	  678.35	-1758.10	  356.93
    108.4700	  697.00	  679.84	-1702.59	  356.72
    108.5700	  679.00	  681.43	-1722.18	  356.52
    108.6700	  710.00	  682.77	-1692.52	  356.32
    108.7700	  659.00	  683.49	-1744.24	  356.12
    108.8700	  657.00	  683.20	-1745.95	  355.92
    108.9700	  712.00	  681.55	-1689.30	  355.72
    109.0700	  634.00	  678.33	-1764.08	  355.52
    109.1700	  675.00	  673.44	-1718.19	  355.33
    109.2700	  714.00	  666.93	-1672.68	  355.14
    109.3700	  681.00	  658.98	-1697.73	  354.95
    109.4700	  643.00	  649.89	-1726.64	  354.76
    109.5700	  612.00	  639.96	-1747.71	  354.57
    109.6700	  691.00	  629.54	-1658.29	  354.39
    109.7700	  605.00	  618.95	-1733.70	  354.21
    109.8700	  659.00	  608.49	-1669.24	  354.03
    109.9700	  591.00	  598.42	-1727.17	  353.85
    110.0700	  584.00	  588.96	-1724.71	  353.67
    110.1700	  586.00	  580.28	-1714.03	  353.50
    110.2700	  595.00	  572.50	-1697.25	  353.33
    110.3700	  561.00	  565.70	-1724.45	  353.16
    110.4700	  581.00	  559.91	-1698.66	  352.99
    110.5700	  562.00	  555.13	-1712.88	  352.83
    110.6700	  553.00	  551.32	-1718.07	  352.67
    110.7700	  560.00	  548.42	-1708.17	  352.51
    110.8700	  592.00	  546.37	-1674.12	  352.35
    110.9700	  533.00	  545.06	-1731.81	  352.20
    111.0700	  508.00	  544.42	-1756.17	  352.05
    111.1700	  534.00	  544.36	-1730.11	  351.90
    111.2700	  549.00	  544.79	-1715.54	  351.75
    111.3700	  573.00	  545.65	-1692.40	  351.60
    111.4700	  556.00	  546.86	-1710.61	  351.46
    111.5700	  564.00	  548.38	-1704.13	  351.32
    111.6700	  568.00	  550.15	-1701.90	  351.19
    111.7700	  587.00	  552.15	-1684.90	  351.06
    111.8700	  555.00	  554.34	-1719.09	  350.93
    111.9700	  589.00	  556.73	-1687.48	  350.80
    112.0700	  594.00	  559.30	-1685.05	  350.67
    112.1700	  543.00	  562.06	-1738.81	  350.55
    112.2700	  541.00	  565.03	-1743.78	  350.43
    112.3700	  570.00	  568.25	-1718.00	  350.32
    112.4700	  550.00	  571.74	-1741.49	  350.21
    112.5700	  595.00	  575.57	-1700.32	  350.10
    112.6700	  625.00	  579.78	-1674.53	  349.99
    112.7700	  589.00	  584.46	-1715.21	  349.89
    112.8700	  564.00	  589.72	-1745.47	  349.79
    112.9700	  514.00	  595.67	-1801.42	  349.69
    113.0700	  646.00	  602.49	-1676.24	  349.60
    113.1700	  635.00	  610.40	-1695.15	  349.51
    113.2700	  634.00	  619.66	-1705.41	  349.43
    113.3700	  644.00	  630.62	-1706.37	  349.35
    113.4700	  710.00	  643.74	-1653.49	  349.27
    113.5700	  696.00	  659.57	-1683.32	  349.19
    113.6700	  717.00	  678.79	-1681.54	  349.12
    113.7700	  741.00	  702.27	-1681.02	  349.05
    113.8700	  786.00	  731.02	-1664.77	  348.99
    113.9700	  804.00	  766.25	-1682.00	  348.93
    114.0700	  813.00	  809.38	-1716.13	  348.87
    114.1700	  879.00	  862.05	-1702.80	  348.82
    114.2700	  973.00	  926.11	-1672.86	  348.77
    114.3700	 1061.00	 1003.56	-1662.31	  348.73
    114.4700	 1127.00	 1096.54	-1689.29	  348.69
    114.5700	 1263.00	 1207.30	-1664.05	  348.65
    114.6700	 1452.00	 1338.08	-1605.83	  348.62
    114.7700	 1603.00	 1491.06	-1607.81	  348.59
    114.8700	 1767.00	 1668.19	-1620.94	  348.57
    114.9700	 1963.00	 1871.05	-1627.80	  348.55
    115.0700	 2289.00	 2100.72	-1531.47	  348.53
    115.1700	 2404.00	 2357.70	-1673.45	  348.52
    115.2700	 2760.00	 2641.71	-1601.46	  348.52
    115.3700	 3002.00	 2951.49	-1669.24	  348.51
    115.4700	 3332.00	 3284.75	-1672.50	  348.52
    115.5700	 3588.00	 3638.07	-1769.82	  348.52
    115.6700	 3982.00	 4006.94	-1744.69	  348.53
    115.7700	 4246.00	 4385.69	-1859.44	  348.55
    115.8700	 4703.00	 4767.33	-1784.08	  348.57
    115.9700	 4998.00	 5143.84	-1865.59	  348.60
    116.0700	 5345.00	 5506.14	-1880.89	  348.63
    116.1700	 5668.00	 5844.41	-1896.16	  348.66
    116.2700	 6045.00	 6148.31	-1823.06	  348.70
    116.3700	 6412.00	 6407.34	-1715.09	  348.75
    116.4700	 6457.00	 6611.60	-1874.35	  348.80
    116.5700	 6649.00	 6752.60	-1823.35	  348.86
    116.6700	 6806.00	 6824.19	-1737.94	  348.92
    116.7700	 6879.00	 6823.21	-1663.96	  348.98
    116.8700	 6731.00	 6749.97	-1738.72	  349.05
    116.9700	 6590.00	 6608.22	-1737.97	  349.13
    117.0700	 6335.00	 6404.62	-1789.37	  349.21
    117.1700	 6299.00	 6147.91	-1568.66	  349.30
    117.2700	 5680.00	 5848.01	-1887.76	  349.39
    117.3700	 5521.00	 5515.35	-1714.10	  349.49
    117.4700	 5136.00	 5160.12	-1743.87	  349.59
    117.5700	 4636.00	 4791.96	-1875.71	  349.70
    117.6700	 4367.00	 4419.53	-1772.28	  349.82
    117.7700	 4165.00	 4050.41	-1605.16	  349.94
    117.8700	 3847.00	 3691.18	-1563.93	  350.06
    117.9700	 3465.00	 3347.19	-1601.94	  350.20
    118.0700	 3066.00	 3022.65	-1676.40	  350.33
    118.1700	 2841.00	 2720.57	-1599.32	  350.48
    118.2700	 2503.00	 2442.90	-1659.65	  350.63
    118.3700	 2240.00	 2190.75	-1670.50	  350.79
    118.4700	 1973.00	 1964.33	-1711.08	  350.95
    118.5700	 1782.00	 1763.20	-1700.95	  351.12
    118.6700	 1586.00	 1586.29	-1720.04	  351.29
    118.7700	 1389.00	 1432.10	-1762.85	  351.47
    118.8700	 1288.00	 1298.89	-1730.64	  351.66
    118.9700	 1248.00	 1184.68	-1656.43	  351.85
    119.0700	 1050.00	 1087.46	-1757.21	  352.05
    119.1700	  988.00	 1005.16	-1736.91	  352.26
    119.2700	  924.00	  935.83	-1731.58	  352.47
    119.3700	  819.00	  877.65	-1778.40	  352.69
    119.4700	  797.00	  828.96	-1751.71	  352.92
    119.5700	  756.00	  788.28	-1752.03	  353.15
    119.6700	  756.00	  754.32	-1718.07	  353.39
    119.7700	  725.00	  725.95	-1720.70	  353.64
    119.8700	  677.00	  702.24	-1744.99	  353.90
    119.9700	  641.00	  682.40	-1761.15	  354.16
    120.0700	  580.00	  665.77	-1805.52	  354.43
    120.1700	  608.00	  651.83	-1763.58	  354.70
    120.2700	  579.00	  640.13	-1780.88	  354.98
    120.3700	  599.00	  630.33	-1751.08	  355.27
    120.4700	  579.00	  622.14	-1762.89	  355.57
    120.5700	  605.00	  615.36	-1730.11	  355.88
    120.6700	  588.00	  609.79	-1741.54	  356.19
    120.7700	  545.00	  605.30	-1780.05	  356.51
    120.8700	  538.00	  601.77	-1783.52	  356.84
    120.9700	  586.00	  599.12	-1732.87	  357.17
    121.0700	  535.00	  597.28	-1782.03	  357.51
    121.1700	  608.00	  596.17	-1707.92	  357.86
    121.2700	  581.00	  595.74	-1734.49	  358.22
    121.3700	  539.00	  595.95	-1776.70	  358.59
    121.4700	  576.00	  596.73	-1740.48	  358.96
    121.5700	  577.00	  598.05	-1740.80	  359.35
    121.6700	  578.00	  599.84	-1741.59	  359.74
    121.7700	  578.00	  602.04	-1743.79	  360.13
    121.8700	  630.00	  604.59	-1694.34	  360.54
    121.9700	  627.00	  607.41	-1700.16	  360.96
    122.0700	  656.00	  610.42	-1674.17	  361.38
    122.1700	  661.00	  613.54	-1672.29	  361.81
    122.2700	  624.00	  616.68	-1712.43	  362.25
    122.3700	  609.00	  619.73	-1730.48	  362.70
    122.4700	  618.00	  622.60	-1724.35	  363.16
    122.5700	  641.00	  625.17	-1703.92	  363.62
    122.6700	  602.00	  627.39	-1745.14	  364.10
    122.7700	  633.00	  629.15	-1715.90	  364.58
    122.8700	  633.00	  630.40	-1717.15	  365.08
    122.9700	  630.00	  631.09	-1720.84	  365.58
    123.0700	  664.00	  631.20	-1686.95	  366.09
    123.1700	  642.00	  630.74	-1708.49	  366.61
    123.2700	  613.00	  629.74	-1736.49	  367.14
    123.3700	  682.00	  628.23	-1665.98	  367.68
    123.4700	  636.00	  626.28	-1710.03	  368.23
    123.5700	  644.00	  623.94	-1699.69	  368.78
    123.6700	  659.00	  621.31	-1682.06	  369.35
    123.7700	  630.00	  618.44	-1708.19	  369.93
    123.8700	  624.00	  615.41	-1711.16	  370.51
    123.9700	  610.00	  612.29	-1722.04	  371.11
    124.0700	  614.00	  609.12	-1714.87	  371.71
    124.1700	  629.00	  605.97	-1696.72	  372.33
    124.2700	  620.00	  602.90	-1702.65	  372.95
    124.3700	  619.00	  599.93	-1700.68	  373.59
    124.4700	  598.00	  597.11	-1718.86	  374.23
    124.5700	  626.00	  594.46	-1688.21	  374.89
    124.6700	  597.00	  592.01	-1714.76	  375.56
    124.7700	  592.00	  589.77	-1717.52	  376.23
    124.8700	  595.00	  587.77	-1712.52	  376.92
    124.9700	  622.00	  493.79	-1591.54	  377.62
    125.0700	  600.00	  494.49	-1719.75	  378.32
    125.1700	  598.00	  495.21	-1719.75	  379.04
    125.2700	  560.00	  495.94	-1719.75	  379.77
    125.3700	  567.00	  496.68	-1719.75	  380.51
    125.4700	  580.00	  497.43	-1719.75	  381.26
    125.5700	  601.00	  498.19	-1719.75	  382.02
    125.6700	  591.00	  498.96	-1719.75	  382.79
    125.7700	  592.00	  499.75	-1719.75	  383.58
    125.8700	  645.00	  500.54	-1719.75	  384.37
    125.9700	  523.00	  501.35	-1719.75	  385.18
    126.0700	  582.00	  502.16	-1719.75	  385.99
    126.1700	  585.00	  502.99	-1719.75	  386.82
    126.2700	  556.00	  503.83	-1719.75	  387.66
    126.3700	  620.00	  504.68	-1719.75	  388.51
    126.4700	  630.00	  505.55	-1719.75	  389.37
    126.5700	  579.00	  506.42	-1719.75	  390.25
    126.6700	  616.00	  507.31	-1719.75	  391.14
    126.7700	  625.00	  508.20	-1719.75	  392.03
    126.8700	  593.00	  509.11	-1719.75	  392.94
    126.9700	  632.00	  510.04	-1719.75	  393.87
    127.0700	  615.00	  510.97	-1719.75	  394.80
    127.1700	  655.00	  511.92	-1719.75	  395.75
    127.2700	  628.00	  512.88	-1719.75	  396.71
    127.3700	  678.00	  513.85	-1719.75	  397.68
    127.4700	  619.00	  514.83	-1719.75	  398.66
    127.5700	  723.00	  515.83	-1719.75	  399.66
    127.6700	  730.00	  516.84	-1719.75	  400.66
    127.7700	  692.00	  517.86	-1719.75	  401.69
    127.8700	  722.00	  518.89	-1719.75	  402.72
    127.9700	  722.00	  519.94	-1719.75	  403.77
    128.0700	  754.00	  521.00	-1719.75	  404.83
    128.1700	  746.00	  522.07	-1719.75	  405.90
    128.2700	  821.00	  523.16	-1719.75	  406.99
    128.3700	  818.00	  524.26	-1719.75	  408.08
    128.4700	  798.00	  525.37	-1719.75	  409.20
    128.5700	    0.00	  526.49	-1719.75	  410.32
    128.6700	    0.00	  527.63	-1719.75	  411.46
     12.3062	        	        	        	        	       0	(  0  0  2)	  0  1
     24.8871	        	        	        	        	       0	(  0  0  4)	  0  1
     28.3422	        	        	        	        	       0	(  1  0  0)	  0  1
     29.0390	        	        	        	        	       0	(  1  0  1)	  0  1
     31.0440	        	        	        	        	       0	(  1  0  2)	  0  1
     34.1507	        	        	        	        	       0	(  1  0  3)	  0  1
     37.7839	        	        	        	        	       0	(  0  0  6)	  0  1
     38.1259	        	        	        	        	       0	(  1  0  4)	  0  1
     42.7741	        	        	        	        	       0	(  1  0  5)	  0  1
     47.9562	        	        	        	        	       0	(  1  0  6)	  0  1
     50.2867	        	        	        	        	       0	(  1  1  0)	  0  1
     51.2025	        	        	        	        	       0	(  0  0  8)	  0  1
     52.0087	        	        	        	        	       0	(  1  1  2)	  0  1
     53.5846	        	        	        	        	       0	(  1  0  7)	  0  1
     56.9540	        	        	        	        	       0	(  1  1  4)	  0  1
     58.7870	        	        	        	        	       0	(  2  0  0)	  0  1
     59.1783	        	        	        	        	       0	(  2  0  1)	  0  1
     59.6130	        	        	        	        	       0	(  1  0  8)	  0  1
     60.3431	        	        	        	        	       0	(  2  0  2)	  0  1
     62.2553	        	        	        	        	       0	(  2  0  3)	  0  1
     64.6450	        	        	        	        	       0	(  1  1  6)	  0  1
     64.8780	        	        	        	        	       0	(  2  0  4)	  0  1
     65.4279	        	        	        	        	       0	(  0  0 10)	  0  1
     66.0271	        	        	        	        	       0	(  1  0  9)	  0  1
     68.1707	        	        	        	        	       0	(  2  0  5)	  0  1
     72.0964	        	        	        	        	       0	(  2  0  6)	  0  1
     72.8409	        	        	        	        	       0	(  1  0 10)	  0  1
     74.6785	        	        	        	        	       0	(  1  1  8)	  0  1
     76.6285	        	        	        	        	       0	(  2  0  7)	  0  1
     80.0959	        	        	        	        	       0	(  1  0 11)	  0  1
     80.9033	        	        	        	        	       0	(  0  0 12)	  0  1
     81.0384	        	        	        	        	       0	(  2  1  0)	  0  1
     81.3781	        	        	        	        	       0	(  2  1  1)	  0  1
     81.7567	        	        	        	        	       0	(  2  0  8)	  0  1
     82.3955	        	        	        	        	       0	(  2  1  2)	  0  1
     84.0861	        	        	        	        	       0	(  2  1  3)	  0  1
     86.4448	        	        	        	        	       0	(  2  1  4)	  0  1
     86.9450	        	        	        	        	       0	(  1  1 10)	  0  1
     87.4924	        	        	        	        	       0	(  2  0  9)	  0  1
     87.8672	        	        	        	        	       0	(  1  0 12)	  0  1
     89.4694	        	        	        	        	       0	(  2  1  5)	  0  1
     93.1655	        	        	        	        	       0	(  2  1  6)	  0  1
     93.8773	        	        	        	        	       0	(  2  0 10)	  0  1
     94.9355	        	        	        	        	       0	(  3  0  0)	  0  1
     95.2728	        	        	        	        	       0	(  3  0  1)	  0  1
     96.2857	        	        	        	        	       0	(  3  0  2)	  0  1
     96.2770	        	        	        	        	       0	(  1  0 13)	  0  1
     97.5525	        	        	        	        	       0	(  2  1  7)	  0  1
     97.9785	        	        	        	        	       0	(  3  0  3)	  0  1
     98.4354	        	        	        	        	       0	(  0  0 14)	  0  1
    100.3608	        	        	        	        	       0	(  3  0  4)	  0  1
    100.9964	        	        	        	        	       0	(  2  0 11)	  0  1
    101.8094	        	        	        	        	       0	(  1  1 12)	  0  1
    102.6733	        	        	        	        	       0	(  2  1  8)	  0  1
    103.4517	        	        	        	        	       0	(  3  0  5)	  0  1
    105.5252	        	        	        	        	       0	(  1  0 14)	  0  1
    107.2860	        	        	        	        	       0	(  3  0  6)	  0  1
    108.6085	        	        	        	        	       0	(  2  1  9)	  0  1
    109.0045	        	        	        	        	       0	(  2  0 12)	  0  1
    111.9255	        	        	        	        	       0	(  3  0  7)	  0  1
    115.5036	        	        	        	        	       0	(  2  1 10)	  0  1
    115.9629	        	        	        	        	       0	(  1  0 15)	  0  1
    116.6795	        	        	        	        	       0	(  2  2  0)	  0  1
    117.4782	        	        	        	        	       0	(  3  0  8)	  0  1
    118.1948	        	        	        	        	       0	(  2  2  2)	  0  1
    118.1850	        	        	        	        	       0	(  2  0 13)	  0  1
    119.9110	        	        	        	        	       0	(  0  0 16)	  0  1
    120.6448	        	        	        	        	       0	(  1  1 14)	  0  1
    122.8813	        	        	        	        	       0	(  2  2  4)	  0  1
    123.6290	        	        	        	        	       0	(  2  1 11)	  0  1
    124.1380	        	        	        	        	       0	(  3  0  9)	  0  1
    124.7551	        	        	        	        	       0	(  3  1  0)	  0  1
    125.1655	        	        	        	        	       0	(  3  1  1)	  0  1
    126.4095	        	        	        	        	       0	(  3  1  2)	  0  1
    128.2976	        	        	        	        	       0	(  1  0 16)	  0  1
    128.5289	        	        	        	        	       0	(  3  1  3)	  0  1
    129.1101	        	        	        	        	       0	(  2  0 14)	  0  1
    131.3247	        	        	        	        	       0	(  2  2  6)	  0  1
    131.6068	        	        	        	        	       0	(  3  1  4)	  0  1
    132.2796	        	        	        	        	       0	(  3  0 10)	  0  1
    133.5402	        	        	        	        	       0	(  2  1 12)	  0  1
    135.7974	        	        	        	        	       0	(  3  1  5)	  0  1
    141.3997	        	        	        	        	       0	(  3  1  6)	  0  1
    142.7627	        	        	        	        	       0	(  3  0 11)	  0  1
    143.2434	        	        	        	        	       0	(  2  0 15)	  0  1
    144.4513	        	        	        	        	       0	(  1  0 17)	  0  1
    145.5738	        	        	        	        	       0	(  2  2  8)	  0  1
    146.6978	        	        	        	        	       0	(  2  1 13)	  0  1
    149.0880	        	        	        	        	       0	(  3  1  7)	  0  1
    149.5623	        	        	        	        	       0	(  1  1 16)	  0  1
    153.9189	        	        	        	        	       0	(  0  0 18)	  0  1
    158.6666	        	        	        	        	       0	(  3  0 12)	  0  1
    159.0388	        	        	        	        	       0	(  4  0  0)	  0  1
    160.0044	        	        	        	        	       0	(  4  0  1)	  0  1
    161.1375	        	        	        	        	       0	(  3  1  8)	  0  1
    163.2199	        	        	        	        	       0	(  4  0  2)	  0  1
    169.6759	        	        	        	        	       0	(  2  0 16)	  0  1
    170.7540	        	        	        	        	       0	(  4  0  3)	  0  1
    174.2858	        	        	        	        	       0	(  2  1 14)	  0  1
