MSG Master    CELL:    5.91952   5.91952  23.28351   90.0000   90.0000  120.0000   SPGR: P 63/m m c             TEMP:   1074.85
  1   1280     2.52000     0.00000    -0.12125     0.00000     0.00000    0
    99     0     2
       0.00000      10.00000
     125.00000     130.00000
 2Theta	Yobs	Ycal	Yobs-Ycal	Backg	Posr	(hkl)	K
      0.7700	    0.00	  532.17	-1733.50	  412.76
      0.8700	    0.00	  533.07	-1733.50	  413.67
      0.9700	   42.00	  533.96	-1733.50	  414.56
      1.0700	   38.00	  534.84	-1733.50	  415.44
      1.1700	   54.00	  535.71	-1733.50	  416.30
      1.2700	   54.00	  536.56	-1733.50	  417.16
      1.3700	   53.00	  537.41	-1733.50	  418.00
      1.4700	  100.00	  538.24	-1733.50	  418.83
      1.5700	  289.00	  539.06	-1733.50	  419.65
      1.6700	  453.00	  539.86	-1733.50	  420.46
      1.7700	  544.00	  540.66	-1733.50	  421.25
      1.8700	  670.00	  541.44	-1733.50	  422.04
      1.9700	  744.00	  542.21	-1733.50	  422.81
      2.0700	  759.00	  542.98	-1733.50	  423.57
      2.1700	  810.00	  543.72	-1733.50	  424.32
      2.2700	  795.00	  544.46	-1733.50	  425.06
      2.3700	  734.00	  545.19	-1733.50	  425.78
      2.4700	  762.00	  545.90	-1733.50	  426.50
      2.5700	  618.00	  546.61	-1733.50	  427.20
      2.6700	  703.00	  547.30	-1733.50	  427.90
      2.7700	  639.00	  547.98	-1733.50	  428.58
      2.8700	  591.00	  548.66	-1733.50	  429.25
      2.9700	  654.00	  549.32	-1733.50	  429.91
      3.0700	  614.00	  549.97	-1733.50	  430.56
      3.1700	  637.00	  550.60	-1733.50	  431.20
      3.2700	  611.00	  551.23	-1733.50	  431.83
      3.3700	  715.00	  551.85	-1733.50	  432.45
      3.4700	  742.00	  552.46	-1733.50	  433.05
      3.5700	  761.00	  553.06	-1733.50	  433.65
      3.6700	  876.00	  553.64	-1733.50	  434.24
      3.7700	  926.00	  554.22	-1733.50	  434.82
      3.8700	  949.00	  554.79	-1733.50	  435.38
      3.9700	  997.00	  555.35	-1733.50	  435.94
      4.0700	 1003.00	  555.89	-1733.50	  436.49
      4.1700	 1114.00	  556.43	-1733.50	  437.02
      4.2700	 1137.00	  556.96	-1733.50	  437.55
      4.3700	 1092.00	  557.47	-1733.50	  438.07
      4.4700	 1053.00	  557.98	-1733.50	  438.58
      4.5700	 1074.00	  558.48	-1733.50	  439.07
      4.6700	 1044.00	  558.97	-1733.50	  439.56
      4.7700	 1008.00	  559.45	-1733.50	  440.04
      4.8700	  994.00	  559.92	-1733.50	  440.51
      4.9700	  991.00	  560.38	-1733.50	  440.97
      5.0700	  957.00	  560.83	-1733.50	  441.42
      5.1700	  917.00	  561.27	-1733.50	  441.86
      5.2700	  895.00	  561.70	-1733.50	  442.30
      5.3700	  877.00	  562.13	-1733.50	  442.72
      5.4700	  874.00	  562.54	-1733.50	  443.14
      5.5700	  884.00	  562.95	-1733.50	  443.54
      5.6700	  833.00	  563.34	-1733.50	  443.94
      5.7700	  805.00	  563.73	-1733.50	  444.33
      5.8700	  807.00	  564.11	-1733.50	  444.71
      5.9700	  823.00	  564.48	-1733.50	  445.08
      6.0700	  768.00	  564.85	-1733.50	  445.44
      6.1700	  763.00	  565.20	-1733.50	  445.79
      6.2700	  808.00	  565.54	-1733.50	  446.14
      6.3700	  719.00	  565.88	-1733.50	  446.48
      6.4700	  709.00	  566.21	-1733.50	  446.80
      6.5700	  746.00	  566.53	-1733.50	  447.13
      6.6700	  781.00	  566.84	-1733.50	  447.44
      6.7700	  686.00	  567.15	-1733.50	  447.74
      6.8700	  761.00	  567.44	-1733.50	  448.04
      6.9700	  732.00	  567.73	-1733.50	  448.33
      7.0700	  714.00	  568.01	-1733.50	  448.61
      7.1700	  663.00	  568.28	-1733.50	  448.88
      7.2700	  710.00	  568.55	-1733.50	  449.14
      7.3700	  655.00	  568.81	-1733.50	  449.40
      7.4700	  635.00	  569.05	-1733.50	  449.65
      7.5700	  659.00	  569.30	-1733.50	  449.89
      7.6700	  608.00	  569.53	-1733.50	  450.13
      7.7700	  658.00	  569.76	-1733.50	  450.35
      7.8700	  625.00	  569.98	-1733.50	  450.57
      7.9700	  646.00	  570.19	-1733.50	  450.78
      8.0700	  640.00	  570.39	-1733.50	  450.99
      8.1700	  628.00	  570.59	-1733.50	  451.18
      8.2700	  675.00	  570.78	-1733.50	  451.38
      8.3700	  636.00	  570.96	-1733.50	  451.56
      8.4700	  609.00	  571.14	-1733.50	  451.73
      8.5700	  635.00	  571.31	-1733.50	  451.90
      8.6700	  624.00	  571.47	-1733.50	  452.07
      8.7700	  617.00	  571.63	-1733.50	  452.22
      8.8700	  555.00	  571.78	-1733.50	  452.37
      8.9700	  612.00	  571.92	-1733.50	  452.51
      9.0700	  636.00	  572.05	-1733.50	  452.65
      9.1700	  569.00	  572.18	-1733.50	  452.78
      9.2700	  610.00	  572.30	-1733.50	  452.90
      9.3700	  588.00	  572.42	-1733.50	  453.01
      9.4700	  622.00	  572.53	-1733.50	  453.12
      9.5700	  635.00	  572.63	-1733.50	  453.23
      9.6700	  586.00	  572.73	-1733.50	  453.32
      9.7700	  589.00	  572.82	-1733.50	  453.41
      9.8700	  586.00	  572.90	-1733.50	  453.50
      9.9700	  578.00	  572.98	-1733.50	  453.57
     10.0700	  572.00	  573.82	-1735.32	  453.65
     10.1700	  566.00	  573.97	-1741.47	  453.71
     10.2700	  609.00	  574.13	-1698.63	  453.77
     10.3700	  617.00	  574.32	-1690.82	  453.82
     10.4700	  568.00	  574.56	-1740.06	  453.87
     10.5700	  605.00	  574.91	-1703.41	  453.92
     10.6700	  593.00	  575.47	-1715.97	  453.95
     10.7700	  587.00	  576.35	-1722.85	  453.98
     10.8700	  570.00	  577.63	-1741.13	  454.01
     10.9700	  639.00	  579.29	-1673.79	  454.03
     11.0700	  628.00	  581.31	-1686.81	  454.04
     11.1700	  604.00	  583.66	-1713.16	  454.05
     11.2700	  579.00	  586.40	-1740.90	  454.05
     11.3700	  604.00	  589.59	-1719.09	  454.05
     11.4700	  598.00	  593.38	-1728.88	  454.04
     11.5700	  633.00	  597.97	-1698.47	  454.03
     11.6700	  586.00	  603.71	-1751.21	  454.01
     11.7700	  600.00	  611.23	-1744.73	  453.99
     11.8700	  611.00	  621.51	-1744.01	  453.96
     11.9700	  675.00	  635.27	-1693.77	  453.93
     12.0700	  662.00	  650.94	-1722.44	  453.89
     12.1700	  678.00	  662.07	-1717.57	  453.85
     12.2700	  667.00	  658.46	-1724.96	  453.80
     12.3700	  690.00	  637.20	-1680.70	  453.74
     12.4700	  632.00	  611.50	-1713.00	  453.69
     12.5700	  603.00	  592.97	-1723.47	  453.62
     12.6700	  607.00	  583.12	-1709.62	  453.56
     12.7700	  574.00	  578.78	-1738.28	  453.48
     12.8700	  573.00	  576.87	-1737.37	  453.41
     12.9700	  534.00	  575.83	-1775.33	  453.33
     13.0700	  550.00	  575.14	-1758.64	  453.24
     13.1700	  546.00	  574.62	-1762.12	  453.15
     13.2700	  564.00	  574.20	-1743.70	  453.06
     13.3700	  581.00	  573.85	-1726.35	  452.96
     13.4700	  530.00	  573.56	-1777.06	  452.86
     13.5700	  574.00	  573.30	-1732.80	  452.75
     13.6700	  541.00	  573.06	-1765.56	  452.64
     13.7700	  561.00	  572.84	-1745.34	  452.52
     13.8700	  543.00	  572.63	-1763.13	  452.40
     13.9700	  574.00	  572.44	-1731.94	  452.28
     14.0700	  561.00	  572.25	-1744.75	  452.15
     14.1700	  501.00	  572.06	-1804.56	  452.02
     14.2700	  578.00	  571.88	-1727.38	  451.88
     14.3700	  576.00	  571.70	-1729.20	  451.74
     14.4700	  558.00	  571.53	-1747.03	  451.60
     14.5700	  542.00	  571.35	-1762.85	  451.45
     14.6700	  552.00	  571.17	-1752.67	  451.30
     14.7700	  561.00	  570.99	-1743.49	  451.15
     14.8700	  574.00	  570.81	-1730.31	  450.99
     14.9700	  539.00	  570.63	-1765.13	  450.83
     15.0700	  550.00	  570.45	-1753.95	  450.66
     15.1700	  546.00	  570.26	-1757.76	  450.49
     15.2700	  586.00	  570.08	-1717.58	  450.32
     15.3700	  582.00	  569.89	-1721.39	  450.15
     15.4700	  591.00	  569.70	-1712.20	  449.97
     15.5700	  546.00	  569.51	-1757.01	  449.79
     15.6700	  598.00	  569.31	-1704.81	  449.60
     15.7700	  562.00	  569.11	-1740.61	  449.41
     15.8700	  567.00	  568.91	-1735.41	  449.22
     15.9700	  536.00	  568.71	-1766.21	  449.02
     16.0700	  520.00	  568.51	-1782.01	  448.83
     16.1700	  603.00	  568.30	-1698.80	  448.63
     16.2700	  560.00	  568.11	-1741.61	  448.42
     16.3700	  583.00	  567.90	-1718.40	  448.21
     16.4700	  597.00	  567.69	-1704.19	  448.00
     16.5700	  577.00	  567.47	-1723.97	  447.79
     16.6700	  553.00	  567.25	-1747.75	  447.57
     16.7700	  558.00	  567.03	-1742.53	  447.36
     16.8700	  578.00	  566.80	-1722.30	  447.13
     16.9700	  532.00	  566.58	-1768.08	  446.91
     17.0700	  562.00	  566.35	-1737.85	  446.68
     17.1700	  566.00	  566.11	-1733.61	  446.45
     17.2700	  586.00	  565.88	-1713.38	  446.22
     17.3700	  526.00	  565.64	-1773.14	  445.99
     17.4700	  572.00	  565.41	-1726.91	  445.75
     17.5700	  565.00	  565.16	-1733.66	  445.51
     17.6700	  518.00	  564.92	-1780.42	  445.27
     17.7700	  589.00	  564.67	-1709.17	  445.02
     17.8700	  557.00	  564.43	-1740.93	  444.78
     17.9700	  544.00	  564.18	-1753.68	  444.53
     18.0700	  565.00	  564.03	-1732.53	  444.28
     18.1700	  555.00	  563.77	-1742.27	  444.02
     18.2700	  534.00	  563.52	-1763.02	  443.77
     18.3700	  584.00	  563.26	-1712.76	  443.51
     18.4700	  593.00	  563.01	-1703.51	  443.25
     18.5700	  560.00	  562.75	-1736.25	  442.99
     18.6700	  539.00	  562.48	-1756.98	  442.72
     18.7700	  576.00	  562.22	-1719.72	  442.46
     18.8700	  560.00	  561.96	-1735.46	  442.19
     18.9700	  545.00	  561.77	-1750.27	  441.92
     19.0700	  567.00	  561.50	-1728.00	  441.64
     19.1700	  525.00	  561.23	-1769.73	  441.37
     19.2700	  549.00	  560.96	-1745.46	  441.09
     19.3700	  550.00	  560.69	-1744.19	  440.82
     19.4700	  571.00	  560.42	-1722.92	  440.54
     19.5700	  534.00	  560.14	-1759.64	  440.26
     19.6700	  545.00	  559.87	-1748.37	  439.97
     19.7700	  521.00	  559.59	-1772.09	  439.69
     19.8700	  540.00	  559.31	-1752.81	  439.40
     19.9700	  556.00	  559.03	-1736.53	  439.11
     20.0700	  521.00	  558.75	-1771.25	  438.82
     20.1700	  560.00	  558.47	-1731.97	  438.53
     20.2700	  570.00	  558.19	-1721.69	  438.24
     20.3700	  556.00	  557.90	-1735.40	  437.95
     20.4700	  547.00	  557.62	-1744.12	  437.65
     20.5700	  562.00	  557.30	-1728.80	  437.35
     20.6700	  571.00	  557.02	-1719.52	  437.06
     20.7700	  527.00	  556.73	-1763.23	  436.76
     20.8700	  548.00	  556.44	-1741.94	  436.46
     20.9700	  559.00	  556.19	-1730.69	  436.15
     21.0700	  532.00	  555.90	-1757.40	  435.85
     21.1700	  547.00	  555.62	-1742.11	  435.55
     21.2700	  608.00	  555.33	-1680.83	  435.24
     21.3700	  580.00	  555.04	-1708.54	  434.93
     21.4700	  558.00	  554.75	-1730.25	  434.63
     21.5700	  565.00	  554.47	-1722.97	  434.32
     21.6700	  586.00	  554.18	-1701.68	  434.01
     21.7700	  588.00	  553.90	-1699.40	  433.70
     21.8700	  547.00	  553.61	-1740.11	  433.38
     21.9700	  527.00	  553.33	-1759.83	  433.07
     22.0700	  521.00	  553.05	-1765.55	  432.76
     22.1700	  513.00	  552.77	-1773.27	  432.44
     22.2700	  559.00	  552.50	-1727.00	  432.13
     22.3700	  588.00	  552.22	-1697.72	  431.81
     22.4700	  570.00	  551.95	-1715.45	  431.49
     22.5700	  533.00	  551.69	-1752.19	  431.18
     22.6700	  542.00	  551.43	-1742.93	  430.86
     22.7700	  574.00	  551.17	-1710.67	  430.54
     22.8700	  549.00	  550.92	-1735.42	  430.22
     22.9700	  559.00	  550.69	-1725.19	  429.90
     23.0700	  561.00	  550.46	-1722.96	  429.58
     23.1700	  568.00	  550.25	-1715.75	  429.25
     23.2700	  516.00	  550.06	-1767.56	  428.93
     23.3700	  529.00	  549.90	-1754.40	  428.61
     23.4700	  583.00	  549.76	-1700.26	  428.28
     23.5700	  584.00	  549.68	-1699.18	  427.96
     23.6700	  534.00	  549.66	-1749.16	  427.64
     23.7700	  572.00	  549.75	-1711.25	  427.31
     23.8700	  566.00	  550.19	-1717.69	  426.99
     23.9700	  560.00	  550.94	-1724.44	  426.66
     24.0700	  552.00	  552.59	-1734.09	  426.33
     24.1700	  540.00	  555.81	-1749.31	  426.01
     24.2700	  573.00	  561.44	-1721.94	  425.68
     24.3700	  558.00	  570.47	-1745.97	  425.35
     24.4700	  564.00	  583.93	-1753.43	  425.03
     24.5700	  569.00	  602.02	-1766.52	  424.70
     24.6700	  641.00	  621.64	-1714.14	  424.37
     24.7700	  657.00	  634.46	-1710.96	  424.04
     24.8700	  679.00	  629.91	-1684.41	  423.72
     24.9700	  607.00	  607.88	-1734.38	  423.39
     25.0700	  625.00	  582.53	-1691.03	  423.06
     25.1700	  589.00	  564.17	-1708.67	  422.73
     25.2700	  558.00	  554.11	-1729.61	  422.40
     25.3700	  602.00	  549.50	-1681.00	  422.08
     25.4700	  546.00	  547.40	-1734.90	  421.75
     25.5700	  534.00	  546.28	-1745.78	  421.42
     25.6700	  542.00	  545.52	-1737.02	  421.09
     25.7700	  535.00	  544.97	-1743.47	  420.76
     25.8700	  611.00	  544.54	-1667.04	  420.43
     25.9700	  538.00	  544.22	-1739.72	  420.11
     26.0700	  552.00	  543.97	-1725.47	  419.78
     26.1700	  541.00	  543.80	-1736.30	  419.45
     26.2700	  542.00	  543.70	-1735.20	  419.12
     26.3700	  529.00	  543.67	-1748.17	  418.80
     26.4700	  541.00	  543.73	-1736.23	  418.47
     26.5700	  553.00	  543.88	-1724.38	  418.14
     26.6700	  548.00	  544.13	-1729.63	  417.82
     26.7700	  545.00	  544.52	-1733.02	  417.49
     26.8700	  530.00	  545.08	-1748.58	  417.16
     26.9700	  507.00	  545.85	-1772.35	  416.84
     27.0700	  550.00	  546.91	-1730.41	  416.51
     27.1700	  554.00	  548.39	-1727.89	  416.19
     27.2700	  552.00	  550.53	-1732.03	  415.87
     27.3700	  527.00	  553.81	-1760.31	  415.54
     27.4700	  568.00	  559.20	-1724.70	  415.22
     27.5700	  560.00	  568.42	-1741.92	  414.90
     27.6700	  582.00	  584.26	-1735.76	  414.57
     27.7700	  591.00	  610.35	-1752.85	  414.25
     27.8700	  612.00	  649.97	-1771.47	  413.93
     27.9700	  676.00	  703.50	-1761.00	  413.61
     28.0700	  802.00	  765.03	-1696.53	  413.29
     28.1700	  858.00	  819.28	-1694.78	  412.97
     28.2700	  930.00	  842.80	-1646.30	  412.65
     28.3700	  912.00	  820.87	-1642.37	  412.33
     28.4700	  808.00	  774.40	-1699.90	  412.01
     28.5700	  765.00	  740.03	-1708.53	  411.70
     28.6700	  689.00	  735.10	-1779.60	  411.38
     28.7700	  747.00	  755.61	-1742.11	  411.06
     28.8700	  781.00	  782.22	-1734.72	  410.75
     28.9700	  758.00	  787.41	-1762.91	  410.43
     29.0700	  779.00	  753.08	-1707.58	  410.12
     29.1700	  696.00	  693.38	-1730.88	  409.81
     29.2700	  634.00	  636.11	-1735.61	  409.49
     29.3700	  563.00	  594.81	-1765.31	  409.18
     29.4700	  566.00	  569.95	-1737.45	  408.87
     29.5700	  599.00	  556.60	-1691.10	  408.56
     29.6700	  593.00	  549.57	-1690.07	  408.25
     29.7700	  579.00	  545.58	-1700.08	  407.95
     29.8700	  633.00	  543.07	-1643.57	  407.64
     29.9700	  626.00	  541.43	-1648.93	  407.33
     30.0700	  569.00	  540.52	-1705.02	  407.03
     30.1700	  568.00	  540.46	-1705.96	  406.72
     30.2700	  564.00	  541.72	-1711.22	  406.42
     30.3700	  559.00	  545.22	-1719.72	  406.12
     30.4700	  562.00	  552.36	-1723.86	  405.82
     30.5700	  524.00	  564.69	-1774.19	  405.52
     30.6700	  577.00	  582.69	-1739.19	  405.22
     30.7700	  602.00	  604.19	-1735.69	  404.92
     30.8700	  638.00	  623.07	-1718.57	  404.62
     30.9700	  619.00	  629.89	-1744.39	  404.33
     31.0700	  567.00	  618.09	-1784.59	  404.03
     31.1700	  600.00	  593.87	-1727.37	  403.74
     31.2700	  543.00	  569.49	-1759.99	  403.44
     31.3700	  538.00	  551.54	-1747.04	  403.15
     31.4700	  520.00	  540.70	-1754.20	  402.86
     31.5700	  562.00	  534.94	-1706.44	  402.57
     31.6700	  602.00	  532.00	-1663.50	  402.28
     31.7700	  560.00	  530.36	-1703.86	  402.00
     31.8700	  513.00	  529.33	-1749.83	  401.71
     31.9700	  495.00	  528.61	-1767.11	  401.42
     32.0700	  517.00	  528.10	-1744.60	  401.14
     32.1700	  517.00	  527.75	-1744.25	  400.86
     32.2700	  522.00	  527.55	-1739.05	  400.58
     32.3700	  571.00	  527.49	-1689.99	  400.30
     32.4700	  529.00	  527.58	-1732.08	  400.02
     32.5700	  576.00	  527.83	-1685.33	  399.74
     32.6700	  580.00	  528.28	-1681.78	  399.47
     32.7700	  538.00	  528.96	-1724.46	  399.19
     32.8700	  583.00	  529.94	-1680.44	  398.92
     32.9700	  562.00	  531.35	-1702.85	  398.65
     33.0700	  564.00	  533.40	-1702.90	  398.37
     33.1700	  578.00	  536.53	-1692.03	  398.10
     33.2700	  533.00	  541.82	-1742.32	  397.84
     33.3700	  574.00	  551.60	-1711.10	  397.57
     33.4700	  597.00	  570.36	-1706.86	  397.30
     33.5700	  627.00	  605.33	-1711.83	  397.04
     33.6700	  626.00	  664.99	-1772.49	  396.78
     33.7700	  735.00	  753.18	-1751.68	  396.52
     33.8700	  872.00	  860.35	-1721.85	  396.26
     33.9700	  974.00	  957.47	-1716.97	  396.00
     34.0700	 1129.00	  999.93	-1604.43	  395.74
     34.1700	 1020.00	  955.23	-1668.73	  395.49
     34.2700	  937.00	  846.79	-1643.29	  395.23
     34.3700	  778.00	  730.84	-1686.34	  394.98
     34.4700	  625.00	  641.73	-1750.23	  394.73
     34.5700	  577.00	  586.25	-1742.75	  394.48
     34.6700	  558.00	  556.57	-1732.07	  394.23
     34.7700	  542.00	  541.83	-1733.33	  393.98
     34.8700	  547.00	  534.19	-1720.69	  393.74
     34.9700	  546.00	  529.62	-1717.12	  393.50
     35.0700	  499.00	  526.46	-1760.96	  393.25
     35.1700	  510.00	  524.07	-1747.57	  393.01
     35.2700	  534.00	  522.19	-1721.69	  392.77
     35.3700	  508.00	  520.65	-1746.15	  392.54
     35.4700	  537.00	  519.37	-1715.87	  392.30
     35.5700	  528.00	  518.28	-1723.78	  392.07
     35.6700	  565.00	  517.35	-1685.85	  391.84
     35.7700	  495.00	  516.54	-1755.04	  391.60
     35.8700	  536.00	  515.82	-1713.32	  391.37
     35.9700	  549.00	  515.18	-1699.68	  391.15
     36.0700	  499.00	  515.07	-1749.57	  390.92
     36.1700	  551.00	  514.56	-1697.06	  390.70
     36.2700	  492.00	  514.09	-1755.59	  390.47
     36.3700	  457.00	  513.67	-1790.17	  390.25
     36.4700	  528.00	  513.29	-1718.79	  390.03
     36.5700	  532.00	  512.94	-1714.44	  389.81
     36.6700	  472.00	  512.63	-1774.13	  389.60
     36.7700	  517.00	  512.37	-1728.87	  389.38
     36.8700	  505.00	  512.18	-1740.68	  389.17
     36.9700	  510.00	  512.12	-1735.62	  388.96
     37.0700	  503.00	  512.33	-1742.83	  388.75
     37.1700	  528.00	  513.06	-1718.56	  388.54
     37.2700	  500.00	  514.69	-1748.19	  388.34
     37.3700	  534.00	  517.54	-1717.04	  388.13
     37.4700	  515.00	  521.52	-1740.02	  387.93
     37.5700	  544.00	  525.75	-1715.25	  387.73
     37.6700	  511.00	  528.61	-1751.11	  387.53
     37.7700	  535.00	  528.45	-1726.95	  387.33
     37.8700	  584.00	  525.27	-1674.77	  387.13
     37.9700	  556.00	  520.86	-1698.36	  386.94
     38.0700	  511.00	  516.77	-1739.27	  386.75
     38.1700	  506.00	  513.57	-1741.07	  386.56
     38.2700	  482.00	  511.31	-1762.81	  386.37
     38.3700	  475.00	  509.81	-1768.31	  386.18
     38.4700	  507.00	  508.84	-1735.33	  386.00
     38.5700	  513.00	  508.19	-1728.69	  385.81
     38.6700	  522.00	  507.65	-1719.15	  385.63
     38.7700	  488.00	  507.32	-1752.82	  385.45
     38.8700	  507.00	  507.05	-1733.55	  385.27
     38.9700	  468.00	  506.81	-1772.31	  385.10
     39.0700	  537.00	  506.59	-1703.09	  384.92
     39.1700	  519.00	  506.31	-1720.81	  384.75
     39.2700	  500.00	  506.13	-1739.63	  384.58
     39.3700	  519.00	  505.95	-1720.45	  384.41
     39.4700	  504.00	  505.78	-1735.28	  384.24
     39.5700	  505.00	  505.62	-1734.12	  384.07
     39.6700	  513.00	  505.60	-1726.10	  383.91
     39.7700	  448.00	  505.46	-1790.96	  383.75
     39.8700	  504.00	  505.33	-1734.83	  383.59
     39.9700	  488.00	  505.21	-1750.71	  383.43
     40.0700	  479.00	  505.09	-1759.59	  383.27
     40.1700	  503.00	  504.99	-1735.49	  383.12
     40.2700	  505.00	  504.89	-1733.39	  382.96
     40.3700	  478.00	  504.81	-1760.31	  382.81
     40.4700	  516.00	  504.74	-1722.24	  382.66
     40.5700	  531.00	  504.68	-1707.18	  382.51
     40.6700	  534.00	  504.64	-1704.14	  382.37
     40.7700	  543.00	  504.62	-1695.12	  382.22
     40.8700	  486.00	  504.62	-1752.12	  382.08
     40.9700	  488.00	  504.64	-1750.14	  381.94
     41.0700	  509.00	  504.70	-1729.20	  381.80
     41.1700	  504.00	  504.76	-1734.26	  381.67
     41.2700	  504.00	  504.90	-1734.40	  381.53
     41.3700	  532.00	  505.10	-1706.60	  381.40
     41.4700	  496.00	  505.38	-1742.88	  381.27
     41.5700	  501.00	  505.77	-1738.27	  381.14
     41.6700	  529.00	  506.75	-1711.25	  381.01
     41.7700	  530.00	  507.61	-1711.11	  380.89
     41.8700	  548.00	  509.07	-1694.57	  380.76
     41.9700	  500.00	  511.82	-1745.32	  380.64
     42.0700	  460.00	  517.21	-1790.71	  380.52
     42.1700	  542.00	  527.37	-1718.87	  380.40
     42.2700	  500.00	  544.78	-1778.28	  380.28
     42.3700	  585.00	  570.80	-1719.30	  380.17
     42.4700	  580.00	  603.16	-1756.66	  380.06
     42.5700	  582.00	  634.54	-1786.04	  379.95
     42.6700	  614.00	  653.21	-1772.71	  379.84
     42.7700	  578.00	  649.10	-1804.60	  379.73
     42.8700	  579.00	  623.87	-1778.37	  379.62
     42.9700	  539.00	  589.82	-1784.32	  379.52
     43.0700	  591.00	  558.61	-1701.11	  379.42
     43.1700	  528.00	  535.64	-1741.14	  379.32
     43.2700	  503.00	  521.34	-1751.84	  379.22
     43.3700	  555.00	  513.51	-1692.01	  379.12
     43.4700	  525.00	  509.52	-1718.02	  379.03
     43.5700	  534.00	  507.47	-1706.97	  378.94
     43.6700	  487.00	  506.29	-1752.79	  378.85
     43.7700	  532.00	  505.51	-1707.01	  378.76
     43.8700	  517.00	  505.13	-1721.63	  378.67
     43.9700	  488.00	  504.71	-1750.21	  378.59
     44.0700	  533.00	  504.41	-1704.91	  378.50
     44.1700	  501.00	  504.15	-1736.65	  378.42
     44.2700	  487.00	  503.95	-1750.45	  378.34
     44.3700	  508.00	  503.80	-1729.30	  378.26
     44.4700	  493.00	  503.69	-1744.19	  378.19
     44.5700	  509.00	  503.49	-1727.99	  378.11
     44.6700	  490.00	  503.44	-1746.94	  378.04
     44.7700	  511.00	  503.42	-1725.92	  377.97
     44.8700	  518.00	  503.42	-1718.92	  377.90
     44.9700	  548.00	  503.45	-1688.95	  377.83
     45.0700	  539.00	  503.49	-1697.99	  377.77
     45.1700	  471.00	  503.56	-1766.06	  377.70
     45.2700	  478.00	  503.82	-1759.32	  377.64
     45.3700	  483.00	  503.93	-1754.43	  377.58
     45.4700	  499.00	  504.07	-1738.57	  377.52
     45.5700	  532.00	  504.22	-1705.72	  377.47
     45.6700	  521.00	  504.40	-1716.90	  377.41
     45.7700	  481.00	  504.60	-1757.10	  377.36
     45.8700	  476.00	  504.83	-1762.33	  377.31
     45.9700	  525.00	  505.10	-1713.60	  377.26
     46.0700	  504.00	  505.39	-1734.89	  377.21
     46.1700	  500.00	  505.72	-1739.22	  377.17
     46.2700	  485.00	  506.09	-1754.59	  377.12
     46.3700	  510.00	  506.52	-1730.02	  377.08
     46.4700	  534.00	  506.99	-1706.49	  377.04
     46.5700	  491.00	  507.54	-1750.04	  377.00
     46.6700	  514.00	  508.17	-1727.67	  376.97
     46.7700	  513.00	  508.91	-1729.41	  376.93
     46.8700	  502.00	  509.82	-1741.32	  376.90
     46.9700	  526.00	  511.02	-1718.52	  376.87
     47.0700	  487.00	  512.80	-1759.30	  376.84
     47.1700	  498.00	  515.69	-1751.19	  376.81
     47.2700	  489.00	  520.67	-1765.17	  376.78
     47.3700	  569.00	  528.94	-1693.44	  376.76
     47.4700	  522.00	  541.53	-1753.03	  376.73
     47.5700	  524.00	  558.54	-1768.04	  376.71
     47.6700	  582.00	  578.09	-1729.59	  376.69
     47.7700	  539.00	  595.77	-1790.27	  376.68
     47.8700	  572.00	  605.62	-1767.12	  376.66
     47.9700	  617.00	  603.45	-1719.95	  376.65
     48.0700	  569.00	  590.99	-1755.49	  376.63
     48.1700	  562.00	  574.35	-1745.85	  376.62
     48.2700	  562.00	  559.06	-1730.56	  376.61
     48.3700	  517.00	  548.13	-1764.63	  376.60
     48.4700	  528.00	  542.21	-1747.71	  376.60
     48.5700	  511.00	  540.51	-1763.01	  376.59
     48.6700	  507.00	  541.92	-1768.42	  376.59
     48.7700	  527.00	  545.53	-1752.03	  376.59
     48.8700	  575.00	  550.91	-1709.41	  376.59
     48.9700	  541.00	  558.14	-1750.64	  376.59
     49.0700	  560.00	  567.88	-1741.38	  376.60
     49.1700	  550.00	  581.73	-1765.23	  376.60
     49.2700	  641.00	  603.03	-1695.53	  376.61
     49.3700	  653.00	  638.26	-1718.76	  376.62
     49.4700	  705.00	  698.45	-1726.95	  376.63
     49.5700	  812.00	  799.62	-1721.12	  376.64
     49.6700	  918.00	  960.56	-1776.06	  376.65
     49.7700	 1130.00	 1194.80	-1798.30	  376.67
     49.8700	 1405.00	 1501.59	-1830.09	  376.69
     49.9700	 1832.00	 1852.49	-1753.99	  376.70
     50.0700	 2180.00	 2182.63	-1736.13	  376.72
     50.1700	 2527.00	 2395.09	-1601.59	  376.75
     50.2700	 2486.00	 2402.56	-1650.06	  376.77
     50.3700	 2249.00	 2199.48	-1683.98	  376.79
     50.4700	 1909.00	 1871.57	-1696.07	  376.82
     50.5700	 1376.00	 1521.31	-1878.81	  376.85
     50.6700	 1092.00	 1216.79	-1858.29	  376.88
     50.7700	  830.00	  987.66	-1891.16	  376.91
     50.8700	  722.00	  834.93	-1846.43	  376.94
     50.9700	  648.00	  742.74	-1828.24	  376.97
     51.0700	  652.00	  689.48	-1770.98	  377.01
     51.1700	  582.00	  656.00	-1807.50	  377.05
     51.2700	  629.00	  630.34	-1734.84	  377.08
     51.3700	  582.00	  608.08	-1759.58	  377.12
     51.4700	  570.00	  588.91	-1752.41	  377.16
     51.5700	  547.00	  573.41	-1759.91	  377.21
     51.6700	  535.00	  561.81	-1760.31	  377.25
     51.7700	  534.00	  553.70	-1753.20	  377.30
     51.8700	  571.00	  548.33	-1710.83	  377.34
     51.9700	  528.00	  544.90	-1750.40	  377.39
     52.0700	  561.00	  542.81	-1715.31	  377.44
     52.1700	  540.00	  541.73	-1735.23	  377.49
     52.2700	  570.00	  541.55	-1705.05	  377.55
     52.3700	  547.00	  542.60	-1729.10	  377.60
     52.4700	  551.00	  544.91	-1727.41	  377.66
     52.5700	  465.00	  549.83	-1818.33	  377.71
     52.6700	  612.00	  559.73	-1681.23	  377.77
     52.7700	  580.00	  578.92	-1732.42	  377.83
     52.8700	  640.00	  613.97	-1707.47	  377.89
     52.9700	  738.00	  672.74	-1668.24	  377.95
     53.0700	  811.00	  761.36	-1683.86	  378.02
     53.1700	  917.00	  879.48	-1695.98	  378.08
     53.2700	 1173.00	 1015.14	-1575.64	  378.15
     53.3700	 1107.00	 1142.21	-1768.71	  378.22
     53.4700	 1238.00	 1223.70	-1719.20	  378.29
     53.5700	 1167.00	 1227.53	-1794.03	  378.36
     53.6700	 1100.00	 1151.46	-1784.96	  378.43
     53.7700	  967.00	 1026.05	-1792.55	  378.50
     53.8700	  824.00	  889.59	-1799.09	  378.58
     53.9700	  756.00	  769.51	-1747.01	  378.65
     54.0700	  710.00	  678.77	-1702.27	  378.73
     54.1700	  653.00	  618.37	-1698.87	  378.81
     54.2700	  632.00	  582.37	-1683.87	  378.88
     54.3700	  558.00	  562.78	-1738.28	  378.96
     54.4700	  573.00	  552.77	-1713.27	  379.05
     54.5700	  547.00	  547.93	-1734.43	  379.13
     54.6700	  527.00	  545.72	-1752.22	  379.21
     54.7700	  545.00	  544.96	-1733.46	  379.30
     54.8700	  556.00	  545.14	-1722.64	  379.39
     54.9700	  563.00	  546.06	-1716.56	  379.47
     55.0700	  567.00	  547.67	-1714.17	  379.56
     55.1700	  520.00	  549.99	-1763.49	  379.65
     55.2700	  561.00	  553.07	-1725.57	  379.74
     55.3700	  602.00	  557.07	-1688.57	  379.84
     55.4700	  523.00	  562.15	-1772.65	  379.93
     55.5700	  570.00	  568.71	-1732.21	  380.02
     55.6700	  589.00	  577.54	-1722.04	  380.12
     55.7700	  579.00	  590.25	-1744.75	  380.22
     55.8700	  625.00	  610.16	-1718.66	  380.31
     55.9700	  599.00	  643.48	-1777.98	  380.41
     56.0700	  616.00	  700.68	-1818.18	  380.51
     56.1700	  733.00	  797.10	-1797.60	  380.61
     56.2700	  829.00	  951.03	-1855.53	  380.72
     56.3700	 1144.00	 1178.44	-1767.94	  380.82
     56.4700	 1430.00	 1484.00	-1787.50	  380.92
     56.5700	 1844.00	 1850.86	-1740.36	  381.03
     56.6700	 2158.00	 2232.94	-1808.44	  381.13
     56.7700	 2534.00	 2552.89	-1752.39	  381.24
     56.8700	 2582.00	 2717.53	-1869.03	  381.35
     56.9700	 2581.00	 2665.31	-1817.81	  381.46
     57.0700	 2392.00	 2416.50	-1758.00	  381.57
     57.1700	 2065.00	 2056.36	-1724.86	  381.68
     57.2700	 1685.00	 1675.54	-1724.04	  381.79
     57.3700	 1240.00	 1336.98	-1830.48	  381.91
     57.4700	 1034.00	 1071.97	-1771.47	  382.02
     57.5700	  827.00	  885.93	-1792.43	  382.14
     57.6700	  790.00	  767.74	-1711.24	  382.25
     57.7700	  736.00	  700.06	-1697.56	  382.37
     57.8700	  642.00	  666.82	-1758.32	  382.49
     57.9700	  656.00	  656.86	-1734.36	  382.60
     58.0700	  681.00	  664.38	-1716.88	  382.72
     58.1700	  697.00	  687.52	-1724.02	  382.84
     58.2700	  732.00	  726.43	-1727.93	  382.96
     58.3700	  833.00	  781.41	-1681.91	  383.09
     58.4700	  937.00	  851.30	-1647.80	  383.21
     58.5700	 1011.00	  931.92	-1654.42	  383.33
     58.6700	 1144.00	 1015.54	-1605.04	  383.46
     58.7700	 1224.00	 1092.98	-1602.48	  383.58
     58.8700	 1441.00	 1157.82	-1450.32	  383.71
     58.9700	 1440.00	 1206.43	-1499.93	  383.84
     59.0700	 1542.00	 1233.94	-1425.44	  383.96
     59.1700	 1522.00	 1235.64	-1447.14	  384.09
     59.2700	 1410.00	 1214.43	-1537.93	  384.22
     59.3700	 1362.00	 1181.61	-1553.11	  384.35
     59.4700	 1288.00	 1149.27	-1594.77	  384.48
     59.5700	 1145.00	 1126.38	-1714.88	  384.61
     59.6700	 1125.00	 1121.59	-1730.09	  384.74
     59.7700	 1178.00	 1144.68	-1700.18	  384.88
     59.8700	 1276.00	 1201.35	-1658.85	  385.01
     59.9700	 1319.00	 1287.35	-1701.85	  385.14
     60.0700	 1355.00	 1385.67	-1764.17	  385.28
     60.1700	 1535.00	 1467.50	-1666.00	  385.41
     60.2700	 1611.00	 1499.27	-1621.77	  385.55
     60.3700	 1499.00	 1459.88	-1694.38	  385.69
     60.4700	 1447.00	 1355.73	-1642.23	  385.82
     60.5700	 1252.00	 1214.03	-1695.53	  385.96
     60.6700	 1099.00	 1064.26	-1698.76	  386.10
     60.7700	  943.00	  928.12	-1718.62	  386.24
     60.8700	  797.00	  817.86	-1754.36	  386.38
     60.9700	  736.00	  737.62	-1735.12	  386.52
     61.0700	  674.00	  686.17	-1745.67	  386.66
     61.1700	  643.00	  660.03	-1750.53	  386.80
     61.2700	  591.00	  656.34	-1798.84	  386.94
     61.3700	  620.00	  674.53	-1788.03	  387.08
     61.4700	  675.00	  716.61	-1775.11	  387.22
     61.5700	  772.00	  785.83	-1747.33	  387.37
     61.6700	  843.00	  884.25	-1774.75	  387.51
     61.7700	  941.00	 1009.68	-1802.18	  387.65
     61.8700	 1058.00	 1152.94	-1828.44	  387.80
     61.9700	 1263.00	 1296.18	-1766.68	  387.94
     62.0700	 1379.00	 1412.81	-1767.31	  388.09
     62.1700	 1353.00	 1472.84	-1853.34	  388.24
     62.2700	 1340.00	 1456.66	-1850.16	  388.38
     62.3700	 1258.00	 1369.19	-1844.69	  388.53
     62.4700	 1158.00	 1236.05	-1811.55	  388.68
     62.5700	 1036.00	 1087.19	-1784.69	  388.82
     62.6700	  844.00	  945.94	-1835.44	  388.97
     62.7700	  733.00	  826.45	-1826.95	  389.12
     62.8700	  662.00	  734.47	-1805.97	  389.27
     62.9700	  673.00	  669.26	-1729.76	  389.42
     63.0700	  603.00	  626.30	-1756.80	  389.56
     63.1700	  596.00	  599.75	-1737.25	  389.71
     63.2700	  632.00	  584.31	-1685.81	  389.86
     63.3700	  592.00	  576.08	-1717.58	  390.01
     63.4700	  584.00	  572.81	-1722.31	  390.16
     63.5700	  581.00	  573.73	-1726.23	  390.31
     63.6700	  579.00	  579.33	-1733.83	  390.46
     63.7700	  605.00	  591.11	-1719.61	  390.62
     63.8700	  633.00	  611.25	-1711.75	  390.77
     63.9700	  729.00	  642.03	-1646.53	  390.92
     64.0700	  724.00	  684.97	-1694.47	  391.07
     64.1700	  779.00	  739.83	-1694.33	  391.22
     64.2700	  874.00	  803.62	-1663.12	  391.37
     64.3700	  979.00	  869.94	-1624.44	  391.52
     64.4700	  999.00	  929.06	-1663.56	  391.68
     64.5700	 1057.00	  969.28	-1645.78	  391.83
     64.6700	 1034.00	  982.97	-1682.47	  391.98
     64.7700	 1009.00	  968.17	-1692.67	  392.13
     64.8700	  932.00	  929.97	-1731.47	  392.29
     64.9700	  931.00	  877.43	-1679.93	  392.44
     65.0700	  860.00	  820.26	-1693.76	  392.59
     65.1700	  808.00	  766.17	-1691.67	  392.75
     65.2700	  737.00	  719.34	-1715.84	  392.90
     65.3700	  705.00	  680.75	-1709.25	  393.05
     65.4700	  665.00	  649.61	-1718.11	  393.21
     65.5700	  606.00	  624.78	-1752.28	  393.36
     65.6700	  590.00	  605.34	-1748.84	  393.51
     65.7700	  530.00	  590.53	-1794.03	  393.66
     65.8700	  570.00	  579.68	-1743.18	  393.82
     65.9700	  532.00	  572.23	-1773.73	  393.97
     66.0700	  586.00	  567.63	-1715.13	  394.12
     66.1700	  518.00	  565.37	-1780.87	  394.28
     66.2700	  521.00	  564.98	-1777.48	  394.43
     66.3700	  571.00	  566.11	-1728.61	  394.58
     66.4700	  583.00	  568.58	-1719.08	  394.74
     66.5700	  530.00	  572.41	-1775.91	  394.89
     66.6700	  535.00	  577.98	-1776.48	  395.04
     66.7700	  568.00	  586.29	-1751.79	  395.19
     66.8700	  590.00	  598.91	-1742.41	  395.35
     66.9700	  646.00	  618.99	-1706.49	  395.50
     67.0700	  627.00	  651.40	-1757.90	  395.65
     67.1700	  672.00	  703.12	-1764.62	  395.80
     67.2700	  718.00	  783.05	-1798.55	  395.96
     67.3700	  935.00	  900.72	-1699.22	  396.11
     67.4700	 1032.00	 1063.94	-1765.44	  396.26
     67.5700	 1255.00	 1275.37	-1753.87	  396.41
     67.6700	 1516.00	 1528.97	-1746.47	  396.56
     67.7700	 1823.00	 1807.09	-1717.59	  396.71
     67.8700	 2098.00	 2079.05	-1714.55	  396.86
     67.9700	 2331.00	 2302.56	-1705.06	  397.01
     68.0700	 2468.00	 2430.95	-1696.45	  397.16
     68.1700	 2446.00	 2431.06	-1718.56	  397.31
     68.2700	 2290.00	 2302.82	-1746.32	  397.46
     68.3700	 2130.00	 2079.47	-1682.97	  397.61
     68.4700	 1846.00	 1807.75	-1695.25	  397.76
     68.5700	 1516.00	 1530.05	-1747.55	  397.91
     68.6700	 1315.00	 1277.00	-1695.50	  398.06
     68.7700	 1020.00	 1066.06	-1779.56	  398.21
     68.8700	  877.00	  903.41	-1759.91	  398.35
     68.9700	  793.00	  786.37	-1726.87	  398.50
     69.0700	  640.00	  707.04	-1800.54	  398.65
     69.1700	  712.00	  655.87	-1677.37	  398.79
     69.2700	  595.00	  624.00	-1762.50	  398.94
     69.3700	  624.00	  604.45	-1713.95	  399.09
     69.4700	  589.00	  592.34	-1736.84	  399.23
     69.5700	  603.00	  584.59	-1715.09	  399.38
     69.6700	  565.00	  579.43	-1747.93	  399.52
     69.7700	  528.00	  575.87	-1781.37	  399.66
     69.8700	  616.00	  573.41	-1690.91	  399.81
     69.9700	  599.00	  571.79	-1706.29	  399.95
     70.0700	  550.00	  570.89	-1754.39	  400.09
     70.1700	  575.00	  570.67	-1729.17	  400.23
     70.2700	  498.00	  571.14	-1806.64	  400.38
     70.3700	  558.00	  572.44	-1747.94	  400.52
     70.4700	  569.00	  574.76	-1739.26	  400.66
     70.5700	  599.00	  578.60	-1713.10	  400.80
     70.6700	  539.00	  584.85	-1779.35	  400.94
     70.7700	  576.00	  595.04	-1752.54	  401.08
     70.8700	  618.00	  611.65	-1727.15	  401.21
     70.9700	  655.00	  638.31	-1716.81	  401.35
     71.0700	  650.00	  679.97	-1763.47	  401.49
     71.1700	  730.00	  742.43	-1745.93	  401.63
     71.2700	  807.00	  831.55	-1758.05	  401.76
     71.3700	  944.00	  951.71	-1741.21	  401.90
     71.4700	 1090.00	 1103.73	-1747.23	  402.03
     71.5700	 1273.00	 1283.07	-1743.57	  402.17
     71.6700	 1393.00	 1478.93	-1819.43	  402.30
     71.7700	 1645.00	 1670.67	-1759.17	  402.43
     71.8700	 1807.00	 1833.45	-1759.95	  402.56
     71.9700	 1845.00	 1938.48	-1826.98	  402.69
     72.0700	 1927.00	 1962.76	-1769.26	  402.83
     72.1700	 1898.00	 1900.41	-1735.91	  402.96
     72.2700	 1796.00	 1765.96	-1703.46	  403.08
     72.3700	 1634.00	 1587.25	-1686.75	  403.21
     72.4700	 1375.00	 1391.96	-1750.46	  403.34
     72.5700	 1347.00	 1202.80	-1589.30	  403.47
     72.6700	 1116.00	 1035.28	-1652.78	  403.59
     72.7700	 1023.00	  897.51	-1608.01	  403.72
     72.8700	  918.00	  791.25	-1606.75	  403.84
     72.9700	  809.00	  713.86	-1638.36	  403.97
     73.0700	  737.00	  660.15	-1656.65	  404.09
     73.1700	  755.00	  624.30	-1602.80	  404.21
     73.2700	  717.00	  600.96	-1617.46	  404.33
     73.3700	  689.00	  585.91	-1630.41	  404.45
     73.4700	  620.00	  576.13	-1689.63	  404.57
     73.5700	  615.00	  569.66	-1688.16	  404.69
     73.6700	  602.00	  565.33	-1696.83	  404.81
     73.7700	  639.00	  562.48	-1656.98	  404.93
     73.8700	  589.00	  560.73	-1705.23	  405.05
     73.9700	  581.00	  559.88	-1712.38	  405.16
     74.0700	  614.00	  559.75	-1679.25	  405.28
     74.1700	  599.00	  560.19	-1694.69	  405.39
     74.2700	  638.00	  560.99	-1656.49	  405.50
     74.3700	  616.00	  561.89	-1679.39	  405.61
     74.4700	  636.00	  562.58	-1660.08	  405.72
     74.5700	  610.00	  562.77	-1686.27	  405.83
     74.6700	  680.00	  562.23	-1615.73	  405.94
     74.7700	  652.00	  560.96	-1642.46	  406.05
     74.8700	  645.00	  559.13	-1647.63	  406.16
     74.9700	  593.00	  557.04	-1697.54	  406.26
     75.0700	  623.00	  555.07	-1665.57	  406.37
     75.1700	  610.00	  553.46	-1676.96	  406.47
     75.2700	  606.00	  552.75	-1680.25	  406.58
     75.3700	  557.00	  553.26	-1729.76	  406.68
     75.4700	  626.00	  555.41	-1662.91	  406.78
     75.5700	  544.00	  559.60	-1749.10	  406.88
     75.6700	  559.00	  566.54	-1741.04	  406.98
     75.7700	  549.00	  576.60	-1761.10	  407.07
     75.8700	  625.00	  590.05	-1698.55	  407.17
     75.9700	  627.00	  606.83	-1713.33	  407.27
     76.0700	  684.00	  626.38	-1675.88	  407.36
     76.1700	  605.00	  647.52	-1776.02	  407.46
     76.2700	  670.00	  668.42	-1731.92	  407.55
     76.3700	  653.00	  686.69	-1767.19	  407.64
     76.4700	  727.00	  699.65	-1706.15	  407.73
     76.5700	  706.00	  704.92	-1732.42	  407.82
     76.6700	  668.00	  701.39	-1766.89	  407.91
     76.7700	  663.00	  689.78	-1760.28	  407.99
     76.8700	  625.00	  672.25	-1780.75	  408.08
     76.9700	  660.00	  651.32	-1724.82	  408.16
     77.0700	  637.00	  629.82	-1726.32	  408.25
     77.1700	  621.00	  609.51	-1722.01	  408.33
     77.2700	  589.00	  591.70	-1736.20	  408.41
     77.3700	  531.00	  577.05	-1779.55	  408.49
     77.4700	  550.00	  565.67	-1749.17	  408.57
     77.5700	  531.00	  557.28	-1759.78	  408.64
     77.6700	  560.00	  551.39	-1724.89	  408.72
     77.7700	  507.00	  547.42	-1773.92	  408.80
     77.8700	  582.00	  544.83	-1696.33	  408.87
     77.9700	  541.00	  543.18	-1735.68	  408.94
     78.0700	  502.00	  542.15	-1773.65	  409.01
     78.1700	  534.00	  541.51	-1741.01	  409.08
     78.2700	  514.00	  541.12	-1760.62	  409.15
     78.3700	  535.00	  540.89	-1739.39	  409.22
     78.4700	  496.00	  540.77	-1778.27	  409.28
     78.5700	  541.00	  540.76	-1733.26	  409.35
     78.6700	  511.00	  540.84	-1763.34	  409.41
     78.7700	  538.00	  541.02	-1736.52	  409.47
     78.8700	  532.00	  541.34	-1742.84	  409.54
     78.9700	  524.00	  541.82	-1751.32	  409.59
     79.0700	  460.00	  542.51	-1816.01	  409.65
     79.1700	  528.00	  543.46	-1748.96	  409.71
     79.2700	  532.00	  544.54	-1746.04	  409.77
     79.3700	  527.00	  546.16	-1752.66	  409.82
     79.4700	  511.00	  548.20	-1770.70	  409.87
     79.5700	  495.00	  550.70	-1789.20	  409.92
     79.6700	  562.00	  553.72	-1725.22	  409.97
     79.7700	  550.00	  557.34	-1740.84	  410.02
     79.8700	  608.00	  561.68	-1687.18	  410.07
     79.9700	  523.00	  566.90	-1777.40	  410.12
     80.0700	  570.00	  573.23	-1736.73	  410.16
     80.1700	  562.00	  581.01	-1752.51	  410.20
     80.2700	  601.00	  590.58	-1723.08	  410.25
     80.3700	  559.00	  602.30	-1776.80	  410.29
     80.4700	  581.00	  616.33	-1768.83	  410.33
     80.5700	  651.00	  632.60	-1715.10	  410.36
     80.6700	  593.00	  650.70	-1791.20	  410.40
     80.7700	  658.00	  669.83	-1745.33	  410.43
     80.8700	  619.00	  688.85	-1803.35	  410.47
     80.9700	  683.00	  706.39	-1756.89	  410.50
     81.0700	  708.00	  721.15	-1746.65	  410.53
     81.1700	  744.00	  732.01	-1721.51	  410.56
     81.2700	  773.00	  738.19	-1698.69	  410.59
     81.3700	  796.00	  739.24	-1676.74	  410.61
     81.4700	  732.00	  735.17	-1736.67	  410.64
     81.5700	  770.00	  726.39	-1689.89	  410.66
     81.6700	  753.00	  713.62	-1694.12	  410.68
     81.7700	  745.00	  697.76	-1686.26	  410.70
     81.8700	  738.00	  679.92	-1675.42	  410.72
     81.9700	  738.00	  661.26	-1656.76	  410.74
     82.0700	  686.00	  643.01	-1690.51	  410.75
     82.1700	  677.00	  625.97	-1682.47	  410.77
     82.2700	  625.00	  610.68	-1719.18	  410.78
     82.3700	  651.00	  597.40	-1679.90	  410.79
     82.4700	  624.00	  586.22	-1695.72	  410.80
     82.5700	  613.00	  577.09	-1697.59	  410.81
     82.6700	  566.00	  569.97	-1737.47	  410.82
     82.7700	  587.00	  564.72	-1711.22	  410.82
     82.8700	  531.00	  561.19	-1763.69	  410.82
     82.9700	  558.00	  559.27	-1734.77	  410.83
     83.0700	  538.00	  558.84	-1754.34	  410.83
     83.1700	  545.00	  559.78	-1748.28	  410.82
     83.2700	  531.00	  561.97	-1764.47	  410.82
     83.3700	  533.00	  565.24	-1765.74	  410.82
     83.4700	  526.00	  569.35	-1776.85	  410.81
     83.5700	  570.00	  573.98	-1737.48	  410.80
     83.6700	  613.00	  578.71	-1699.21	  410.80
     83.7700	  580.00	  583.05	-1736.55	  410.79
     83.8700	  604.00	  586.45	-1715.95	  410.77
     83.9700	  533.00	  588.41	-1788.91	  410.76
     84.0700	  556.00	  588.57	-1766.07	  410.74
     84.1700	  565.00	  586.85	-1755.35	  410.73
     84.2700	  565.00	  583.48	-1751.98	  410.71
     84.3700	  505.00	  578.92	-1807.42	  410.69
     84.4700	  583.00	  573.66	-1724.16	  410.67
     84.5700	  536.00	  568.19	-1765.69	  410.64
     84.6700	  566.00	  562.90	-1730.40	  410.62
     84.7700	  533.00	  558.05	-1758.55	  410.59
     84.8700	  523.00	  553.84	-1764.34	  410.56
     84.9700	  511.00	  550.36	-1772.86	  410.53
     85.0700	  514.00	  547.60	-1767.10	  410.50
     85.1700	  554.00	  545.51	-1725.01	  410.47
     85.2700	  550.00	  544.02	-1727.52	  410.44
     85.3700	  549.00	  543.02	-1727.52	  410.40
     85.4700	  543.00	  542.42	-1732.92	  410.36
     85.5700	  549.00	  542.16	-1726.66	  410.32
     85.6700	  558.00	  542.19	-1717.69	  410.28
     85.7700	  504.00	  542.50	-1772.00	  410.24
     85.8700	  526.00	  543.12	-1750.62	  410.19
     85.9700	  544.00	  544.12	-1733.62	  410.15
     86.0700	  552.00	  545.59	-1727.09	  410.10
     86.1700	  554.00	  547.68	-1727.18	  410.05
     86.2700	  539.00	  550.54	-1745.04	  410.00
     86.3700	  563.00	  554.37	-1724.87	  409.95
     86.4700	  525.00	  559.31	-1767.81	  409.89
     86.5700	  573.00	  565.47	-1725.97	  409.84
     86.6700	  568.00	  572.89	-1738.40	  409.78
     86.7700	  574.00	  581.16	-1740.66	  409.72
     86.8700	  573.00	  590.63	-1751.13	  409.66
     86.9700	  620.00	  600.54	-1714.04	  409.60
     87.0700	  606.00	  610.28	-1737.78	  409.54
     87.1700	  618.00	  619.11	-1734.61	  409.47
     87.2700	  642.00	  626.18	-1717.68	  409.40
     87.3700	  686.00	  630.69	-1678.19	  409.33
     87.4700	  635.00	  632.06	-1730.56	  409.26
     87.5700	  662.00	  630.15	-1701.65	  409.19
     87.6700	  666.00	  625.28	-1692.78	  409.12
     87.7700	  627.00	  618.16	-1724.66	  409.04
     87.8700	  612.00	  609.65	-1731.15	  408.97
     87.9700	  607.00	  600.67	-1727.17	  408.89
     88.0700	  625.00	  592.03	-1700.53	  408.81
     88.1700	  583.00	  584.41	-1734.91	  408.73
     88.2700	  601.00	  578.32	-1710.82	  408.64
     88.3700	  583.00	  574.10	-1724.60	  408.56
     88.4700	  584.00	  571.90	-1721.40	  408.47
     88.5700	  632.00	  571.70	-1673.20	  408.38
     88.6700	  596.00	  573.34	-1710.84	  408.29
     88.7700	  617.00	  576.52	-1693.02	  408.20
     88.8700	  603.00	  580.84	-1711.34	  408.11
     88.9700	  623.00	  585.81	-1696.31	  408.01
     89.0700	  609.00	  590.89	-1715.39	  407.92
     89.1700	  574.00	  595.48	-1754.98	  407.82
     89.2700	  622.00	  598.99	-1710.49	  407.72
     89.3700	  582.00	  600.92	-1752.42	  407.62
     89.4700	  607.00	  600.94	-1727.44	  407.51
     89.5700	  599.00	  599.00	-1733.50	  407.41
     89.6700	  638.00	  595.32	-1690.82	  407.30
     89.7700	  534.00	  590.32	-1789.82	  407.19
     89.8700	  562.00	  584.48	-1755.98	  407.08
     89.9700	  549.00	  578.28	-1762.78	  406.97
     90.0700	  552.00	  572.13	-1753.63	  406.86
     90.1700	  540.00	  566.35	-1759.85	  406.75
     90.2700	  517.00	  561.17	-1777.67	  406.63
     90.3700	  480.00	  556.73	-1810.23	  406.51
     90.4700	  532.00	  553.08	-1754.58	  406.39
     90.5700	  541.00	  550.21	-1742.71	  406.27
     90.6700	  515.00	  548.06	-1766.56	  406.15
     90.7700	  563.00	  546.55	-1717.05	  406.03
     90.8700	  507.00	  545.58	-1772.08	  405.90
     90.9700	  511.00	  545.07	-1767.57	  405.77
     91.0700	  474.00	  544.97	-1804.47	  405.65
     91.1700	  491.00	  545.24	-1787.74	  405.52
     91.2700	  533.00	  545.88	-1746.38	  405.38
     91.3700	  530.00	  546.94	-1750.44	  405.25
     91.4700	  534.00	  548.51	-1748.01	  405.12
     91.5700	  547.00	  550.71	-1737.21	  404.98
     91.6700	  559.00	  553.71	-1728.21	  404.84
     91.7700	  527.00	  557.69	-1764.19	  404.70
     91.8700	  531.00	  562.66	-1765.16	  404.56
     91.9700	  530.00	  569.25	-1772.75	  404.42
     92.0700	  568.00	  577.45	-1742.95	  404.27
     92.1700	  584.00	  587.38	-1736.88	  404.13
     92.2700	  623.00	  599.11	-1709.61	  403.98
     92.3700	  624.00	  612.59	-1722.09	  403.83
     92.4700	  629.00	  627.67	-1732.17	  403.68
     92.5700	  619.00	  644.03	-1758.53	  403.53
     92.6700	  651.00	  661.25	-1743.75	  403.38
     92.7700	  700.00	  678.73	-1712.23	  403.22
     92.8700	  714.00	  695.80	-1715.30	  403.07
     92.9700	  739.00	  711.76	-1706.26	  402.91
     93.0700	  767.00	  726.02	-1692.52	  402.75
     93.1700	  829.00	  738.23	-1642.73	  402.59
     93.2700	  818.00	  748.44	-1663.94	  402.43
     93.3700	  803.00	  757.00	-1687.50	  402.27
     93.4700	  762.00	  764.45	-1735.95	  402.10
     93.5700	  833.00	  771.37	-1671.87	  401.94
     93.6700	  819.00	  778.29	-1692.79	  401.77
     93.7700	  808.00	  785.71	-1711.21	  401.60
     93.8700	  811.00	  794.14	-1716.64	  401.43
     93.9700	  815.00	  804.07	-1722.57	  401.26
     94.0700	  865.00	  815.93	-1684.43	  401.08
     94.1700	  858.00	  829.92	-1705.42	  400.91
     94.2700	  863.00	  845.83	-1716.33	  400.73
     94.3700	  889.00	  863.06	-1707.56	  400.55
     94.4700	  893.00	  880.49	-1720.99	  400.38
     94.5700	  885.00	  896.63	-1745.13	  400.20
     94.6700	  858.00	  909.66	-1785.16	  400.01
     94.7700	 1004.00	  917.69	-1647.19	  399.83
     94.8700	  955.00	  919.14	-1697.64	  399.65
     94.9700	  943.00	  913.10	-1703.60	  399.46
     95.0700	  823.00	  899.62	-1810.12	  399.28
     95.1700	  882.00	  879.68	-1731.18	  399.09
     95.2700	  829.00	  854.97	-1759.47	  398.90
     95.3700	  843.00	  827.44	-1717.94	  398.71
     95.4700	  822.00	  799.15	-1710.65	  398.52
     95.5700	  699.00	  772.03	-1806.53	  398.32
     95.6700	  761.00	  747.89	-1720.39	  398.13
     95.7700	  720.00	  728.37	-1741.87	  397.93
     95.8700	  705.00	  714.91	-1743.41	  397.74
     95.9700	  677.00	  708.81	-1765.31	  397.54
     96.0700	  686.00	  711.18	-1758.68	  397.34
     96.1700	  694.00	  722.96	-1762.46	  397.14
     96.2700	  691.00	  744.85	-1787.35	  396.94
     96.3700	  754.00	  777.34	-1756.84	  396.73
     96.4700	  826.00	  820.50	-1728.00	  396.53
     96.5700	  819.00	  873.98	-1788.48	  396.32
     96.6700	  903.00	  936.87	-1767.37	  396.12
     96.7700	 1002.00	 1007.56	-1739.06	  395.91
     96.8700	 1085.00	 1083.79	-1732.29	  395.70
     96.9700	 1164.00	 1162.50	-1732.00	  395.49
     97.0700	 1258.00	 1240.03	-1715.53	  395.28
     97.1700	 1288.00	 1312.06	-1757.56	  395.07
     97.2700	 1349.00	 1373.96	-1758.46	  394.86
     97.3700	 1427.00	 1421.19	-1727.69	  394.64
     97.4700	 1400.00	 1449.91	-1783.41	  394.43
     97.5700	 1427.00	 1457.75	-1764.25	  394.21
     97.6700	 1452.00	 1444.36	-1725.86	  393.99
     97.7700	 1377.00	 1411.44	-1767.94	  393.78
     97.8700	 1297.00	 1362.26	-1798.76	  393.56
     97.9700	 1254.00	 1300.96	-1780.46	  393.34
     98.0700	 1257.00	 1232.01	-1708.51	  393.11
     98.1700	 1166.00	 1159.71	-1727.21	  392.89
     98.2700	 1163.00	 1088.03	-1658.53	  392.67
     98.3700	  996.00	 1020.38	-1757.89	  392.45
     98.4700	  902.00	  959.67	-1791.17	  392.22
     98.5700	  929.00	  908.15	-1712.65	  391.99
     98.6700	  818.00	  867.63	-1783.13	  391.77
     98.7700	  808.00	  839.40	-1764.90	  391.54
     98.8700	  827.00	  824.39	-1730.89	  391.31
     98.9700	  815.00	  823.23	-1741.73	  391.08
     99.0700	  809.00	  836.33	-1760.83	  390.85
     99.1700	  850.00	  863.89	-1747.39	  390.62
     99.2700	  903.00	  905.94	-1736.44	  390.39
     99.3700	  923.00	  962.27	-1772.77	  390.16
     99.4700	 1057.00	 1032.35	-1708.85	  389.92
     99.5700	 1060.00	 1115.29	-1788.79	  389.69
     99.6700	 1181.00	 1209.64	-1762.14	  389.46
     99.7700	 1338.00	 1313.36	-1708.86	  389.22
     99.8700	 1453.00	 1423.71	-1704.21	  388.98
     99.9700	 1499.00	 1537.17	-1771.67	  388.75
    100.0700	 1709.00	 1649.58	-1674.08	  388.51
    100.1700	 1855.00	 1756.25	-1634.75	  388.27
    100.2700	 1884.00	 1852.49	-1701.99	  388.03
    100.3700	 1956.00	 1934.06	-1711.56	  387.79
    100.4700	 1995.00	 1997.55	-1736.05	  387.55
    100.5700	 2034.00	 2040.58	-1740.08	  387.31
    100.6700	 2107.00	 2061.66	-1688.16	  387.07
    100.7700	 1999.00	 2060.06	-1794.56	  386.83
    100.8700	 2048.00	 2035.78	-1721.28	  386.59
    100.9700	 2019.00	 1989.92	-1704.42	  386.34
    101.0700	 1938.00	 1924.88	-1720.38	  386.10
    101.1700	 1927.00	 1844.49	-1650.99	  385.86
    101.2700	 1718.00	 1753.65	-1769.15	  385.61
    101.3700	 1686.00	 1657.65	-1705.15	  385.37
    101.4700	 1510.00	 1561.65	-1785.15	  385.12
    101.5700	 1482.00	 1470.12	-1721.62	  384.88
    101.6700	 1476.00	 1386.61	-1644.11	  384.63
    101.7700	 1330.00	 1313.57	-1717.07	  384.38
    101.8700	 1289.00	 1252.32	-1696.82	  384.14
    101.9700	 1216.00	 1203.10	-1720.60	  383.89
    102.0700	 1168.00	 1165.14	-1730.64	  383.64
    102.1700	 1104.00	 1136.80	-1766.30	  383.40
    102.2700	 1128.00	 1115.75	-1721.25	  383.15
    102.3700	 1095.00	 1099.23	-1737.73	  382.90
    102.4700	 1060.00	 1084.37	-1757.87	  382.65
    102.5700	 1122.00	 1068.49	-1679.99	  382.40
    102.6700	 1060.00	 1049.46	-1722.96	  382.15
    102.7700	 1025.00	 1026.00	-1734.50	  381.91
    102.8700	  953.00	  997.68	-1778.18	  381.66
    102.9700	  949.00	  964.87	-1749.37	  381.41
    103.0700	  902.00	  928.49	-1759.99	  381.16
    103.1700	  922.00	  889.74	-1701.24	  380.91
    103.2700	  796.00	  849.92	-1787.43	  380.66
    103.3700	  791.00	  810.31	-1752.81	  380.41
    103.4700	  814.00	  772.05	-1691.55	  380.16
    103.5700	  775.00	  736.09	-1694.59	  379.91
    103.6700	  714.00	  703.17	-1722.67	  379.66
    103.7700	  688.00	  673.77	-1719.27	  379.41
    103.8700	  625.00	  648.15	-1756.65	  379.16
    103.9700	  662.00	  626.35	-1697.85	  378.91
    104.0700	  573.00	  608.26	-1768.76	  378.66
    104.1700	  600.00	  593.61	-1727.11	  378.41
    104.2700	  581.00	  582.06	-1734.56	  378.17
    104.3700	  578.00	  573.21	-1728.71	  377.92
    104.4700	  544.00	  566.68	-1756.18	  377.67
    104.5700	  574.00	  562.06	-1721.56	  377.42
    104.6700	  546.00	  559.01	-1746.51	  377.17
    104.7700	  538.00	  557.22	-1752.72	  376.93
    104.8700	  561.00	  556.40	-1728.90	  376.68
    104.9700	  542.00	  556.36	-1747.86	  376.43
    105.0700	  494.00	  556.95	-1796.45	  376.18
    105.1700	  568.00	  558.03	-1723.53	  375.94
    105.2700	  538.00	  559.51	-1755.01	  375.69
    105.3700	  578.00	  561.39	-1716.89	  375.45
    105.4700	  542.00	  563.68	-1755.18	  375.20
    105.5700	  548.00	  566.41	-1751.91	  374.96
    105.6700	  539.00	  569.69	-1764.19	  374.71
    105.7700	  534.00	  573.63	-1773.13	  374.47
    105.8700	  585.00	  578.34	-1726.84	  374.23
    105.9700	  551.00	  583.92	-1766.42	  373.99
    106.0700	  576.00	  590.46	-1747.96	  373.74
    106.1700	  586.00	  597.96	-1745.46	  373.50
    106.2700	  648.00	  606.41	-1691.91	  373.26
    106.3700	  577.00	  615.69	-1772.19	  373.02
    106.4700	  619.00	  625.63	-1740.13	  372.78
    106.5700	  628.00	  636.00	-1741.50	  372.55
    106.6700	  619.00	  646.48	-1760.98	  372.31
    106.7700	  625.00	  656.73	-1765.23	  372.07
    106.8700	  662.00	  666.35	-1737.85	  371.84
    106.9700	  659.00	  674.96	-1749.46	  371.60
    107.0700	  700.00	  682.18	-1715.68	  371.37
    107.1700	  627.00	  687.74	-1794.24	  371.14
    107.2700	  707.00	  691.49	-1717.99	  370.90
    107.3700	  701.00	  693.45	-1725.95	  370.67
    107.4700	  708.00	  693.82	-1719.32	  370.44
    107.5700	  669.00	  692.94	-1757.44	  370.21
    107.6700	  719.00	  691.24	-1705.74	  369.99
    107.7700	  641.00	  689.16	-1781.66	  369.76
    107.8700	  714.00	  687.10	-1706.60	  369.53
    107.9700	  729.00	  685.41	-1689.91	  369.31
    108.0700	  666.00	  684.31	-1751.81	  369.09
    108.1700	  657.00	  683.91	-1760.41	  368.87
    108.2700	  665.00	  684.22	-1752.72	  368.64
    108.3700	  689.00	  685.10	-1729.60	  368.43
    108.4700	  661.00	  686.32	-1758.82	  368.21
    108.5700	  681.00	  687.54	-1740.04	  367.99
    108.6700	  712.00	  688.39	-1709.89	  367.78
    108.7700	  730.00	  688.45	-1691.95	  367.56
    108.8700	  723.00	  687.32	-1697.82	  367.35
    108.9700	  653.00	  684.73	-1765.23	  367.14
    109.0700	  684.00	  680.50	-1730.00	  366.93
    109.1700	  637.00	  674.60	-1771.10	  366.72
    109.2700	  691.00	  667.16	-1709.66	  366.51
    109.3700	  683.00	  658.41	-1708.91	  366.31
    109.4700	  649.00	  648.67	-1733.17	  366.11
    109.5700	  652.00	  638.27	-1719.77	  365.91
    109.6700	  596.00	  627.57	-1765.07	  365.71
    109.7700	  603.00	  616.89	-1747.39	  365.51
    109.8700	  652.00	  606.53	-1688.03	  365.31
    109.9700	  606.00	  596.74	-1724.24	  365.12
    110.0700	  601.00	  587.72	-1720.22	  364.93
    110.1700	  587.00	  579.61	-1726.11	  364.73
    110.2700	  596.00	  572.52	-1710.02	  364.55
    110.3700	  550.00	  566.47	-1749.97	  364.36
    110.4700	  566.00	  561.47	-1728.97	  364.18
    110.5700	  578.00	  557.48	-1712.98	  363.99
    110.6700	  573.00	  554.42	-1714.92	  363.81
    110.7700	  536.00	  552.23	-1749.73	  363.63
    110.8700	  563.00	  550.79	-1721.29	  363.46
    110.9700	  585.00	  550.03	-1698.53	  363.28
    111.0700	  555.00	  549.84	-1728.34	  363.11
    111.1700	  543.00	  550.14	-1740.64	  362.94
    111.2700	  580.00	  550.85	-1704.35	  362.77
    111.3700	  567.00	  551.91	-1718.41	  362.61
    111.4700	  499.00	  553.26	-1787.76	  362.45
    111.5700	  535.00	  554.87	-1753.37	  362.29
    111.6700	  592.00	  556.70	-1698.20	  362.13
    111.7700	  533.00	  558.74	-1759.24	  361.97
    111.8700	  547.00	  560.96	-1747.46	  361.82
    111.9700	  582.00	  563.37	-1714.87	  361.67
    112.0700	  559.00	  565.96	-1740.46	  361.52
    112.1700	  587.00	  568.77	-1715.27	  361.38
    112.2700	  558.00	  571.80	-1747.30	  361.24
    112.3700	  598.00	  575.09	-1710.59	  361.10
    112.4700	  584.00	  578.68	-1728.18	  360.96
    112.5700	  619.00	  582.61	-1697.11	  360.83
    112.6700	  589.00	  586.96	-1731.46	  360.69
    112.7700	  600.00	  591.82	-1725.32	  360.57
    112.8700	  691.00	  597.28	-1639.78	  360.44
    112.9700	  628.00	  603.49	-1708.99	  360.32
    113.0700	  648.00	  610.64	-1696.14	  360.20
    113.1700	  660.00	  618.98	-1692.48	  360.08
    113.2700	  720.00	  628.83	-1642.33	  359.97
    113.3700	  700.00	  640.57	-1674.07	  359.86
    113.4700	  747.00	  654.73	-1641.23	  359.75
    113.5700	  739.00	  671.93	-1666.43	  359.65
    113.6700	  814.00	  692.96	-1612.46	  359.55
    113.7700	  825.00	  718.80	-1627.30	  359.45
    113.8700	  893.00	  750.60	-1591.10	  359.36
    113.9700	  934.00	  789.73	-1589.23	  359.27
    114.0700	  912.00	  837.78	-1659.28	  359.18
    114.1700	 1011.00	  896.56	-1619.06	  359.09
    114.2700	 1111.00	  968.10	-1590.60	  359.01
    114.3700	 1131.00	 1054.59	-1657.09	  358.94
    114.4700	 1342.00	 1158.34	-1549.84	  358.86
    114.5700	 1427.00	 1281.71	-1588.21	  358.80
    114.6700	 1553.00	 1427.03	-1607.53	  358.73
    114.7700	 1686.00	 1596.50	-1644.00	  358.67
    114.8700	 1893.00	 1791.97	-1632.47	  358.61
    114.9700	 2086.00	 2014.88	-1662.38	  358.55
    115.0700	 2316.00	 2265.97	-1683.47	  358.50
    115.1700	 2572.00	 2545.35	-1706.85	  358.46
    115.2700	 2802.00	 2852.17	-1783.67	  358.41
    115.3700	 3103.00	 3184.49	-1814.99	  358.38
    115.4700	 3469.00	 3539.22	-1803.72	  358.34
    115.5700	 3752.00	 3912.01	-1893.51	  358.31
    115.6700	 4124.00	 4297.38	-1906.88	  358.28
    115.7700	 4606.00	 4688.60	-1816.10	  358.26
    115.8700	 4901.00	 5077.64	-1910.14	  358.24
    115.9700	 5241.00	 5455.43	-1947.93	  358.23
    116.0700	 5633.00	 5811.94	-1912.44	  358.22
    116.1700	 5986.00	 6136.60	-1884.10	  358.22
    116.2700	 6550.00	 6418.59	-1602.09	  358.22
    116.3700	 6519.00	 6647.38	-1861.88	  358.22
    116.4700	 6818.00	 6813.65	-1729.15	  358.23
    116.5700	 6835.00	 6910.17	-1808.67	  358.24
    116.6700	 6934.00	 6932.64	-1732.14	  358.26
    116.7700	 6823.00	 6880.22	-1790.72	  358.28
    116.8700	 6780.00	 6755.67	-1709.17	  358.31
    116.9700	 6675.00	 6564.96	-1623.46	  358.34
    117.0700	 6409.00	 6316.57	-1641.07	  358.38
    117.1700	 6013.00	 6020.46	-1740.96	  358.42
    117.2700	 5547.00	 5687.26	-1873.76	  358.47
    117.3700	 5228.00	 5327.71	-1833.21	  358.52
    117.4700	 4980.00	 4952.00	-1705.50	  358.57
    117.5700	 4601.00	 4569.53	-1702.03	  358.63
    117.6700	 4264.00	 4188.60	-1658.10	  358.70
    117.7700	 4058.00	 3816.29	-1491.79	  358.77
    117.8700	 3616.00	 3458.61	-1576.11	  358.85
    117.9700	 3223.00	 3120.26	-1630.76	  358.93
    118.0700	 2805.00	 2804.78	-1733.28	  359.02
    118.1700	 2565.00	 2514.45	-1682.95	  359.11
    118.2700	 2279.00	 2250.56	-1705.06	  359.21
    118.3700	 2071.00	 2013.53	-1676.03	  359.32
    118.4700	 1727.00	 1802.98	-1809.48	  359.43
    118.5700	 1574.00	 1617.92	-1777.42	  359.54
    118.6700	 1377.00	 1456.81	-1813.31	  359.66
    118.7700	 1304.00	 1317.80	-1747.30	  359.79
    118.8700	 1178.00	 1198.85	-1754.35	  359.92
    118.9700	 1059.00	 1097.81	-1772.31	  360.06
    119.0700	  967.00	 1012.54	-1779.04	  360.20
    119.1700	  813.00	  940.94	-1861.44	  360.35
    119.2700	  837.00	  881.08	-1777.58	  360.51
    119.3700	  786.00	  831.21	-1778.71	  360.67
    119.4700	  736.00	  789.73	-1787.23	  360.84
    119.5700	  725.00	  755.29	-1763.79	  361.01
    119.6700	  651.00	  726.70	-1809.20	  361.19
    119.7700	  653.00	  702.93	-1783.43	  361.38
    119.8700	  660.00	  683.17	-1756.67	  361.57
    119.9700	  660.00	  666.71	-1740.21	  361.77
    120.0700	  571.00	  653.00	-1815.50	  361.98
    120.1700	  614.00	  641.56	-1761.06	  362.19
    120.2700	  584.00	  632.03	-1781.53	  362.41
    120.3700	  549.00	  624.12	-1808.62	  362.64
    120.4700	  576.00	  617.58	-1775.08	  362.87
    120.5700	  539.00	  612.25	-1806.75	  363.11
    120.6700	  575.00	  607.96	-1766.46	  363.35
    120.7700	  571.00	  604.62	-1767.12	  363.61
    120.8700	  586.00	  602.13	-1749.63	  363.87
    120.9700	  543.00	  600.42	-1790.92	  364.13
    121.0700	  586.00	  599.44	-1746.94	  364.41
    121.1700	  553.00	  599.14	-1779.64	  364.69
    121.2700	  603.00	  599.46	-1729.96	  364.98
    121.3700	  583.00	  600.38	-1750.88	  365.27
    121.4700	  607.00	  601.83	-1728.33	  365.57
    121.5700	  622.00	  603.78	-1715.28	  365.88
    121.6700	  607.00	  606.15	-1732.65	  366.20
    121.7700	  625.00	  608.88	-1717.38	  366.52
    121.8700	  573.00	  611.91	-1772.41	  366.86
    121.9700	  599.00	  615.15	-1749.65	  367.20
    122.0700	  615.00	  618.52	-1737.02	  367.54
    122.1700	  607.00	  621.91	-1748.41	  367.90
    122.2700	  680.00	  625.23	-1678.73	  368.26
    122.3700	  583.00	  628.35	-1778.85	  368.63
    122.4700	  617.00	  631.19	-1747.69	  369.01
    122.5700	  666.00	  633.65	-1701.15	  369.40
    122.6700	  626.00	  635.62	-1743.12	  369.79
    122.7700	  675.00	  637.05	-1695.55	  370.19
    122.8700	  642.00	  637.87	-1729.37	  370.61
    122.9700	  630.00	  638.06	-1741.56	  371.02
    123.0700	  693.00	  637.63	-1678.13	  371.45
    123.1700	  656.00	  636.58	-1714.08	  371.89
    123.2700	  628.00	  634.98	-1740.48	  372.33
    123.3700	  639.00	  632.87	-1727.37	  372.78
    123.4700	  671.00	  630.33	-1692.83	  373.25
    123.5700	  626.00	  627.44	-1734.94	  373.72
    123.6700	  649.00	  624.27	-1708.77	  374.19
    123.7700	  630.00	  620.89	-1724.39	  374.68
    123.8700	  631.00	  617.39	-1719.89	  375.18
    123.9700	  602.00	  613.82	-1745.32	  375.68
    124.0700	  660.00	  610.26	-1683.76	  376.20
    124.1700	  603.00	  606.76	-1737.26	  376.72
    124.2700	  648.00	  603.37	-1688.87	  377.25
    124.3700	  594.00	  600.12	-1739.62	  377.79
    124.4700	  644.00	  597.06	-1686.56	  378.34
    124.5700	  631.00	  594.19	-1696.69	  378.90
    124.6700	  606.00	  591.55	-1719.05	  379.47
    124.7700	  591.00	  589.14	-1731.64	  380.05
    124.8700	  588.00	  586.99	-1732.49	  380.64
    124.9700	  586.00	  500.64	-1648.14	  381.24
    125.0700	  584.00	  501.25	-1733.50	  381.84
    125.1700	  594.00	  501.87	-1733.50	  382.46
    125.2700	  581.00	  502.49	-1733.50	  383.09
    125.3700	  605.00	  503.13	-1733.50	  383.72
    125.4700	  519.00	  503.78	-1733.50	  384.37
    125.5700	  573.00	  504.43	-1733.50	  385.03
    125.6700	  606.00	  505.10	-1733.50	  385.69
    125.7700	  558.00	  505.78	-1733.50	  386.37
    125.8700	  543.00	  506.46	-1733.50	  387.06
    125.9700	  552.00	  507.16	-1733.50	  387.75
    126.0700	  628.00	  507.87	-1733.50	  388.46
    126.1700	  549.00	  508.59	-1733.50	  389.18
    126.2700	  590.00	  509.31	-1733.50	  389.91
    126.3700	  577.00	  510.05	-1733.50	  390.65
    126.4700	  615.00	  510.80	-1733.50	  391.40
    126.5700	  568.00	  511.56	-1733.50	  392.16
    126.6700	  586.00	  512.34	-1733.50	  392.93
    126.7700	  647.00	  513.12	-1733.50	  393.71
    126.8700	  638.00	  513.91	-1733.50	  394.51
    126.9700	  657.00	  514.72	-1733.50	  395.31
    127.0700	  586.00	  515.53	-1733.50	  396.13
    127.1700	  642.00	  516.36	-1733.50	  396.95
    127.2700	  641.00	  517.20	-1733.50	  397.79
    127.3700	  621.00	  518.05	-1733.50	  398.64
    127.4700	  675.00	  518.91	-1733.50	  399.50
    127.5700	  699.00	  519.78	-1733.50	  400.37
    127.6700	  689.00	  520.66	-1733.50	  401.26
    127.7700	  748.00	  521.56	-1733.50	  402.15
    127.8700	  710.00	  522.47	-1733.50	  403.06
    127.9700	  748.00	  523.38	-1733.50	  403.98
    128.0700	  750.00	  524.32	-1733.50	  404.91
    128.1700	  749.00	  525.26	-1733.50	  405.85
    128.2700	  807.00	  526.21	-1733.50	  406.81
    128.3700	  831.00	  527.18	-1733.50	  407.78
    128.4700	  770.00	  528.16	-1733.50	  408.76
    128.5700	    0.00	  529.15	-1733.50	  409.75
    128.6700	    0.00	  530.16	-1733.50	  410.75
     12.3055	        	        	        	        	       0	(  0  0  2)	  0  1
     24.8815	        	        	        	        	       0	(  0  0  4)	  0  1
     28.3351	        	        	        	        	       0	(  1  0  0)	  0  1
     29.0316	        	        	        	        	       0	(  1  0  1)	  0  1
     31.0358	        	        	        	        	       0	(  1  0  2)	  0  1
     34.1412	        	        	        	        	       0	(  1  0  3)	  0  1
     37.7729	        	        	        	        	       0	(  0  0  6)	  0  1
     38.1148	        	        	        	        	       0	(  1  0  4)	  0  1
     42.7609	        	        	        	        	       0	(  1  0  5)	  0  1
     47.9407	        	        	        	        	       0	(  1  0  6)	  0  1
     50.2700	        	        	        	        	       0	(  1  1  0)	  0  1
     51.1856	        	        	        	        	       0	(  0  0  8)	  0  1
     51.9912	        	        	        	        	       0	(  1  1  2)	  0  1
     53.5665	        	        	        	        	       0	(  1  0  7)	  0  1
     56.9341	        	        	        	        	       0	(  1  1  4)	  0  1
     58.7661	        	        	        	        	       0	(  2  0  0)	  0  1
     59.1573	        	        	        	        	       0	(  2  0  1)	  0  1
     59.5919	        	        	        	        	       0	(  1  0  8)	  0  1
     60.3214	        	        	        	        	       0	(  2  0  2)	  0  1
     62.2327	        	        	        	        	       0	(  2  0  3)	  0  1
     64.6212	        	        	        	        	       0	(  1  1  6)	  0  1
     64.8540	        	        	        	        	       0	(  2  0  4)	  0  1
     65.4037	        	        	        	        	       0	(  0  0 10)	  0  1
     66.0026	        	        	        	        	       0	(  1  0  9)	  0  1
     68.1449	        	        	        	        	       0	(  2  0  5)	  0  1
     72.0683	        	        	        	        	       0	(  2  0  6)	  0  1
     72.8125	        	        	        	        	       0	(  1  0 10)	  0  1
     74.6489	        	        	        	        	       0	(  1  1  8)	  0  1
     76.5977	        	        	        	        	       0	(  2  0  7)	  0  1
     80.0631	        	        	        	        	       0	(  1  0 11)	  0  1
     80.8699	        	        	        	        	       0	(  0  0 12)	  0  1
     81.0046	        	        	        	        	       0	(  2  1  0)	  0  1
     81.3441	        	        	        	        	       0	(  2  1  1)	  0  1
     81.7226	        	        	        	        	       0	(  2  0  8)	  0  1
     82.3609	        	        	        	        	       0	(  2  1  2)	  0  1
     84.0503	        	        	        	        	       0	(  2  1  3)	  0  1
     86.4073	        	        	        	        	       0	(  2  1  4)	  0  1
     86.9073	        	        	        	        	       0	(  1  1 10)	  0  1
     87.4543	        	        	        	        	       0	(  2  0  9)	  0  1
     87.8290	        	        	        	        	       0	(  1  0 12)	  0  1
     89.4297	        	        	        	        	       0	(  2  1  5)	  0  1
     93.1228	        	        	        	        	       0	(  2  1  6)	  0  1
     93.8342	        	        	        	        	       0	(  2  0 10)	  0  1
     94.8914	        	        	        	        	       0	(  3  0  0)	  0  1
     95.2283	        	        	        	        	       0	(  3  0  1)	  0  1
     96.2404	        	        	        	        	       0	(  3  0  2)	  0  1
     96.2320	        	        	        	        	       0	(  1  0 13)	  0  1
     97.5062	        	        	        	        	       0	(  2  1  7)	  0  1
     97.9317	        	        	        	        	       0	(  3  0  3)	  0  1
     98.3886	        	        	        	        	       0	(  0  0 14)	  0  1
    100.3119	        	        	        	        	       0	(  3  0  4)	  0  1
    100.9471	        	        	        	        	       0	(  2  0 11)	  0  1
    101.7593	        	        	        	        	       0	(  1  1 12)	  0  1
    102.6222	        	        	        	        	       0	(  2  1  8)	  0  1
    103.3997	        	        	        	        	       0	(  3  0  5)	  0  1
    105.4715	        	        	        	        	       0	(  1  0 14)	  0  1
    107.2300	        	        	        	        	       0	(  3  0  6)	  0  1
    108.5511	        	        	        	        	       0	(  2  1  9)	  0  1
    108.9468	        	        	        	        	       0	(  2  0 12)	  0  1
    111.8641	        	        	        	        	       0	(  3  0  7)	  0  1
    115.4377	        	        	        	        	       0	(  2  1 10)	  0  1
    115.8967	        	        	        	        	       0	(  1  0 15)	  0  1
    116.6117	        	        	        	        	       0	(  2  2  0)	  0  1
    117.4096	        	        	        	        	       0	(  3  0  8)	  0  1
    118.1250	        	        	        	        	       0	(  2  2  2)	  0  1
    118.1156	        	        	        	        	       0	(  2  0 13)	  0  1
    119.8391	        	        	        	        	       0	(  0  0 16)	  0  1
    120.5717	        	        	        	        	       0	(  1  1 14)	  0  1
    122.8041	        	        	        	        	       0	(  2  2  4)	  0  1
    123.5507	        	        	        	        	       0	(  2  1 11)	  0  1
    124.0588	        	        	        	        	       0	(  3  0  9)	  0  1
    124.6745	        	        	        	        	       0	(  3  1  0)	  0  1
    125.0842	        	        	        	        	       0	(  3  1  1)	  0  1
    126.3259	        	        	        	        	       0	(  3  1  2)	  0  1
    128.2110	        	        	        	        	       0	(  1  0 16)	  0  1
    128.4411	        	        	        	        	       0	(  3  1  3)	  0  1
    129.0217	        	        	        	        	       0	(  2  0 14)	  0  1
    131.2310	        	        	        	        	       0	(  2  2  6)	  0  1
    131.5124	        	        	        	        	       0	(  3  1  4)	  0  1
    132.1839	        	        	        	        	       0	(  3  0 10)	  0  1
    133.4416	        	        	        	        	       0	(  2  1 12)	  0  1
    135.6926	        	        	        	        	       0	(  3  1  5)	  0  1
    141.2774	        	        	        	        	       0	(  3  1  6)	  0  1
    142.6358	        	        	        	        	       0	(  3  0 11)	  0  1
    143.1151	        	        	        	        	       0	(  2  0 15)	  0  1
    144.3183	        	        	        	        	       0	(  1  0 17)	  0  1
    145.4352	        	        	        	        	       0	(  2  2  8)	  0  1
    146.5545	        	        	        	        	       0	(  2  1 13)	  0  1
    148.9322	        	        	        	        	       0	(  3  1  7)	  0  1
    149.4048	        	        	        	        	       0	(  1  1 16)	  0  1
    153.7335	        	        	        	        	       0	(  0  0 18)	  0  1
    158.4368	        	        	        	        	       0	(  3  0 12)	  0  1
    158.8038	        	        	        	        	       0	(  4  0  0)	  0  1
    159.7578	        	        	        	        	       0	(  4  0  1)	  0  1
    160.8760	        	        	        	        	       0	(  3  1  8)	  0  1
    162.9247	        	        	        	        	       0	(  4  0  2)	  0  1
    169.1992	        	        	        	        	       0	(  2  0 16)	  0  1
    170.2200	        	        	        	        	       0	(  4  0  3)	  0  1
    173.4518	        	        	        	        	       0	(  2  1 14)	  0  1
