MSG Master    CELL:    5.90902   5.90902  23.22707   90.0000   90.0000  120.0000   SPGR: P 63/m m c             TEMP:    899.95
  1   1280     2.52000     0.00000    -0.12237     0.00000     0.00000    0
    98     0     2
       0.00000      10.00000
     125.00000     130.00000
 2Theta	Yobs	Ycal	Yobs-Ycal	Backg	Posr	(hkl)	K
      0.7700	    0.00	  477.32	-1737.72	  367.34
      0.8700	    0.00	  478.80	-1737.72	  368.83
      0.9700	   40.00	  480.26	-1737.72	  370.29
      1.0700	   49.00	  481.71	-1737.72	  371.74
      1.1700	   45.00	  483.14	-1737.72	  373.17
      1.2700	   43.00	  484.56	-1737.72	  374.58
      1.3700	   54.00	  485.96	-1737.72	  375.98
      1.4700	   85.00	  487.34	-1737.72	  377.37
      1.5700	  283.00	  488.70	-1737.72	  378.73
      1.6700	  491.00	  490.05	-1737.72	  380.08
      1.7700	  575.00	  491.39	-1737.72	  381.41
      1.8700	  666.00	  492.70	-1737.72	  382.73
      1.9700	  665.00	  494.01	-1737.72	  384.03
      2.0700	  789.00	  495.29	-1737.72	  385.32
      2.1700	  812.00	  496.56	-1737.72	  386.59
      2.2700	  770.00	  497.82	-1737.72	  387.84
      2.3700	  768.00	  499.06	-1737.72	  389.08
      2.4700	  736.00	  500.28	-1737.72	  390.31
      2.5700	  714.00	  501.49	-1737.72	  391.51
      2.6700	  666.00	  502.68	-1737.72	  392.71
      2.7700	  644.00	  503.86	-1737.72	  393.89
      2.8700	  665.00	  505.02	-1737.72	  395.05
      2.9700	  647.00	  506.17	-1737.72	  396.20
      3.0700	  576.00	  507.31	-1737.72	  397.33
      3.1700	  617.00	  508.42	-1737.72	  398.45
      3.2700	  658.00	  509.53	-1737.72	  399.55
      3.3700	  782.00	  510.62	-1737.72	  400.64
      3.4700	  845.00	  511.69	-1737.72	  401.72
      3.5700	  900.00	  512.75	-1737.72	  402.78
      3.6700	  976.00	  513.80	-1737.72	  403.83
      3.7700	 1036.00	  514.83	-1737.72	  404.86
      3.8700	 1075.00	  515.85	-1737.72	  405.88
      3.9700	 1234.00	  516.86	-1737.72	  406.88
      4.0700	 1210.00	  517.85	-1737.72	  407.87
      4.1700	 1249.00	  518.82	-1737.72	  408.85
      4.2700	 1295.00	  519.79	-1737.72	  409.81
      4.3700	 1264.00	  520.74	-1737.72	  410.76
      4.4700	 1170.00	  521.67	-1737.72	  411.70
      4.5700	 1182.00	  522.60	-1737.72	  412.62
      4.6700	 1110.00	  523.51	-1737.72	  413.53
      4.7700	 1126.00	  524.40	-1737.72	  414.43
      4.8700	 1112.00	  525.29	-1737.72	  415.31
      4.9700	 1033.00	  526.16	-1737.72	  416.18
      5.0700	 1017.00	  527.01	-1737.72	  417.04
      5.1700	 1032.00	  527.86	-1737.72	  417.89
      5.2700	  928.00	  528.69	-1737.72	  418.72
      5.3700	  957.00	  529.51	-1737.72	  419.54
      5.4700	  904.00	  530.32	-1737.72	  420.34
      5.5700	  895.00	  531.11	-1737.72	  421.14
      5.6700	  899.00	  531.89	-1737.72	  421.92
      5.7700	  846.00	  532.66	-1737.72	  422.69
      5.8700	  828.00	  533.42	-1737.72	  423.44
      5.9700	  769.00	  534.16	-1737.72	  424.19
      6.0700	  838.00	  534.90	-1737.72	  424.92
      6.1700	  830.00	  535.62	-1737.72	  425.64
      6.2700	  852.00	  536.33	-1737.72	  426.35
      6.3700	  760.00	  537.02	-1737.72	  427.05
      6.4700	  732.00	  537.71	-1737.72	  427.73
      6.5700	  727.00	  538.38	-1737.72	  428.41
      6.6700	  765.00	  539.04	-1737.72	  429.07
      6.7700	  727.00	  539.70	-1737.72	  429.72
      6.8700	  714.00	  540.33	-1737.72	  430.36
      6.9700	  775.00	  540.96	-1737.72	  430.99
      7.0700	  720.00	  541.58	-1737.72	  431.61
      7.1700	  685.00	  542.19	-1737.72	  432.21
      7.2700	  696.00	  542.78	-1737.72	  432.81
      7.3700	  712.00	  543.36	-1737.72	  433.39
      7.4700	  693.00	  543.94	-1737.72	  433.96
      7.5700	  644.00	  544.50	-1737.72	  434.52
      7.6700	  692.00	  545.05	-1737.72	  435.08
      7.7700	  624.00	  545.59	-1737.72	  435.62
      7.8700	  625.00	  546.12	-1737.72	  436.15
      7.9700	  646.00	  546.64	-1737.72	  436.67
      8.0700	  606.00	  547.15	-1737.72	  437.18
      8.1700	  614.00	  547.65	-1737.72	  437.67
      8.2700	  642.00	  548.14	-1737.72	  438.16
      8.3700	  602.00	  548.62	-1737.72	  438.64
      8.4700	  613.00	  549.08	-1737.72	  439.11
      8.5700	  622.00	  549.54	-1737.72	  439.57
      8.6700	  639.00	  549.99	-1737.72	  440.02
      8.7700	  617.00	  550.43	-1737.72	  440.45
      8.8700	  609.00	  550.86	-1737.72	  440.88
      8.9700	  600.00	  551.28	-1737.72	  441.30
      9.0700	  631.00	  551.69	-1737.72	  441.71
      9.1700	  616.00	  552.09	-1737.72	  442.11
      9.2700	  612.00	  552.48	-1737.72	  442.50
      9.3700	  590.00	  552.86	-1737.72	  442.88
      9.4700	  575.00	  553.23	-1737.72	  443.26
      9.5700	  553.00	  553.59	-1737.72	  443.62
      9.6700	  580.00	  553.94	-1737.72	  443.97
      9.7700	  574.00	  554.29	-1737.72	  444.31
      9.8700	  574.00	  554.62	-1737.72	  444.65
      9.9700	  536.00	  554.95	-1737.72	  444.98
     10.0700	  627.00	  556.94	-1667.66	  445.29
     10.1700	  568.00	  557.43	-1727.15	  445.60
     10.2700	  591.00	  557.95	-1704.67	  445.90
     10.3700	  600.00	  558.52	-1696.24	  446.19
     10.4700	  551.00	  559.17	-1745.89	  446.48
     10.5700	  586.00	  559.96	-1711.68	  446.75
     10.6700	  588.00	  560.98	-1710.70	  447.01
     10.7700	  576.00	  562.32	-1724.04	  447.27
     10.8700	  592.00	  564.06	-1709.78	  447.52
     10.9700	  613.00	  566.23	-1690.95	  447.76
     11.0700	  564.00	  568.84	-1742.56	  447.99
     11.1700	  601.00	  571.88	-1708.60	  448.22
     11.2700	  593.00	  575.39	-1720.11	  448.44
     11.3700	  573.00	  579.46	-1744.17	  448.64
     11.4700	  593.00	  584.21	-1728.93	  448.84
     11.5700	  607.00	  589.86	-1720.58	  449.04
     11.6700	  563.00	  596.75	-1771.47	  449.22
     11.7700	  604.00	  605.32	-1739.04	  449.40
     11.8700	  600.00	  615.99	-1753.71	  449.57
     11.9700	  680.00	  628.59	-1686.31	  449.73
     12.0700	  698.00	  641.54	-1681.26	  449.89
     12.1700	  685.00	  650.92	-1703.64	  450.03
     12.2700	  658.00	  650.62	-1730.34	  450.17
     12.3700	  669.00	  637.03	-1705.75	  450.31
     12.4700	  613.00	  616.16	-1740.88	  450.43
     12.5700	  587.00	  597.18	-1747.90	  450.55
     12.6700	  595.00	  583.78	-1726.50	  450.66
     12.7700	  550.00	  575.62	-1763.34	  450.76
     12.8700	  565.00	  571.05	-1743.76	  450.86
     12.9700	  587.00	  568.50	-1719.22	  450.95
     13.0700	  541.00	  566.99	-1763.70	  451.04
     13.1700	  558.00	  565.99	-1745.70	  451.11
     13.2700	  525.00	  565.27	-1777.99	  451.18
     13.3700	  554.00	  564.74	-1748.46	  451.25
     13.4700	  537.00	  564.33	-1765.05	  451.30
     13.5700	  549.00	  564.01	-1752.72	  451.35
     13.6700	  527.00	  563.75	-1774.46	  451.40
     13.7700	  559.00	  563.54	-1742.25	  451.44
     13.8700	  538.00	  563.36	-1763.08	  451.47
     13.9700	  542.00	  563.21	-1758.93	  451.49
     14.0700	  580.00	  563.08	-1720.80	  451.51
     14.1700	  549.00	  563.00	-1751.72	  451.52
     14.2700	  590.00	  562.90	-1710.62	  451.53
     14.3700	  511.00	  562.80	-1789.52	  451.53
     14.4700	  578.00	  562.72	-1722.43	  451.53
     14.5700	  539.00	  562.63	-1761.35	  451.52
     14.6700	  558.00	  562.55	-1742.27	  451.50
     14.7700	  557.00	  562.47	-1743.19	  451.48
     14.8700	  566.00	  562.39	-1734.11	  451.45
     14.9700	  559.00	  562.32	-1741.03	  451.41
     15.0700	  555.00	  562.24	-1744.95	  451.37
     15.1700	  574.00	  562.15	-1725.87	  451.33
     15.2700	  506.00	  562.07	-1793.79	  451.28
     15.3700	  538.00	  561.99	-1761.70	  451.22
     15.4700	  528.00	  561.90	-1771.62	  451.16
     15.5700	  548.00	  561.81	-1751.52	  451.10
     15.6700	  575.00	  561.71	-1724.43	  451.02
     15.7700	  582.00	  561.61	-1717.33	  450.95
     15.8700	  536.00	  561.51	-1763.23	  450.86
     15.9700	  546.00	  561.41	-1753.13	  450.78
     16.0700	  547.00	  561.30	-1752.02	  450.68
     16.1700	  557.00	  561.19	-1741.91	  450.59
     16.2700	  598.00	  561.07	-1700.79	  450.49
     16.3700	  551.00	  560.96	-1747.67	  450.38
     16.4700	  583.00	  560.83	-1715.55	  450.27
     16.5700	  536.00	  560.71	-1762.42	  450.15
     16.6700	  561.00	  560.58	-1737.29	  450.03
     16.7700	  561.00	  560.44	-1737.16	  449.90
     16.8700	  496.00	  560.30	-1802.02	  449.77
     16.9700	  524.00	  560.16	-1773.88	  449.64
     17.0700	  533.00	  560.01	-1764.73	  449.50
     17.1700	  562.00	  559.86	-1735.58	  449.36
     17.2700	  520.00	  559.71	-1777.43	  449.21
     17.3700	  516.00	  559.55	-1781.27	  449.05
     17.4700	  513.00	  559.39	-1784.11	  448.90
     17.5700	  561.00	  559.23	-1735.94	  448.74
     17.6700	  576.00	  559.17	-1720.88	  448.57
     17.7700	  562.00	  559.00	-1734.71	  448.40
     17.8700	  547.00	  558.82	-1749.54	  448.23
     17.9700	  537.00	  558.64	-1759.36	  448.05
     18.0700	  545.00	  558.46	-1751.18	  447.87
     18.1700	  514.00	  558.28	-1782.00	  447.69
     18.2700	  547.00	  558.19	-1748.90	  447.50
     18.3700	  538.00	  558.00	-1757.71	  447.31
     18.4700	  544.00	  557.80	-1751.52	  447.11
     18.5700	  572.00	  557.61	-1723.32	  446.91
     18.6700	  539.00	  557.41	-1756.13	  446.71
     18.7700	  554.00	  557.20	-1740.92	  446.50
     18.8700	  522.00	  557.00	-1772.72	  446.29
     18.9700	  550.00	  556.79	-1744.51	  446.07
     19.0700	  567.00	  556.58	-1727.30	  445.86
     19.1700	  581.00	  556.36	-1713.08	  445.63
     19.2700	  554.00	  556.15	-1739.86	  445.41
     19.3700	  583.00	  555.93	-1710.64	  445.18
     19.4700	  524.00	  555.70	-1769.42	  444.95
     19.5700	  538.00	  555.48	-1755.20	  444.72
     19.6700	  553.00	  555.25	-1739.97	  444.48
     19.7700	  522.00	  555.02	-1770.74	  444.24
     19.8700	  565.00	  554.82	-1727.54	  443.99
     19.9700	  552.00	  554.58	-1740.30	  443.75
     20.0700	  544.00	  554.35	-1748.07	  443.50
     20.1700	  562.00	  554.11	-1729.83	  443.25
     20.2700	  561.00	  553.87	-1730.59	  442.99
     20.3700	  570.00	  553.62	-1721.34	  442.73
     20.4700	  516.00	  553.38	-1775.10	  442.47
     20.5700	  522.00	  553.13	-1768.85	  442.21
     20.6700	  559.00	  552.88	-1731.60	  441.94
     20.7700	  517.00	  552.63	-1773.35	  441.67
     20.8700	  535.00	  552.38	-1755.10	  441.40
     20.9700	  550.00	  552.13	-1739.85	  441.12
     21.0700	  548.00	  551.87	-1741.59	  440.85
     21.1700	  571.00	  551.62	-1718.34	  440.57
     21.2700	  555.00	  551.36	-1734.08	  440.28
     21.3700	  561.00	  551.11	-1727.82	  440.00
     21.4700	  536.00	  550.85	-1752.57	  439.71
     21.5700	  572.00	  550.59	-1716.31	  439.42
     21.6700	  541.00	  550.34	-1747.05	  439.13
     21.7700	  525.00	  550.08	-1762.80	  438.84
     21.8700	  564.00	  549.82	-1723.54	  438.54
     21.9700	  533.00	  549.57	-1754.29	  438.24
     22.0700	  554.00	  549.32	-1733.04	  437.94
     22.1700	  528.00	  549.07	-1758.79	  437.64
     22.2700	  571.00	  548.82	-1715.54	  437.34
     22.3700	  570.00	  548.58	-1716.30	  437.03
     22.4700	  558.00	  548.34	-1728.06	  436.72
     22.5700	  555.00	  548.26	-1730.98	  436.41
     22.6700	  507.00	  548.00	-1778.71	  436.10
     22.7700	  559.00	  547.78	-1726.50	  435.79
     22.8700	  547.00	  547.58	-1738.30	  435.47
     22.9700	  553.00	  547.40	-1732.11	  435.15
     23.0700	  509.00	  547.23	-1775.95	  434.83
     23.1700	  542.00	  547.08	-1742.80	  434.51
     23.2700	  554.00	  546.96	-1730.68	  434.19
     23.3700	  496.00	  546.88	-1788.60	  433.86
     23.4700	  553.00	  546.84	-1731.56	  433.54
     23.5700	  535.00	  546.87	-1749.59	  433.21
     23.6700	  540.00	  546.99	-1744.71	  432.88
     23.7700	  549.00	  547.26	-1735.98	  432.55
     23.8700	  596.00	  547.76	-1689.48	  432.22
     23.9700	  530.00	  548.65	-1756.37	  431.89
     24.0700	  538.00	  550.24	-1749.95	  431.55
     24.1700	  565.00	  552.93	-1725.65	  431.21
     24.2700	  549.00	  557.32	-1746.04	  430.88
     24.3700	  568.00	  564.00	-1733.72	  430.54
     24.4700	  587.00	  573.38	-1724.09	  430.20
     24.5700	  581.00	  585.26	-1741.98	  429.86
     24.6700	  605.00	  598.28	-1731.00	  429.52
     24.7700	  633.00	  609.11	-1713.83	  429.17
     24.8700	  641.00	  612.53	-1709.25	  428.83
     24.9700	  622.00	  604.66	-1720.38	  428.48
     25.0700	  628.00	  589.04	-1698.75	  428.14
     25.1700	  637.00	  573.17	-1673.89	  427.79
     25.2700	  568.00	  561.06	-1730.77	  427.44
     25.3700	  633.00	  553.16	-1657.88	  427.09
     25.4700	  535.00	  548.49	-1751.20	  426.74
     25.5700	  570.00	  545.80	-1713.52	  426.39
     25.6700	  539.00	  544.18	-1742.90	  426.04
     25.7700	  560.00	  543.11	-1720.83	  425.69
     25.8700	  560.00	  542.35	-1720.07	  425.33
     25.9700	  551.00	  541.78	-1728.50	  424.98
     26.0700	  547.00	  541.35	-1732.07	  424.62
     26.1700	  561.00	  541.05	-1717.76	  424.27
     26.2700	  573.00	  540.84	-1705.56	  423.91
     26.3700	  576.00	  540.75	-1702.46	  423.55
     26.4700	  560.00	  540.75	-1718.47	  423.20
     26.5700	  562.00	  540.86	-1716.58	  422.84
     26.6700	  578.00	  541.10	-1700.82	  422.48
     26.7700	  575.00	  541.49	-1704.21	  422.12
     26.8700	  578.00	  542.06	-1701.78	  421.76
     26.9700	  564.00	  542.85	-1716.57	  421.40
     27.0700	  584.00	  543.95	-1697.66	  421.04
     27.1700	  548.00	  545.45	-1735.17	  420.68
     27.2700	  584.00	  547.56	-1701.28	  420.32
     27.3700	  604.00	  550.67	-1684.39	  419.96
     27.4700	  584.00	  555.53	-1709.25	  419.60
     27.5700	  589.00	  563.49	-1712.21	  419.24
     27.6700	  572.00	  576.83	-1742.54	  418.88
     27.7700	  555.00	  598.71	-1781.43	  418.51
     27.8700	  576.00	  632.52	-1794.24	  418.15
     27.9700	  629.00	  679.91	-1788.63	  417.79
     28.0700	  715.00	  738.15	-1760.87	  417.43
     28.1700	  843.00	  797.25	-1691.96	  417.06
     28.2700	  975.00	  838.64	-1601.36	  416.70
     28.3700	  908.00	  841.73	-1671.44	  416.34
     28.4700	  837.00	  808.09	-1708.81	  415.98
     28.5700	  773.00	  769.12	-1733.84	  415.61
     28.6700	  692.00	  751.28	-1796.99	  415.25
     28.7700	  727.00	  759.78	-1770.50	  414.89
     28.8700	  795.00	  783.40	-1726.12	  414.53
     28.9700	  807.00	  800.01	-1730.73	  414.16
     29.0700	  796.00	  785.98	-1727.70	  413.80
     29.1700	  773.00	  737.68	-1702.39	  413.44
     29.2700	  705.00	  677.54	-1710.26	  413.08
     29.3700	  624.00	  626.11	-1739.83	  412.72
     29.4700	  583.00	  590.09	-1744.81	  412.36
     29.5700	  599.00	  567.97	-1706.69	  411.99
     29.6700	  574.00	  555.33	-1719.05	  411.63
     29.7700	  555.00	  548.16	-1730.88	  411.27
     29.8700	  530.00	  543.87	-1751.58	  410.91
     29.9700	  597.00	  541.15	-1681.87	  410.55
     30.0700	  579.00	  539.50	-1698.21	  410.19
     30.1700	  583.00	  538.84	-1693.55	  409.83
     30.2700	  561.00	  539.42	-1716.13	  409.48
     30.3700	  604.00	  541.83	-1675.55	  409.12
     30.4700	  586.00	  547.06	-1698.77	  408.76
     30.5700	  644.00	  556.21	-1649.92	  408.40
     30.6700	  575.00	  569.90	-1732.62	  408.05
     30.7700	  607.00	  587.26	-1717.98	  407.69
     30.8700	  607.00	  604.96	-1735.68	  407.34
     30.9700	  630.00	  616.94	-1724.66	  406.98
     31.0700	  599.00	  616.06	-1754.77	  406.63
     31.1700	  622.00	  600.92	-1716.64	  406.27
     31.2700	  541.00	  579.42	-1776.14	  405.92
     31.3700	  573.00	  559.82	-1724.54	  405.57
     31.4700	  500.00	  545.43	-1783.15	  405.22
     31.5700	  534.00	  536.25	-1739.97	  404.87
     31.6700	  568.00	  530.88	-1700.59	  404.51
     31.7700	  546.00	  527.81	-1719.53	  404.17
     31.8700	  553.00	  525.99	-1710.71	  403.82
     31.9700	  538.00	  524.81	-1724.53	  403.47
     32.0700	  514.00	  524.02	-1747.74	  403.12
     32.1700	  573.00	  523.50	-1688.22	  402.78
     32.2700	  503.00	  523.19	-1757.91	  402.43
     32.3700	  552.00	  523.08	-1708.80	  402.09
     32.4700	  549.00	  523.17	-1711.89	  401.74
     32.5700	  541.00	  523.48	-1720.20	  401.40
     32.6700	  534.00	  524.03	-1727.75	  401.06
     32.7700	  537.00	  524.87	-1725.59	  400.72
     32.8700	  559.00	  526.09	-1704.81	  400.38
     32.9700	  536.00	  527.80	-1729.52	  400.04
     33.0700	  543.00	  530.22	-1724.94	  399.70
     33.1700	  563.00	  533.77	-1708.49	  399.36
     33.2700	  538.00	  539.29	-1739.01	  399.03
     33.3700	  556.00	  548.42	-1730.14	  398.69
     33.4700	  554.00	  564.11	-1747.82	  398.36
     33.5700	  587.00	  590.89	-1741.61	  398.03
     33.6700	  646.00	  634.28	-1726.00	  397.69
     33.7700	  719.00	  698.05	-1716.76	  397.36
     33.8700	  796.00	  779.71	-1721.43	  397.03
     33.9700	  941.00	  865.96	-1662.68	  396.71
     34.0700	 1003.00	  930.91	-1665.63	  396.38
     34.1700	  956.00	  942.61	-1724.33	  396.05
     34.2700	  964.00	  888.81	-1662.53	  395.73
     34.3700	  862.00	  797.54	-1673.26	  395.40
     34.4700	  713.00	  706.70	-1731.42	  395.08
     34.5700	  638.00	  635.71	-1735.43	  394.76
     34.6700	  583.00	  587.95	-1742.67	  394.44
     34.7700	  593.00	  559.01	-1703.73	  394.12
     34.8700	  543.00	  542.39	-1737.11	  393.80
     34.9700	  522.00	  532.69	-1748.41	  393.49
     35.0700	  492.00	  526.58	-1772.30	  393.17
     35.1700	  532.00	  522.31	-1728.03	  392.86
     35.2700	  496.00	  519.08	-1760.80	  392.55
     35.3700	  529.00	  516.52	-1725.23	  392.24
     35.4700	  529.00	  514.42	-1723.14	  391.93
     35.5700	  564.00	  512.67	-1686.39	  391.62
     35.6700	  501.00	  511.19	-1747.91	  391.31
     35.7700	  519.00	  510.35	-1729.07	  391.01
     35.8700	  508.00	  509.24	-1738.96	  390.70
     35.9700	  502.00	  508.27	-1743.99	  390.40
     36.0700	  502.00	  507.42	-1743.14	  390.10
     36.1700	  499.00	  506.64	-1745.36	  389.80
     36.2700	  511.00	  505.95	-1732.66	  389.50
     36.3700	  515.00	  505.32	-1728.04	  389.21
     36.4700	  467.00	  504.75	-1775.47	  388.91
     36.5700	  502.00	  504.25	-1739.96	  388.62
     36.6700	  507.00	  503.80	-1734.52	  388.32
     36.7700	  502.00	  503.42	-1739.14	  388.03
     36.8700	  521.00	  503.12	-1719.84	  387.74
     36.9700	  491.00	  502.96	-1749.68	  387.46
     37.0700	  470.00	  503.02	-1770.74	  387.17
     37.1700	  465.00	  503.43	-1776.15	  386.89
     37.2700	  496.00	  504.40	-1746.12	  386.60
     37.3700	  516.00	  506.11	-1727.83	  386.32
     37.4700	  465.00	  508.61	-1781.33	  386.04
     37.5700	  535.00	  511.66	-1714.37	  385.76
     37.6700	  521.00	  514.53	-1731.25	  385.49
     37.7700	  512.00	  516.13	-1741.85	  385.21
     37.8700	  525.00	  515.60	-1728.32	  384.94
     37.9700	  461.00	  512.72	-1789.44	  384.67
     38.0700	  505.00	  508.90	-1741.62	  384.40
     38.1700	  506.00	  505.28	-1737.00	  384.13
     38.2700	  463.00	  502.37	-1777.09	  383.86
     38.3700	  483.00	  500.24	-1754.96	  383.60
     38.4700	  480.00	  498.79	-1756.51	  383.33
     38.5700	  510.00	  497.80	-1725.52	  383.07
     38.6700	  484.00	  497.10	-1750.82	  382.81
     38.7700	  505.00	  496.57	-1729.28	  382.55
     38.8700	  478.00	  496.12	-1755.84	  382.30
     38.9700	  483.00	  495.74	-1750.46	  382.04
     39.0700	  479.00	  495.39	-1754.11	  381.79
     39.1700	  491.00	  494.96	-1741.68	  381.54
     39.2700	  482.00	  494.67	-1750.39	  381.29
     39.3700	  469.00	  494.39	-1763.11	  381.04
     39.4700	  490.00	  494.12	-1741.84	  380.79
     39.5700	  486.00	  493.87	-1745.59	  380.55
     39.6700	  498.00	  493.63	-1733.35	  380.30
     39.7700	  500.00	  493.41	-1731.13	  380.06
     39.8700	  491.00	  493.20	-1739.91	  379.82
     39.9700	  508.00	  492.99	-1722.71	  379.59
     40.0700	  493.00	  492.72	-1737.43	  379.35
     40.1700	  484.00	  492.54	-1746.26	  379.12
     40.2700	  510.00	  492.38	-1720.10	  378.89
     40.3700	  482.00	  492.23	-1747.95	  378.66
     40.4700	  485.00	  492.10	-1744.82	  378.43
     40.5700	  479.00	  492.49	-1751.21	  378.20
     40.6700	  477.00	  492.40	-1753.12	  377.98
     40.7700	  471.00	  492.34	-1759.06	  377.75
     40.8700	  509.00	  492.30	-1721.02	  377.53
     40.9700	  451.00	  492.29	-1779.01	  377.31
     41.0700	  456.00	  492.32	-1774.04	  377.09
     41.1700	  509.00	  492.40	-1721.11	  376.88
     41.2700	  510.00	  492.53	-1720.24	  376.67
     41.3700	  459.00	  492.73	-1771.45	  376.45
     41.4700	  479.00	  493.02	-1751.74	  376.24
     41.5700	  476.00	  493.43	-1755.15	  376.04
     41.6700	  445.00	  494.01	-1786.73	  375.83
     41.7700	  495.00	  494.88	-1737.59	  375.62
     41.8700	  501.00	  496.22	-1732.94	  375.42
     41.9700	  489.00	  498.44	-1747.16	  375.22
     42.0700	  467.00	  502.30	-1773.01	  375.02
     42.1700	  504.00	  508.72	-1742.44	  374.83
     42.2700	  504.00	  519.21	-1752.93	  374.63
     42.3700	  485.00	  534.48	-1787.19	  374.44
     42.4700	  541.00	  554.76	-1751.48	  374.25
     42.5700	  574.00	  577.95	-1741.66	  374.06
     42.6700	  562.00	  599.06	-1774.78	  373.87
     42.7700	  549.00	  610.76	-1799.48	  373.68
     42.8700	  588.00	  607.10	-1756.82	  373.50
     42.9700	  580.00	  589.50	-1747.21	  373.32
     43.0700	  561.00	  565.98	-1742.70	  373.14
     43.1700	  525.00	  543.16	-1755.88	  372.96
     43.2700	  557.00	  524.86	-1705.57	  372.78
     43.3700	  488.00	  511.88	-1761.60	  372.61
     43.4700	  484.00	  503.52	-1757.23	  372.44
     43.5700	  469.00	  498.44	-1767.16	  372.27
     43.6700	  474.00	  495.42	-1759.14	  372.10
     43.7700	  472.00	  493.55	-1759.27	  371.93
     43.8700	  528.00	  492.31	-1702.02	  371.77
     43.9700	  534.00	  491.40	-1695.12	  371.61
     44.0700	  463.00	  490.71	-1765.43	  371.45
     44.1700	  481.00	  490.16	-1746.88	  371.29
     44.2700	  452.00	  489.72	-1775.44	  371.13
     44.3700	  470.00	  489.56	-1757.28	  370.98
     44.4700	  506.00	  489.27	-1720.99	  370.82
     44.5700	  476.00	  489.03	-1750.75	  370.67
     44.6700	  502.00	  488.85	-1724.56	  370.52
     44.7700	  503.00	  488.70	-1723.42	  370.38
     44.8700	  489.00	  488.59	-1737.30	  370.23
     44.9700	  516.00	  488.51	-1710.23	  370.09
     45.0700	  511.00	  488.46	-1715.18	  369.95
     45.1700	  486.00	  488.44	-1740.16	  369.81
     45.2700	  496.00	  488.45	-1730.17	  369.67
     45.3700	  505.00	  488.49	-1721.21	  369.53
     45.4700	  479.00	  488.55	-1747.27	  369.40
     45.5700	  491.00	  488.65	-1735.37	  369.27
     45.6700	  485.00	  488.77	-1741.49	  369.14
     45.7700	  481.00	  488.93	-1745.65	  369.01
     45.8700	  497.00	  489.12	-1729.84	  368.88
     45.9700	  466.00	  489.26	-1760.98	  368.76
     46.0700	  477.00	  489.53	-1750.25	  368.64
     46.1700	  460.00	  489.89	-1767.60	  368.52
     46.2700	  489.00	  490.25	-1738.97	  368.40
     46.3700	  527.00	  490.69	-1701.41	  368.28
     46.4700	  517.00	  491.19	-1711.91	  368.17
     46.5700	  522.00	  491.77	-1707.49	  368.05
     46.6700	  474.00	  492.45	-1756.17	  367.94
     46.7700	  469.00	  493.26	-1761.98	  367.83
     46.8700	  472.00	  494.26	-1759.97	  367.73
     46.9700	  541.00	  495.54	-1692.26	  367.62
     47.0700	  475.00	  497.29	-1760.01	  367.52
     47.1700	  472.00	  499.86	-1765.58	  367.42
     47.2700	  531.00	  503.78	-1710.50	  367.32
     47.3700	  539.00	  509.76	-1708.48	  367.22
     47.4700	  501.00	  518.55	-1755.27	  367.12
     47.5700	  524.00	  530.65	-1744.37	  367.03
     47.6700	  547.00	  545.80	-1736.52	  366.94
     47.7700	  551.00	  562.52	-1749.24	  366.85
     47.8700	  576.00	  577.67	-1739.39	  366.76
     47.9700	  643.00	  586.82	-1681.54	  366.67
     48.0700	  605.00	  586.58	-1719.30	  366.59
     48.1700	  568.00	  577.70	-1747.42	  366.51
     48.2700	  560.00	  564.55	-1742.27	  366.43
     48.3700	  544.00	  551.50	-1745.22	  366.35
     48.4700	  530.00	  541.54	-1749.26	  366.27
     48.5700	  551.00	  534.88	-1721.60	  366.20
     48.6700	  492.00	  531.90	-1777.62	  366.12
     48.7700	  577.00	  532.11	-1692.83	  366.05
     48.8700	  532.00	  534.94	-1740.65	  365.98
     48.9700	  562.00	  540.02	-1715.73	  365.91
     49.0700	  528.00	  547.41	-1757.12	  365.85
     49.1700	  536.00	  557.79	-1759.51	  365.78
     49.2700	  540.00	  572.89	-1770.61	  365.72
     49.3700	  586.00	  596.27	-1747.99	  365.66
     49.4700	  647.00	  634.41	-1725.12	  365.60
     49.5700	  648.00	  697.70	-1787.41	  365.54
     49.6700	  709.00	  800.27	-1828.98	  365.49
     49.7700	  857.00	  957.25	-1837.97	  365.44
     49.8700	 1107.00	 1178.68	-1809.40	  365.38
     49.9700	 1464.00	 1460.83	-1734.55	  365.33
     50.0700	 1759.00	 1776.35	-1755.07	  365.29
     50.1700	 2052.00	 2066.79	-1752.51	  365.24
     50.2700	 2339.00	 2247.08	-1645.80	  365.19
     50.3700	 2329.00	 2243.87	-1652.58	  365.15
     50.4700	 2135.00	 2057.12	-1659.84	  365.11
     50.5700	 1765.00	 1763.41	-1736.13	  365.07
     50.6700	 1363.00	 1450.76	-1825.48	  365.03
     50.7700	 1048.00	 1176.77	-1866.49	  365.00
     50.8700	  805.00	  966.79	-1899.51	  364.96
     50.9700	  764.00	  822.97	-1796.69	  364.93
     51.0700	  714.00	  732.83	-1756.54	  364.90
     51.1700	  647.00	  679.35	-1770.06	  364.87
     51.2700	  600.00	  646.26	-1783.98	  364.84
     51.3700	  591.00	  622.25	-1768.97	  364.82
     51.4700	  562.00	  602.00	-1777.72	  364.79
     51.5700	  578.00	  584.35	-1744.07	  364.77
     51.6700	  557.00	  569.44	-1750.16	  364.75
     51.7700	  591.00	  557.55	-1704.27	  364.73
     51.8700	  533.00	  548.63	-1753.35	  364.71
     51.9700	  523.00	  542.41	-1757.12	  364.70
     52.0700	  545.00	  538.44	-1731.16	  364.68
     52.1700	  570.00	  536.30	-1704.02	  364.67
     52.2700	  544.00	  535.71	-1729.43	  364.66
     52.3700	  560.00	  536.57	-1714.29	  364.65
     52.4700	  571.00	  539.09	-1705.81	  364.64
     52.5700	  525.00	  543.94	-1756.66	  364.64
     52.6700	  592.00	  552.48	-1698.19	  364.63
     52.7700	  598.00	  567.02	-1706.74	  364.63
     52.8700	  606.00	  591.09	-1722.81	  364.63
     52.9700	  602.00	  629.19	-1764.91	  364.63
     53.0700	  673.00	  685.90	-1750.61	  364.63
     53.1700	  819.00	  764.13	-1682.85	  364.64
     53.2700	  923.00	  862.81	-1677.52	  364.64
     53.3700	  975.00	  974.28	-1737.00	  364.65
     53.4700	 1099.00	 1081.95	-1720.67	  364.66
     53.5700	 1221.00	 1160.18	-1676.90	  364.67
     53.6700	 1203.00	 1182.40	-1717.12	  364.68
     53.7700	 1132.00	 1139.25	-1744.97	  364.69
     53.8700	 1013.00	 1047.64	-1772.36	  364.70
     53.9700	  933.00	  936.14	-1740.86	  364.72
     54.0700	  831.00	  828.00	-1734.72	  364.74
     54.1700	  743.00	  736.47	-1731.19	  364.75
     54.2700	  661.00	  666.53	-1743.25	  364.77
     54.3700	  599.00	  617.53	-1756.24	  364.80
     54.4700	  570.00	  585.67	-1753.39	  364.82
     54.5700	  639.00	  566.20	-1664.92	  364.84
     54.6700	  524.00	  554.89	-1768.61	  364.87
     54.7700	  541.00	  548.61	-1745.33	  364.90
     54.8700	  538.00	  545.40	-1745.12	  364.93
     54.9700	  562.00	  544.15	-1719.87	  364.96
     55.0700	  543.00	  544.30	-1739.01	  364.99
     55.1700	  584.00	  545.60	-1699.32	  365.02
     55.2700	  560.00	  547.99	-1725.71	  365.05
     55.3700	  570.00	  551.51	-1719.23	  365.09
     55.4700	  586.00	  556.31	-1708.03	  365.13
     55.5700	  534.00	  562.66	-1766.37	  365.17
     55.6700	  577.00	  571.10	-1731.82	  365.21
     55.7700	  557.00	  582.67	-1763.39	  365.25
     55.8700	  620.00	  599.32	-1717.04	  365.29
     55.9700	  602.00	  624.61	-1760.33	  365.33
     56.0700	  632.00	  664.45	-1770.17	  365.38
     56.1700	  718.00	  727.77	-1747.49	  365.42
     56.2700	  736.00	  826.23	-1827.95	  365.47
     56.3700	  952.00	  972.59	-1758.31	  365.52
     56.4700	 1079.00	 1176.72	-1835.44	  365.57
     56.5700	 1420.00	 1440.20	-1757.92	  365.62
     56.6700	 1720.00	 1750.22	-1767.93	  365.67
     56.7700	 2047.00	 2073.80	-1764.52	  365.73
     56.8700	 2357.00	 2354.11	-1734.83	  365.78
     56.9700	 2527.00	 2517.94	-1728.66	  365.84
     57.0700	 2448.00	 2508.61	-1798.33	  365.90
     57.1700	 2395.00	 2329.48	-1672.20	  365.95
     57.2700	 2002.00	 2041.79	-1777.51	  366.01
     57.3700	 1682.00	 1719.25	-1774.97	  366.07
     57.4700	 1400.00	 1416.15	-1753.87	  366.14
     57.5700	 1173.00	 1162.89	-1727.61	  366.20
     57.6700	  979.00	  970.34	-1729.06	  366.26
     57.7700	  806.00	  835.91	-1767.62	  366.33
     57.8700	  739.00	  749.78	-1748.50	  366.40
     57.9700	  735.00	  700.28	-1703.00	  366.46
     58.0700	  707.00	  677.58	-1708.30	  366.53
     58.1700	  670.00	  675.19	-1742.90	  366.60
     58.2700	  721.00	  689.80	-1706.51	  366.67
     58.3700	  770.00	  720.19	-1687.91	  366.75
     58.4700	  767.00	  765.81	-1736.53	  366.82
     58.5700	  865.00	  825.22	-1697.93	  366.89
     58.6700	  966.00	  894.79	-1666.51	  366.97
     58.7700	  994.00	  967.97	-1711.69	  367.04
     58.8700	 1113.00	 1036.70	-1661.42	  367.12
     58.9700	 1076.00	 1095.08	-1756.80	  367.20
     59.0700	 1335.00	 1140.00	-1542.72	  367.28
     59.1700	 1265.00	 1167.94	-1640.66	  367.36
     59.2700	 1263.00	 1175.19	-1649.91	  367.44
     59.3700	 1322.00	 1163.87	-1579.59	  367.52
     59.4700	 1247.00	 1143.87	-1634.59	  367.60
     59.5700	 1233.00	 1126.66	-1631.37	  367.69
     59.6700	 1137.00	 1120.02	-1720.74	  367.77
     59.7700	 1173.00	 1129.16	-1693.88	  367.86
     59.8700	 1176.00	 1159.51	-1721.23	  367.94
     59.9700	 1288.00	 1215.12	-1664.84	  368.03
     60.0700	 1355.00	 1293.52	-1676.24	  368.12
     60.1700	 1367.00	 1382.23	-1752.95	  368.21
     60.2700	 1533.00	 1458.11	-1662.83	  368.30
     60.3700	 1557.00	 1492.24	-1672.96	  368.39
     60.4700	 1572.00	 1463.41	-1629.13	  368.48
     60.5700	 1437.00	 1373.19	-1673.91	  368.57
     60.6700	 1290.00	 1243.79	-1691.50	  368.67
     60.7700	 1146.00	 1102.13	-1693.85	  368.76
     60.8700	  957.00	  968.94	-1749.65	  368.86
     60.9700	  814.00	  856.71	-1780.42	  368.95
     61.0700	  774.00	  771.08	-1734.79	  369.05
     61.1700	  753.00	  712.77	-1697.49	  369.15
     61.2700	  693.00	  680.02	-1724.73	  369.24
     61.3700	  657.00	  670.64	-1751.35	  369.34
     61.4700	  674.00	  683.60	-1747.32	  369.44
     61.5700	  706.00	  719.52	-1751.24	  369.54
     61.6700	  746.00	  779.88	-1771.60	  369.64
     61.7700	  879.00	  865.48	-1724.20	  369.74
     61.8700	  903.00	  974.27	-1808.99	  369.84
     61.9700	 1050.00	 1099.48	-1787.19	  369.95
     62.0700	 1158.00	 1227.73	-1807.44	  370.05
     62.1700	 1352.00	 1338.35	-1724.06	  370.15
     62.2700	 1396.00	 1405.78	-1747.50	  370.26
     62.3700	 1342.00	 1409.55	-1805.27	  370.36
     62.4700	 1307.00	 1347.79	-1778.51	  370.47
     62.5700	 1143.00	 1238.71	-1833.43	  370.58
     62.6700	 1079.00	 1108.06	-1766.78	  370.68
     62.7700	  924.00	  977.44	-1791.16	  370.79
     62.8700	  808.00	  861.02	-1790.74	  370.90
     62.9700	  708.00	  765.97	-1795.69	  371.01
     63.0700	  642.00	  694.01	-1789.73	  371.11
     63.1700	  658.00	  643.10	-1722.82	  371.22
     63.2700	  609.00	  609.27	-1737.99	  371.33
     63.3700	  609.00	  588.12	-1716.84	  371.44
     63.4700	  567.00	  576.01	-1746.73	  371.55
     63.5700	  562.00	  570.36	-1746.08	  371.67
     63.6700	  526.00	  569.94	-1781.66	  371.78
     63.7700	  604.00	  574.61	-1708.33	  371.89
     63.8700	  567.00	  585.15	-1755.87	  372.00
     63.9700	  581.00	  602.91	-1759.63	  372.11
     64.0700	  672.00	  629.44	-1695.16	  372.23
     64.1700	  741.00	  665.88	-1662.60	  372.34
     64.2700	  749.00	  712.43	-1701.15	  372.46
     64.3700	  797.00	  767.45	-1708.17	  372.57
     64.4700	  832.00	  827.13	-1732.84	  372.68
     64.5700	  959.00	  884.84	-1663.56	  372.80
     64.6700	  930.00	  931.70	-1739.42	  372.92
     64.7700	  987.00	  958.90	-1709.62	  373.03
     64.8700	  994.00	  961.54	-1705.26	  373.15
     64.9700	 1018.00	  940.54	-1660.26	  373.26
     65.0700	  895.00	  901.11	-1743.83	  373.38
     65.1700	  839.00	  852.24	-1750.96	  373.50
     65.2700	  804.00	  801.43	-1735.15	  373.61
     65.3700	  778.00	  753.88	-1713.60	  373.73
     65.4700	  703.00	  712.34	-1747.05	  373.85
     65.5700	  669.00	  677.21	-1745.93	  373.96
     65.6700	  604.00	  647.95	-1781.67	  374.08
     65.7700	  580.00	  624.00	-1781.72	  374.20
     65.8700	  588.00	  604.93	-1754.65	  374.32
     65.9700	  598.00	  590.24	-1729.95	  374.44
     66.0700	  564.00	  579.38	-1753.10	  374.55
     66.1700	  585.00	  571.83	-1724.55	  374.67
     66.2700	  550.00	  567.12	-1754.84	  374.79
     66.3700	  569.00	  564.90	-1733.62	  374.91
     66.4700	  532.00	  564.88	-1770.60	  375.03
     66.5700	  539.00	  567.18	-1765.90	  375.15
     66.6700	  611.00	  571.31	-1698.02	  375.27
     66.7700	  587.00	  577.93	-1728.65	  375.39
     66.8700	  564.00	  587.92	-1761.63	  375.51
     66.9700	  578.00	  602.91	-1762.63	  375.62
     67.0700	  608.00	  625.65	-1755.37	  375.74
     67.1700	  670.00	  660.22	-1727.94	  375.86
     67.2700	  677.00	  712.25	-1772.97	  375.98
     67.3700	  769.00	  788.41	-1757.13	  376.10
     67.4700	  883.00	  895.85	-1750.57	  376.22
     67.5700	 1049.00	 1040.52	-1729.24	  376.34
     67.6700	 1216.00	 1224.91	-1746.63	  376.46
     67.7700	 1479.00	 1445.79	-1704.51	  376.58
     67.8700	 1658.00	 1692.11	-1771.83	  376.69
     67.9700	 1981.00	 1943.09	-1699.81	  376.81
     68.0700	 2153.00	 2167.63	-1752.35	  376.93
     68.1700	 2360.00	 2326.52	-1704.24	  377.05
     68.2700	 2369.00	 2383.37	-1752.09	  377.17
     68.3700	 2329.00	 2323.05	-1731.77	  377.29
     68.4700	 2186.00	 2161.63	-1713.35	  377.40
     68.5700	 1973.00	 1935.87	-1700.59	  377.52
     68.6700	 1704.00	 1684.88	-1718.60	  377.64
     68.7700	 1372.00	 1439.60	-1805.31	  377.76
     68.8700	 1217.00	 1220.24	-1740.96	  377.87
     68.9700	  946.00	 1037.66	-1829.38	  377.99
     69.0700	  842.00	  894.79	-1790.51	  378.11
     69.1700	  766.00	  789.01	-1760.73	  378.22
     69.2700	  704.00	  714.29	-1748.01	  378.34
     69.3700	  678.00	  663.49	-1723.21	  378.45
     69.4700	  665.00	  629.85	-1702.57	  378.57
     69.5700	  608.00	  607.65	-1737.37	  378.68
     69.6700	  619.00	  593.15	-1711.87	  378.80
     69.7700	  576.00	  583.44	-1745.16	  378.91
     69.8700	  579.00	  576.79	-1735.51	  379.03
     69.9700	  560.00	  572.20	-1749.91	  379.14
     70.0700	  603.00	  569.09	-1703.81	  379.26
     70.1700	  578.00	  567.17	-1726.88	  379.37
     70.2700	  560.00	  566.30	-1744.02	  379.48
     70.3700	  559.00	  566.47	-1745.19	  379.59
     70.4700	  586.00	  567.78	-1719.50	  379.71
     70.5700	  577.00	  570.48	-1731.20	  379.82
     70.6700	  577.00	  575.03	-1735.74	  379.93
     70.7700	  571.00	  582.28	-1749.00	  380.04
     70.8700	  564.00	  593.56	-1767.28	  380.15
     70.9700	  586.00	  611.84	-1763.56	  380.26
     71.0700	  637.00	  638.18	-1738.90	  380.37
     71.1700	  638.00	  677.19	-1776.91	  380.48
     71.2700	  805.00	  733.18	-1665.90	  380.58
     71.3700	  824.00	  810.47	-1724.18	  380.69
     71.4700	  956.00	  912.48	-1694.20	  380.80
     71.5700	 1046.00	 1040.52	-1732.24	  380.91
     71.6700	 1093.00	 1192.54	-1837.26	  381.01
     71.7700	 1319.00	 1362.00	-1780.72	  381.12
     71.8700	 1525.00	 1536.91	-1749.62	  381.22
     71.9700	 1691.00	 1699.37	-1746.09	  381.33
     72.0700	 1832.00	 1826.39	-1732.11	  381.43
     72.1700	 1828.00	 1894.26	-1803.98	  381.53
     72.2700	 1772.00	 1887.64	-1853.36	  381.64
     72.3700	 1801.00	 1808.08	-1744.80	  381.74
     72.4700	 1646.00	 1673.11	-1764.83	  381.84
     72.5700	 1462.00	 1506.92	-1782.63	  381.94
     72.6700	 1388.00	 1331.72	-1681.44	  382.04
     72.7700	 1149.00	 1164.30	-1753.02	  382.14
     72.8700	 1080.00	 1015.60	-1673.32	  382.24
     72.9700	  925.00	  891.27	-1703.99	  382.34
     73.0700	  843.00	  792.66	-1687.38	  382.43
     73.1700	  729.00	  717.98	-1726.70	  382.53
     73.2700	  716.00	  663.64	-1685.36	  382.62
     73.3700	  694.00	  625.34	-1669.06	  382.72
     73.4700	  675.00	  598.92	-1661.63	  382.81
     73.5700	  615.00	  580.86	-1703.58	  382.91
     73.6700	  590.00	  567.98	-1715.70	  383.00
     73.7700	  604.00	  559.38	-1693.10	  383.09
     73.8700	  608.00	  553.33	-1683.05	  383.18
     73.9700	  605.00	  549.04	-1681.76	  383.27
     74.0700	  581.00	  546.06	-1702.77	  383.36
     74.1700	  564.00	  544.06	-1717.78	  383.45
     74.2700	  647.00	  542.85	-1633.57	  383.54
     74.3700	  579.00	  542.23	-1700.94	  383.62
     74.4700	  583.00	  541.99	-1696.71	  383.71
     74.5700	  601.00	  541.92	-1678.64	  383.80
     74.6700	  628.00	  541.76	-1651.48	  383.88
     74.7700	  617.00	  541.28	-1662.00	  383.96
     74.8700	  575.00	  540.32	-1703.04	  384.05
     74.9700	  621.00	  538.90	-1655.62	  384.13
     75.0700	  600.00	  537.21	-1674.93	  384.21
     75.1700	  629.00	  535.53	-1644.25	  384.29
     75.2700	  611.00	  534.18	-1660.90	  384.37
     75.3700	  577.00	  533.51	-1694.22	  384.44
     75.4700	  567.00	  533.86	-1704.58	  384.52
     75.5700	  537.00	  535.65	-1736.37	  384.60
     75.6700	  534.00	  539.30	-1743.02	  384.67
     75.7700	  554.00	  545.21	-1728.92	  384.74
     75.8700	  597.00	  553.87	-1694.59	  384.82
     75.9700	  536.00	  565.53	-1767.25	  384.89
     76.0700	  574.00	  580.24	-1743.96	  384.96
     76.1700	  585.00	  597.74	-1750.46	  385.03
     76.2700	  672.00	  617.33	-1683.05	  385.10
     76.3700	  670.00	  637.72	-1705.44	  385.16
     76.4700	  646.00	  657.36	-1749.08	  385.23
     76.5700	  671.00	  673.92	-1740.63	  385.30
     76.6700	  687.00	  684.90	-1735.62	  385.36
     76.7700	  675.00	  688.26	-1750.98	  385.42
     76.8700	  694.00	  683.26	-1726.98	  385.49
     76.9700	  704.00	  670.87	-1704.59	  385.55
     77.0700	  650.00	  653.24	-1740.96	  385.61
     77.1700	  656.00	  632.84	-1714.56	  385.66
     77.2700	  617.00	  611.79	-1732.51	  385.72
     77.3700	  596.00	  591.83	-1733.55	  385.78
     77.4700	  544.00	  574.00	-1767.72	  385.83
     77.5700	  555.00	  558.90	-1741.62	  385.89
     77.6700	  508.00	  546.69	-1776.41	  385.94
     77.7700	  567.00	  537.23	-1707.95	  385.99
     77.8700	  496.00	  529.98	-1771.70	  386.04
     77.9700	  474.00	  524.90	-1788.61	  386.09
     78.0700	  525.00	  521.32	-1734.04	  386.14
     78.1700	  494.00	  518.85	-1762.57	  386.19
     78.2700	  524.00	  517.17	-1730.89	  386.23
     78.3700	  486.00	  516.02	-1767.73	  386.28
     78.4700	  497.00	  515.23	-1755.95	  386.32
     78.5700	  514.00	  514.70	-1738.42	  386.36
     78.6700	  499.00	  514.35	-1753.07	  386.40
     78.7700	  493.00	  514.16	-1758.88	  386.44
     78.8700	  477.00	  514.12	-1774.84	  386.48
     78.9700	  486.00	  514.21	-1765.93	  386.52
     79.0700	  511.00	  514.47	-1741.19	  386.55
     79.1700	  482.00	  514.92	-1770.63	  386.58
     79.2700	  494.00	  515.58	-1759.29	  386.62
     79.3700	  456.00	  516.49	-1798.21	  386.65
     79.4700	  489.00	  517.70	-1766.42	  386.68
     79.5700	  497.00	  519.25	-1759.97	  386.71
     79.6700	  520.00	  521.19	-1738.91	  386.73
     79.7700	  507.00	  523.58	-1754.30	  386.76
     79.8700	  511.00	  526.49	-1753.21	  386.79
     79.9700	  525.00	  530.02	-1742.73	  386.81
     80.0700	  468.00	  534.25	-1803.97	  386.83
     80.1700	  559.00	  539.33	-1718.05	  386.85
     80.2700	  544.00	  545.43	-1739.14	  386.87
     80.3700	  544.00	  552.57	-1746.28	  386.89
     80.4700	  535.00	  561.42	-1764.14	  386.90
     80.5700	  525.00	  572.02	-1784.74	  386.92
     80.6700	  582.00	  584.49	-1740.21	  386.93
     80.7700	  564.00	  598.76	-1772.48	  386.94
     80.8700	  628.00	  614.47	-1724.19	  386.96
     80.9700	  652.00	  631.00	-1716.71	  386.96
     81.0700	  643.00	  647.43	-1742.14	  386.97
     81.1700	  713.00	  662.74	-1687.46	  386.98
     81.2700	  713.00	  676.00	-1700.72	  386.98
     81.3700	  696.00	  686.42	-1728.14	  386.99
     81.4700	  714.00	  693.45	-1717.17	  386.99
     81.5700	  706.00	  696.74	-1728.46	  386.99
     81.6700	  752.00	  696.17	-1681.89	  386.99
     81.7700	  695.00	  691.79	-1734.51	  386.99
     81.8700	  703.00	  683.80	-1718.52	  386.98
     81.9700	  702.00	  672.58	-1708.30	  386.98
     82.0700	  682.00	  658.81	-1714.53	  386.97
     82.1700	  740.00	  643.48	-1641.20	  386.96
     82.2700	  652.00	  627.59	-1713.31	  386.95
     82.3700	  669.00	  611.98	-1680.70	  386.94
     82.4700	  593.00	  597.24	-1741.96	  386.92
     82.5700	  609.00	  583.74	-1712.46	  386.91
     82.6700	  620.00	  571.71	-1689.43	  386.89
     82.7700	  597.00	  561.36	-1702.07	  386.88
     82.8700	  553.00	  552.79	-1737.51	  386.86
     82.9700	  524.00	  546.08	-1759.79	  386.84
     83.0700	  510.00	  541.22	-1768.93	  386.81
     83.1700	  557.00	  538.16	-1718.88	  386.79
     83.2700	  558.00	  536.82	-1716.53	  386.76
     83.3700	  517.00	  537.06	-1757.78	  386.74
     83.4700	  497.00	  538.73	-1779.45	  386.71
     83.5700	  525.00	  541.60	-1754.32	  386.68
     83.6700	  520.00	  545.31	-1763.03	  386.65
     83.7700	  532.00	  549.64	-1755.36	  386.61
     83.8700	  551.00	  554.04	-1740.76	  386.58
     83.9700	  535.00	  558.06	-1760.78	  386.54
     84.0700	  554.00	  561.12	-1744.84	  386.50
     84.1700	  535.00	  562.70	-1765.42	  386.46
     84.2700	  549.00	  562.48	-1751.20	  386.42
     84.3700	  560.00	  560.41	-1738.13	  386.38
     84.4700	  552.00	  556.77	-1742.49	  386.33
     84.5700	  567.00	  552.01	-1722.72	  386.29
     84.6700	  570.00	  546.62	-1714.33	  386.24
     84.7700	  550.00	  541.05	-1728.77	  386.19
     84.8700	  573.00	  535.65	-1700.37	  386.14
     84.9700	  538.00	  530.72	-1730.44	  386.09
     85.0700	  488.00	  526.40	-1776.12	  386.03
     85.1700	  494.00	  522.78	-1766.50	  385.97
     85.2700	  520.00	  519.88	-1737.60	  385.92
     85.3700	  541.00	  517.65	-1714.37	  385.86
     85.4700	  526.00	  516.03	-1727.75	  385.80
     85.5700	  514.00	  514.93	-1738.65	  385.73
     85.6700	  523.00	  514.29	-1729.01	  385.67
     85.7700	  470.00	  514.05	-1781.77	  385.60
     85.8700	  507.00	  514.19	-1744.91	  385.54
     85.9700	  485.00	  514.71	-1767.43	  385.47
     86.0700	  525.00	  515.67	-1728.39	  385.40
     86.1700	  502.00	  517.15	-1752.87	  385.32
     86.2700	  523.00	  519.29	-1734.01	  385.25
     86.3700	  530.00	  522.24	-1729.96	  385.17
     86.4700	  524.00	  526.17	-1739.88	  385.09
     86.5700	  574.00	  531.25	-1694.97	  385.02
     86.6700	  541.00	  537.62	-1734.34	  384.93
     86.7700	  549.00	  545.38	-1734.09	  384.85
     86.8700	  592.00	  554.50	-1700.22	  384.77
     86.9700	  572.00	  564.86	-1730.58	  384.68
     87.0700	  613.00	  576.18	-1700.90	  384.59
     87.1700	  580.00	  588.03	-1745.74	  384.51
     87.2700	  607.00	  599.77	-1730.49	  384.41
     87.3700	  607.00	  610.64	-1741.36	  384.32
     87.4700	  629.00	  619.72	-1728.44	  384.23
     87.5700	  607.00	  626.08	-1756.80	  384.13
     87.6700	  625.00	  628.98	-1741.70	  384.03
     87.7700	  591.00	  628.10	-1774.82	  383.93
     87.8700	  596.00	  623.66	-1765.37	  383.83
     87.9700	  585.00	  616.35	-1769.06	  383.73
     88.0700	  582.00	  607.12	-1762.84	  383.63
     88.1700	  609.00	  596.97	-1725.69	  383.52
     88.2700	  590.00	  586.41	-1734.13	  383.41
     88.3700	  586.00	  577.01	-1728.73	  383.30
     88.4700	  553.00	  568.97	-1753.69	  383.19
     88.5700	  565.00	  562.72	-1735.44	  383.08
     88.6700	  566.00	  558.50	-1730.22	  382.97
     88.7700	  559.00	  556.37	-1735.09	  382.85
     88.8700	  529.00	  556.24	-1764.96	  382.73
     88.9700	  557.00	  557.86	-1738.58	  382.61
     89.0700	  581.00	  560.88	-1717.60	  382.49
     89.1700	  578.00	  564.81	-1724.53	  382.37
     89.2700	  607.00	  569.12	-1699.84	  382.24
     89.3700	  616.00	  573.19	-1694.91	  382.12
     89.4700	  599.00	  576.41	-1715.13	  381.99
     89.5700	  585.00	  578.22	-1730.93	  381.86
     89.6700	  593.00	  578.22	-1722.94	  381.73
     89.7700	  525.00	  576.31	-1789.02	  381.60
     89.8700	  548.00	  572.64	-1762.36	  381.46
     89.9700	  597.00	  567.61	-1708.33	  381.33
     90.0700	  513.00	  561.68	-1786.40	  381.19
     90.1700	  507.00	  555.32	-1786.04	  381.05
     90.2700	  506.00	  548.93	-1780.64	  380.91
     90.3700	  531.00	  542.82	-1749.54	  380.77
     90.4700	  524.00	  537.26	-1750.97	  380.63
     90.5700	  510.00	  532.37	-1760.09	  380.48
     90.6700	  520.00	  528.26	-1745.98	  380.33
     90.7700	  525.00	  524.94	-1737.66	  380.18
     90.8700	  485.00	  522.38	-1775.10	  380.03
     90.9700	  500.00	  520.52	-1758.23	  379.88
     91.0700	  485.00	  519.28	-1772.00	  379.73
     91.1700	  498.00	  518.61	-1758.33	  379.57
     91.2700	  502.00	  518.44	-1754.16	  379.42
     91.3700	  487.00	  518.75	-1769.47	  379.26
     91.4700	  491.00	  519.54	-1766.26	  379.10
     91.5700	  532.00	  520.85	-1726.57	  378.94
     91.6700	  515.00	  522.76	-1745.48	  378.77
     91.7700	  506.00	  525.38	-1757.10	  378.61
     91.8700	  531.00	  528.86	-1735.57	  378.44
     91.9700	  529.00	  533.36	-1742.08	  378.28
     92.0700	  496.00	  539.08	-1780.80	  378.11
     92.1700	  496.00	  546.19	-1787.91	  377.94
     92.2700	  507.00	  554.87	-1785.59	  377.76
     92.3700	  507.00	  565.23	-1795.95	  377.59
     92.4700	  583.00	  577.33	-1732.04	  377.42
     92.5700	  564.00	  591.13	-1764.85	  377.24
     92.6700	  616.00	  606.53	-1728.25	  377.06
     92.7700	  645.00	  623.26	-1715.98	  376.88
     92.8700	  628.00	  640.96	-1750.68	  376.70
     92.9700	  695.00	  659.11	-1701.83	  376.52
     93.0700	  625.00	  677.10	-1789.81	  376.33
     93.1700	  679.00	  694.24	-1752.96	  376.15
     93.2700	  641.00	  709.92	-1806.64	  375.96
     93.3700	  676.00	  723.77	-1785.48	  375.77
     93.4700	  783.00	  735.71	-1690.42	  375.58
     93.5700	  759.00	  745.73	-1724.45	  375.39
     93.6700	  780.00	  754.88	-1712.60	  375.20
     93.7700	  741.00	  763.36	-1760.08	  375.00
     93.8700	  784.00	  771.57	-1725.29	  374.81
     93.9700	  790.00	  779.80	-1727.52	  374.61
     94.0700	  814.00	  788.34	-1712.06	  374.41
     94.1700	  854.00	  797.49	-1681.21	  374.21
     94.2700	  811.00	  807.58	-1734.30	  374.01
     94.3700	  842.00	  818.88	-1714.60	  373.81
     94.4700	  865.00	  831.43	-1704.15	  373.60
     94.5700	  897.00	  844.89	-1685.61	  373.40
     94.6700	  854.00	  858.51	-1742.23	  373.19
     94.7700	  878.00	  871.12	-1730.84	  372.98
     94.8700	  879.00	  881.28	-1740.00	  372.77
     94.9700	  874.00	  887.36	-1751.08	  372.56
     95.0700	  894.00	  887.96	-1731.68	  372.35
     95.1700	  833.00	  882.17	-1786.89	  372.13
     95.2700	  898.00	  869.91	-1709.63	  371.92
     95.3700	  885.00	  851.98	-1704.70	  371.70
     95.4700	  859.00	  829.80	-1708.52	  371.49
     95.5700	  810.00	  805.13	-1732.85	  371.27
     95.6700	  780.00	  779.84	-1737.56	  371.05
     95.7700	  751.00	  755.71	-1742.43	  370.83
     95.8700	  700.00	  734.39	-1772.10	  370.61
     95.9700	  757.00	  717.36	-1698.08	  370.38
     96.0700	  724.00	  705.96	-1719.68	  370.16
     96.1700	  720.00	  701.35	-1719.07	  369.93
     96.2700	  673.00	  704.54	-1769.26	  369.71
     96.3700	  763.00	  716.33	-1691.05	  369.48
     96.4700	  774.00	  737.33	-1701.05	  369.25
     96.5700	  751.00	  767.90	-1754.62	  369.02
     96.6700	  819.00	  808.12	-1726.84	  368.79
     96.7700	  861.00	  857.71	-1734.43	  368.55
     96.8700	  866.00	  915.95	-1787.67	  368.32
     96.9700	 1030.00	  981.61	-1689.33	  368.09
     97.0700	 1031.00	 1052.92	-1759.64	  367.85
     97.1700	 1084.00	 1127.51	-1781.23	  367.61
     97.2700	 1144.00	 1202.41	-1796.13	  367.38
     97.3700	 1230.00	 1274.05	-1781.77	  367.14
     97.4700	 1310.00	 1338.39	-1766.11	  366.90
     97.5700	 1430.00	 1391.16	-1698.88	  366.66
     97.6700	 1401.00	 1428.41	-1765.13	  366.41
     97.7700	 1370.00	 1447.13	-1814.85	  366.17
     97.8700	 1496.00	 1445.97	-1687.68	  365.93
     97.9700	 1364.00	 1425.51	-1799.23	  365.68
     98.0700	 1379.00	 1388.15	-1746.87	  365.44
     98.1700	 1263.00	 1337.39	-1812.11	  365.19
     98.2700	 1312.00	 1277.26	-1702.98	  364.94
     98.3700	 1153.00	 1211.83	-1796.54	  364.69
     98.4700	 1123.00	 1144.84	-1759.56	  364.45
     98.5700	 1100.00	 1079.67	-1717.39	  364.20
     98.6700	  988.00	 1019.16	-1768.88	  363.94
     98.7700	  985.00	  965.70	-1718.41	  363.69
     98.8700	  908.00	  921.22	-1750.93	  363.44
     98.9700	  871.00	  887.26	-1753.97	  363.19
     99.0700	  822.00	  864.99	-1780.71	  362.93
     99.1700	  853.00	  855.26	-1739.98	  362.68
     99.2700	  847.00	  858.60	-1749.32	  362.42
     99.3700	  882.00	  875.33	-1731.04	  362.17
     99.4700	  901.00	  905.46	-1742.18	  361.91
     99.5700	  942.00	  948.80	-1744.52	  361.65
     99.6700	  992.00	 1004.87	-1750.59	  361.39
     99.7700	 1045.00	 1072.79	-1765.51	  361.14
     99.8700	 1138.00	 1151.45	-1751.17	  360.88
     99.9700	 1270.00	 1239.11	-1706.82	  360.62
    100.0700	 1340.00	 1333.60	-1731.31	  360.36
    100.1700	 1392.00	 1432.15	-1777.87	  360.09
    100.2700	 1504.00	 1531.44	-1765.16	  359.83
    100.3700	 1638.00	 1627.73	-1727.45	  359.57
    100.4700	 1703.00	 1717.15	-1751.87	  359.31
    100.5700	 1862.00	 1796.10	-1671.82	  359.04
    100.6700	 1872.00	 1861.66	-1727.38	  358.78
    100.7700	 1967.00	 1911.73	-1682.45	  358.52
    100.8700	 1915.00	 1945.01	-1767.72	  358.25
    100.9700	 1998.00	 1960.67	-1700.39	  357.99
    101.0700	 1943.00	 1958.27	-1752.99	  357.72
    101.1700	 1924.00	 1937.73	-1751.45	  357.46
    101.2700	 1865.00	 1899.80	-1772.51	  357.19
    101.3700	 1911.00	 1846.28	-1673.00	  356.92
    101.4700	 1768.00	 1780.19	-1749.91	  356.66
    101.5700	 1731.00	 1705.46	-1712.18	  356.39
    101.6700	 1592.00	 1626.38	-1772.10	  356.12
    101.7700	 1575.00	 1547.11	-1709.83	  355.86
    101.8700	 1456.00	 1471.18	-1752.90	  355.59
    101.9700	 1376.00	 1401.36	-1763.08	  355.32
    102.0700	 1378.00	 1339.47	-1699.19	  355.05
    102.1700	 1301.00	 1286.49	-1723.21	  354.79
    102.2700	 1292.00	 1242.56	-1688.27	  354.52
    102.3700	 1216.00	 1207.00	-1728.72	  354.25
    102.4700	 1210.00	 1178.51	-1706.23	  353.98
    102.5700	 1176.00	 1155.23	-1716.95	  353.71
    102.6700	 1096.00	 1134.93	-1776.65	  353.44
    102.7700	 1114.00	 1115.28	-1738.99	  353.18
    102.8700	 1081.00	 1094.12	-1750.84	  352.91
    102.9700	 1038.00	 1069.85	-1769.57	  352.64
    103.0700	 1009.00	 1041.54	-1770.26	  352.37
    103.1700	 1039.00	 1009.06	-1707.78	  352.10
    103.2700	  941.00	  972.91	-1769.63	  351.83
    103.3700	  890.00	  934.02	-1781.73	  351.57
    103.4700	  926.00	  893.49	-1705.20	  351.30
    103.5700	  857.00	  852.45	-1733.17	  351.03
    103.6700	  781.00	  811.97	-1768.69	  350.76
    103.7700	  802.00	  772.98	-1708.70	  350.50
    103.8700	  744.00	  736.26	-1729.97	  350.23
    103.9700	  721.00	  702.38	-1719.10	  349.96
    104.0700	  669.00	  671.76	-1740.48	  349.70
    104.1700	  664.00	  644.63	-1718.34	  349.43
    104.2700	  620.00	  621.03	-1738.75	  349.17
    104.3700	  609.00	  600.91	-1729.63	  348.90
    104.4700	  587.00	  584.06	-1734.78	  348.64
    104.5700	  556.00	  570.22	-1751.94	  348.37
    104.6700	  576.00	  559.07	-1720.79	  348.11
    104.7700	  573.00	  550.27	-1714.99	  347.85
    104.8700	  568.00	  543.48	-1713.20	  347.58
    104.9700	  528.00	  538.41	-1748.13	  347.32
    105.0700	  556.00	  534.76	-1716.48	  347.06
    105.1700	  522.00	  532.30	-1748.02	  346.80
    105.2700	  529.00	  530.84	-1739.56	  346.54
    105.3700	  574.00	  530.23	-1693.94	  346.28
    105.4700	  529.00	  530.35	-1739.07	  346.02
    105.5700	  518.00	  531.14	-1750.86	  345.77
    105.6700	  531.00	  532.57	-1739.29	  345.51
    105.7700	  545.00	  534.62	-1727.34	  345.25
    105.8700	  558.00	  537.32	-1717.04	  345.00
    105.9700	  572.00	  540.70	-1706.42	  344.74
    106.0700	  537.00	  544.81	-1745.53	  344.49
    106.1700	  574.00	  549.70	-1713.42	  344.24
    106.2700	  565.00	  555.45	-1728.16	  343.98
    106.3700	  548.00	  562.04	-1751.76	  343.73
    106.4700	  581.00	  569.48	-1726.20	  343.48
    106.5700	  556.00	  577.69	-1759.41	  343.24
    106.6700	  592.00	  586.58	-1732.30	  342.99
    106.7700	  618.00	  595.98	-1715.70	  342.74
    106.8700	  587.00	  605.70	-1756.42	  342.50
    106.9700	  663.00	  615.46	-1690.18	  342.25
    107.0700	  618.00	  625.01	-1744.73	  342.01
    107.1700	  628.00	  634.01	-1743.73	  341.77
    107.2700	  662.00	  642.14	-1717.86	  341.53
    107.3700	  661.00	  649.09	-1725.81	  341.29
    107.4700	  646.00	  654.63	-1746.35	  341.05
    107.5700	  703.00	  658.64	-1693.36	  340.82
    107.6700	  687.00	  661.17	-1711.89	  340.58
    107.7700	  664.00	  662.39	-1736.11	  340.35
    107.8700	  662.00	  662.60	-1738.32	  340.12
    107.9700	  589.00	  662.16	-1810.88	  339.89
    108.0700	  654.00	  661.45	-1745.17	  339.66
    108.1700	  661.00	  660.82	-1737.54	  339.43
    108.2700	  635.00	  660.54	-1763.26	  339.21
    108.3700	  634.00	  660.81	-1764.53	  338.98
    108.4700	  674.00	  661.71	-1725.43	  338.76
    108.5700	  708.00	  663.24	-1692.95	  338.54
    108.6700	  698.00	  665.29	-1705.00	  338.32
    108.7700	  644.00	  667.65	-1761.37	  338.11
    108.8700	  651.00	  670.02	-1756.74	  337.89
    108.9700	  671.00	  672.06	-1738.78	  337.68
    109.0700	  684.00	  673.35	-1727.07	  337.47
    109.1700	  672.00	  673.51	-1739.23	  337.26
    109.2700	  741.00	  672.20	-1668.92	  337.05
    109.3700	  675.00	  669.20	-1731.92	  336.85
    109.4700	  710.00	  664.43	-1692.15	  336.65
    109.5700	  663.00	  657.97	-1732.69	  336.44
    109.6700	  635.00	  650.02	-1752.74	  336.25
    109.7700	  648.00	  640.87	-1730.59	  336.05
    109.8700	  659.00	  630.85	-1709.57	  335.86
    109.9700	  620.00	  620.31	-1738.03	  335.66
    110.0700	  592.00	  609.56	-1755.28	  335.48
    110.1700	  597.00	  598.92	-1739.64	  335.29
    110.2700	  619.00	  588.65	-1707.37	  335.10
    110.3700	  572.00	  578.95	-1744.67	  334.92
    110.4700	  569.00	  570.00	-1738.72	  334.74
    110.5700	  599.00	  561.94	-1700.65	  334.57
    110.6700	  551.00	  554.83	-1741.54	  334.39
    110.7700	  543.00	  548.72	-1743.44	  334.22
    110.8700	  543.00	  543.63	-1738.35	  334.05
    110.9700	  537.00	  539.53	-1740.24	  333.88
    111.0700	  497.00	  536.36	-1777.08	  333.72
    111.1700	  548.00	  534.07	-1723.79	  333.56
    111.2700	  560.00	  532.58	-1710.30	  333.40
    111.3700	  525.00	  531.80	-1744.52	  333.25
    111.4700	  562.00	  531.65	-1707.37	  333.09
    111.5700	  515.00	  532.04	-1754.76	  332.94
    111.6700	  517.00	  532.91	-1753.62	  332.80
    111.7700	  553.00	  534.17	-1718.89	  332.66
    111.8700	  595.00	  535.77	-1678.49	  332.51
    111.9700	  560.00	  537.66	-1715.38	  332.38
    112.0700	  571.00	  539.80	-1706.52	  332.24
    112.1700	  610.00	  542.16	-1669.88	  332.11
    112.2700	  559.00	  544.73	-1723.45	  331.99
    112.3700	  493.00	  547.50	-1792.22	  331.86
    112.4700	  569.00	  550.49	-1719.21	  331.74
    112.5700	  517.00	  553.73	-1774.44	  331.62
    112.6700	  500.00	  557.23	-1794.95	  331.51
    112.7700	  603.00	  561.06	-1695.78	  331.40
    112.8700	  552.00	  565.28	-1751.00	  331.29
    112.9700	  555.00	  569.96	-1752.68	  331.19
    113.0700	  585.00	  575.20	-1727.92	  331.09
    113.1700	  556.00	  581.12	-1762.84	  330.99
    113.2700	  571.00	  587.89	-1754.61	  330.90
    113.3700	  615.00	  595.70	-1718.42	  330.81
    113.4700	  580.00	  604.81	-1762.53	  330.73
    113.5700	  584.00	  615.55	-1769.27	  330.65
    113.6700	  647.00	  628.33	-1719.05	  330.57
    113.7700	  638.00	  643.67	-1743.39	  330.50
    113.8700	  704.00	  662.21	-1695.93	  330.43
    113.9700	  733.00	  684.74	-1689.46	  330.37
    114.0700	  715.00	  712.21	-1734.93	  330.31
    114.1700	  751.00	  745.75	-1732.47	  330.25
    114.2700	  818.00	  786.70	-1706.42	  330.20
    114.3700	  846.00	  836.59	-1728.30	  330.15
    114.4700	  895.00	  897.15	-1739.87	  330.11
    114.5700	  983.00	  970.31	-1725.02	  330.07
    114.6700	 1146.00	 1058.12	-1649.83	  330.03
    114.7700	 1187.00	 1162.76	-1713.48	  330.00
    114.8700	 1342.00	 1286.49	-1682.21	  329.98
    114.9700	 1489.00	 1431.45	-1680.17	  329.96
    115.0700	 1644.00	 1599.67	-1693.39	  329.94
    115.1700	 1924.00	 1792.84	-1606.56	  329.93
    115.2700	 2112.00	 2012.30	-1638.02	  329.92
    115.3700	 2418.00	 2258.90	-1578.61	  329.92
    115.4700	 2591.00	 2532.65	-1679.37	  329.92
    115.5700	 2897.00	 2832.79	-1673.51	  329.93
    115.6700	 3192.00	 3157.56	-1703.28	  329.95
    115.7700	 3480.00	 3504.24	-1761.96	  329.96
    115.8700	 3834.00	 3869.01	-1772.72	  329.99
    115.9700	 4125.00	 4246.78	-1859.50	  330.01
    116.0700	 4627.00	 4631.36	-1742.08	  330.05
    116.1700	 5058.00	 5015.37	-1695.09	  330.09
    116.2700	 5303.00	 5390.48	-1825.20	  330.13
    116.3700	 5698.00	 5747.41	-1787.13	  330.18
    116.4700	 6147.00	 6076.04	-1666.76	  330.23
    116.5700	 6225.00	 6365.96	-1878.68	  330.29
    116.6700	 6488.00	 6606.83	-1856.55	  330.36
    116.7700	 6591.00	 6789.30	-1936.01	  330.43
    116.8700	 6803.00	 6905.69	-1840.41	  330.51
    116.9700	 6789.00	 6950.87	-1899.59	  330.59
    117.0700	 6933.00	 6922.98	-1727.70	  330.68
    117.1700	 6750.00	 6823.64	-1811.36	  330.77
    117.2700	 6700.00	 6657.73	-1695.45	  330.87
    117.3700	 6355.00	 6432.70	-1815.41	  330.98
    117.4700	 6059.00	 6157.83	-1836.55	  331.09
    117.5700	 5869.00	 5843.30	-1712.02	  331.21
    117.6700	 5400.00	 5499.51	-1837.23	  331.33
    117.7700	 5157.00	 5136.38	-1717.10	  331.46
    117.8700	 4724.00	 4763.09	-1776.81	  331.60
    117.9700	 4529.00	 4388.01	-1596.73	  331.74
    118.0700	 4182.00	 4018.39	-1574.11	  331.89
    118.1700	 3884.00	 3660.35	-1514.07	  332.05
    118.2700	 3419.00	 3318.77	-1637.49	  332.21
    118.3700	 3112.00	 2997.38	-1623.10	  332.38
    118.4700	 2797.00	 2698.94	-1639.66	  332.55
    118.5700	 2374.00	 2425.15	-1788.87	  332.73
    118.6700	 2188.00	 2176.85	-1726.57	  332.92
    118.7700	 1885.00	 1954.02	-1806.74	  333.12
    118.8700	 1807.00	 1756.02	-1686.74	  333.32
    118.9700	 1607.00	 1581.77	-1712.49	  333.53
    119.0700	 1439.00	 1429.76	-1728.48	  333.75
    119.1700	 1298.00	 1298.21	-1737.93	  333.97
    119.2700	 1155.00	 1185.17	-1767.89	  334.20
    119.3700	 1022.00	 1088.63	-1804.35	  334.44
    119.4700	 1013.00	 1006.63	-1731.35	  334.68
    119.5700	  907.00	  937.26	-1767.98	  334.93
    119.6700	  869.00	  878.78	-1747.50	  335.19
    119.7700	  801.00	  829.57	-1766.29	  335.46
    119.8700	  778.00	  788.19	-1747.91	  335.74
    119.9700	  735.00	  753.41	-1756.13	  336.02
    120.0700	  680.00	  724.16	-1781.88	  336.31
    120.1700	  613.00	  699.52	-1824.24	  336.60
    120.2700	  689.00	  678.75	-1727.47	  336.91
    120.3700	  654.00	  661.20	-1744.92	  337.22
    120.4700	  620.00	  646.37	-1764.08	  337.54
    120.5700	  616.00	  633.83	-1755.55	  337.87
    120.6700	  607.00	  623.25	-1753.96	  338.21
    120.7700	  588.00	  614.35	-1764.06	  338.55
    120.8700	  585.00	  606.90	-1759.62	  338.91
    120.9700	  539.00	  600.75	-1799.46	  339.27
    121.0700	  577.00	  595.73	-1756.44	  339.64
    121.1700	  568.00	  591.73	-1761.45	  340.02
    121.2700	  607.00	  588.66	-1719.38	  340.40
    121.3700	  550.00	  586.44	-1774.15	  340.80
    121.4700	  567.00	  584.99	-1755.71	  341.20
    121.5700	  577.00	  584.26	-1744.98	  341.61
    121.6700	  533.00	  584.19	-1788.91	  342.04
    121.7700	  567.00	  584.72	-1755.44	  342.47
    121.8700	  554.00	  585.81	-1769.53	  342.90
    121.9700	  564.00	  587.38	-1761.10	  343.35
    122.0700	  631.00	  589.38	-1696.10	  343.81
    122.1700	  564.00	  591.75	-1765.47	  344.28
    122.2700	  577.00	  594.40	-1755.12	  344.75
    122.3700	  622.00	  597.27	-1712.99	  345.24
    122.4700	  637.00	  600.26	-1700.98	  345.73
    122.5700	  595.00	  603.29	-1746.01	  346.23
    122.6700	  595.00	  606.27	-1748.99	  346.75
    122.7700	  643.00	  609.09	-1703.81	  347.27
    122.8700	  605.00	  611.67	-1744.39	  347.80
    122.9700	  649.00	  613.91	-1702.63	  348.34
    123.0700	  585.00	  615.74	-1768.46	  348.89
    123.1700	  678.00	  617.08	-1676.80	  349.45
    123.2700	  665.00	  617.91	-1690.62	  350.02
    123.3700	  634.00	  618.18	-1721.90	  350.61
    123.4700	  624.00	  617.92	-1731.63	  351.20
    123.5700	  627.00	  617.11	-1727.83	  351.80
    123.6700	  642.00	  615.84	-1711.56	  352.41
    123.7700	  619.00	  614.15	-1732.86	  353.03
    123.8700	  623.00	  612.08	-1726.80	  353.66
    123.9700	  642.00	  609.71	-1705.43	  354.31
    124.0700	  644.00	  607.09	-1700.81	  354.96
    124.1700	  590.00	  604.31	-1752.02	  355.63
    124.2700	  573.00	  601.40	-1766.12	  356.30
    124.3700	  646.00	  598.44	-1690.15	  356.99
    124.4700	  612.00	  595.47	-1721.19	  357.68
    124.5700	  581.00	  592.54	-1749.26	  358.39
    124.6700	  617.00	  589.71	-1710.42	  359.11
    124.7700	  563.00	  586.99	-1761.71	  359.84
    124.8700	  554.00	  584.40	-1768.12	  360.58
    124.9700	  561.00	  471.30	-1648.02	  361.33
    125.0700	  621.00	  472.07	-1737.72	  362.09
    125.1700	  560.00	  472.84	-1737.72	  362.87
    125.2700	  545.00	  473.63	-1737.72	  363.66
    125.3700	  588.00	  474.43	-1737.72	  364.45
    125.4700	  608.00	  475.24	-1737.72	  365.26
    125.5700	  535.00	  476.06	-1737.72	  366.08
    125.6700	  585.00	  476.89	-1737.72	  366.92
    125.7700	  511.00	  477.74	-1737.72	  367.76
    125.8700	  569.00	  478.59	-1737.72	  368.62
    125.9700	  569.00	  479.46	-1737.72	  369.49
    126.0700	  592.00	  480.35	-1737.72	  370.37
    126.1700	  550.00	  481.24	-1737.72	  371.27
    126.2700	  496.00	  482.15	-1737.72	  372.17
    126.3700	  595.00	  483.07	-1737.72	  373.09
    126.4700	  504.00	  484.00	-1737.72	  374.02
    126.5700	  553.00	  484.94	-1737.72	  374.97
    126.6700	  590.00	  485.90	-1737.72	  375.92
    126.7700	  545.00	  486.87	-1737.72	  376.89
    126.8700	  564.00	  487.85	-1737.72	  377.88
    126.9700	  599.00	  488.85	-1737.72	  378.87
    127.0700	  549.00	  489.85	-1737.72	  379.88
    127.1700	  602.00	  490.88	-1737.72	  380.90
    127.2700	  593.00	  491.91	-1737.72	  381.94
    127.3700	  573.00	  492.96	-1737.72	  382.98
    127.4700	  616.00	  494.02	-1737.72	  384.05
    127.5700	  622.00	  495.10	-1737.72	  385.12
    127.6700	  644.00	  496.18	-1737.72	  386.21
    127.7700	  628.00	  497.29	-1737.72	  387.31
    127.8700	  660.00	  498.40	-1737.72	  388.43
    127.9700	  675.00	  499.53	-1737.72	  389.56
    128.0700	  719.00	  500.68	-1737.72	  390.70
    128.1700	  695.00	  501.84	-1737.72	  391.86
    128.2700	  649.00	  503.01	-1737.72	  393.04
    128.3700	  740.00	  504.20	-1737.72	  394.22
    128.4700	  716.00	  505.40	-1737.72	  395.42
    128.5700	    0.00	  506.61	-1737.72	  396.64
    128.6700	    0.00	  507.84	-1737.72	  397.87
     12.3347	        	        	        	        	       0	(  0  0  2)	  0  1
     24.9422	        	        	        	        	       0	(  0  0  4)	  0  1
     28.3856	        	        	        	        	       0	(  1  0  0)	  0  1
     29.0843	        	        	        	        	       0	(  1  0  1)	  0  1
     31.0949	        	        	        	        	       0	(  1  0  2)	  0  1
     34.2099	        	        	        	        	       0	(  1  0  3)	  0  1
     37.8674	        	        	        	        	       0	(  0  0  6)	  0  1
     38.1956	        	        	        	        	       0	(  1  0  4)	  0  1
     42.8559	        	        	        	        	       0	(  1  0  5)	  0  1
     48.0516	        	        	        	        	       0	(  1  0  6)	  0  1
     50.3647	        	        	        	        	       0	(  1  1  0)	  0  1
     51.3183	        	        	        	        	       0	(  0  0  8)	  0  1
     52.0919	        	        	        	        	       0	(  1  1  2)	  0  1
     53.6952	        	        	        	        	       0	(  1  0  7)	  0  1
     57.0521	        	        	        	        	       0	(  1  1  4)	  0  1
     58.8800	        	        	        	        	       0	(  2  0  0)	  0  1
     59.2726	        	        	        	        	       0	(  2  0  1)	  0  1
     59.7402	        	        	        	        	       0	(  1  0  8)	  0  1
     60.4410	        	        	        	        	       0	(  2  0  2)	  0  1
     62.3593	        	        	        	        	       0	(  2  0  3)	  0  1
     64.7667	        	        	        	        	       0	(  1  1  6)	  0  1
     64.9904	        	        	        	        	       0	(  2  0  4)	  0  1
     65.5820	        	        	        	        	       0	(  0  0 10)	  0  1
     66.1730	        	        	        	        	       0	(  1  0  9)	  0  1
     68.2937	        	        	        	        	       0	(  2  0  5)	  0  1
     72.2324	        	        	        	        	       0	(  2  0  6)	  0  1
     73.0080	        	        	        	        	       0	(  1  0 10)	  0  1
     74.8327	        	        	        	        	       0	(  1  1  8)	  0  1
     76.7800	        	        	        	        	       0	(  2  0  7)	  0  1
     80.2875	        	        	        	        	       0	(  1  0 11)	  0  1
     81.1069	        	        	        	        	       0	(  0  0 12)	  0  1
     81.1780	        	        	        	        	       0	(  2  1  0)	  0  1
     81.5190	        	        	        	        	       0	(  2  1  1)	  0  1
     81.9266	        	        	        	        	       0	(  2  0  8)	  0  1
     82.5402	        	        	        	        	       0	(  2  1  2)	  0  1
     84.2372	        	        	        	        	       0	(  2  1  3)	  0  1
     86.6051	        	        	        	        	       0	(  2  1  4)	  0  1
     87.1438	        	        	        	        	       0	(  1  1 10)	  0  1
     87.6842	        	        	        	        	       0	(  2  0  9)	  0  1
     88.0879	        	        	        	        	       0	(  1  0 12)	  0  1
     89.6418	        	        	        	        	       0	(  2  1  5)	  0  1
     93.3533	        	        	        	        	       0	(  2  1  6)	  0  1
     94.0957	        	        	        	        	       0	(  2  0 10)	  0  1
     95.1128	        	        	        	        	       0	(  3  0  0)	  0  1
     95.4515	        	        	        	        	       0	(  3  0  1)	  0  1
     96.4689	        	        	        	        	       0	(  3  0  2)	  0  1
     96.5336	        	        	        	        	       0	(  1  0 13)	  0  1
     97.7599	        	        	        	        	       0	(  2  1  7)	  0  1
     98.1694	        	        	        	        	       0	(  3  0  3)	  0  1
     98.7114	        	        	        	        	       0	(  0  0 14)	  0  1
    100.5628	        	        	        	        	       0	(  3  0  4)	  0  1
    101.2479	        	        	        	        	       0	(  2  0 11)	  0  1
    102.0742	        	        	        	        	       0	(  1  1 12)	  0  1
    102.9052	        	        	        	        	       0	(  2  1  8)	  0  1
    103.6687	        	        	        	        	       0	(  3  0  5)	  0  1
    105.8287	        	        	        	        	       0	(  1  0 14)	  0  1
    107.5230	        	        	        	        	       0	(  3  0  6)	  0  1
    108.8720	        	        	        	        	       0	(  2  1  9)	  0  1
    109.2992	        	        	        	        	       0	(  2  0 12)	  0  1
    112.1888	        	        	        	        	       0	(  3  0  7)	  0  1
    115.8094	        	        	        	        	       0	(  2  1 10)	  0  1
    116.3328	        	        	        	        	       0	(  1  0 15)	  0  1
    116.9421	        	        	        	        	       0	(  2  2  0)	  0  1
    117.7769	        	        	        	        	       0	(  3  0  8)	  0  1
    118.4673	        	        	        	        	       0	(  2  2  2)	  0  1
    118.5405	        	        	        	        	       0	(  2  0 13)	  0  1
    120.3219	        	        	        	        	       0	(  0  0 16)	  0  1
    121.0300	        	        	        	        	       0	(  1  1 14)	  0  1
    123.1871	        	        	        	        	       0	(  2  2  4)	  0  1
    123.9955	        	        	        	        	       0	(  2  1 11)	  0  1
    124.4867	        	        	        	        	       0	(  3  0  9)	  0  1
    125.0642	        	        	        	        	       0	(  3  1  0)	  0  1
    125.4779	        	        	        	        	       0	(  3  1  1)	  0  1
    126.7320	        	        	        	        	       0	(  3  1  2)	  0  1
    128.7767	        	        	        	        	       0	(  1  0 16)	  0  1
    128.8696	        	        	        	        	       0	(  3  1  3)	  0  1
    129.5625	        	        	        	        	       0	(  2  0 14)	  0  1
    131.7037	        	        	        	        	       0	(  2  2  6)	  0  1
    131.9764	        	        	        	        	       0	(  3  1  4)	  0  1
    132.7056	        	        	        	        	       0	(  3  0 10)	  0  1
    134.0057	        	        	        	        	       0	(  2  1 12)	  0  1
    136.2119	        	        	        	        	       0	(  3  1  5)	  0  1
    141.8879	        	        	        	        	       0	(  3  1  6)	  0  1
    143.3332	        	        	        	        	       0	(  3  0 11)	  0  1
    143.9000	        	        	        	        	       0	(  2  0 15)	  0  1
    145.1806	        	        	        	        	       0	(  1  0 17)	  0  1
    146.1480	        	        	        	        	       0	(  2  2  8)	  0  1
    147.3789	        	        	        	        	       0	(  2  1 13)	  0  1
    149.7185	        	        	        	        	       0	(  3  1  7)	  0  1
    150.3885	        	        	        	        	       0	(  1  1 16)	  0  1
    154.9605	        	        	        	        	       0	(  0  0 18)	  0  1
    159.7225	        	        	        	        	       0	(  3  0 12)	  0  1
    159.9274	        	        	        	        	       0	(  4  0  0)	  0  1
    160.9404	        	        	        	        	       0	(  4  0  1)	  0  1
    162.2258	        	        	        	        	       0	(  3  1  8)	  0  1
    164.3565	        	        	        	        	       0	(  4  0  2)	  0  1
    172.4896	        	        	        	        	       0	(  2  0 16)	  0  1
    173.0747	        	        	        	        	       0	(  4  0  3)	  0  1
