MSG Master    CELL:    5.91916   5.91916  23.27280   90.0000   90.0000  120.0000   SPGR: P 63/m m c             TEMP:   1074.95
  1   1280     2.52000     0.00000    -0.12732     0.00000     0.00000    0
    99     0     2
       0.00000      10.00000
     125.00000     130.00000
 2Theta	Yobs	Ycal	Yobs-Ycal	Backg	Posr	(hkl)	K
      0.7700	    0.00	  552.57	-1753.50	  433.89
      0.8700	    0.00	  553.24	-1753.50	  434.56
      0.9700	   36.00	  553.90	-1753.50	  435.22
      1.0700	   39.00	  554.55	-1753.50	  435.87
      1.1700	   45.00	  555.20	-1753.50	  436.52
      1.2700	   41.00	  555.83	-1753.50	  437.15
      1.3700	   43.00	  556.45	-1753.50	  437.77
      1.4700	  119.00	  557.06	-1753.50	  438.38
      1.5700	  283.00	  557.66	-1753.50	  438.98
      1.6700	  473.00	  558.25	-1753.50	  439.57
      1.7700	  559.00	  558.83	-1753.50	  440.15
      1.8700	  686.00	  559.40	-1753.50	  440.72
      1.9700	  739.00	  559.97	-1753.50	  441.29
      2.0700	  773.00	  560.52	-1753.50	  441.84
      2.1700	  787.00	  561.06	-1753.50	  442.38
      2.2700	  783.00	  561.59	-1753.50	  442.91
      2.3700	  716.00	  562.11	-1753.50	  443.44
      2.4700	  692.00	  562.63	-1753.50	  443.95
      2.5700	  721.00	  563.13	-1753.50	  444.45
      2.6700	  661.00	  563.63	-1753.50	  444.95
      2.7700	  653.00	  564.11	-1753.50	  445.43
      2.8700	  675.00	  564.59	-1753.50	  445.91
      2.9700	  614.00	  565.06	-1753.50	  446.38
      3.0700	  640.00	  565.51	-1753.50	  446.83
      3.1700	  587.00	  565.96	-1753.50	  447.28
      3.2700	  642.00	  566.40	-1753.50	  447.72
      3.3700	  657.00	  566.83	-1753.50	  448.16
      3.4700	  778.00	  567.26	-1753.50	  448.58
      3.5700	  805.00	  567.67	-1753.50	  448.99
      3.6700	  826.00	  568.08	-1753.50	  449.40
      3.7700	  897.00	  568.47	-1753.50	  449.79
      3.8700	  922.00	  568.86	-1753.50	  450.18
      3.9700	 1004.00	  569.24	-1753.50	  450.56
      4.0700	  990.00	  569.61	-1753.50	  450.93
      4.1700	 1114.00	  569.97	-1753.50	  451.29
      4.2700	 1089.00	  570.33	-1753.50	  451.65
      4.3700	 1068.00	  570.67	-1753.50	  452.00
      4.4700	 1069.00	  571.01	-1753.50	  452.33
      4.5700	 1033.00	  571.34	-1753.50	  452.66
      4.6700	 1014.00	  571.67	-1753.50	  452.99
      4.7700	 1025.00	  571.98	-1753.50	  453.30
      4.8700	 1002.00	  572.29	-1753.50	  453.61
      4.9700	  978.00	  572.58	-1753.50	  453.90
      5.0700	  949.00	  572.87	-1753.50	  454.19
      5.1700	  896.00	  573.16	-1753.50	  454.48
      5.2700	  865.00	  573.43	-1753.50	  454.75
      5.3700	  893.00	  573.70	-1753.50	  455.02
      5.4700	  836.00	  573.96	-1753.50	  455.28
      5.5700	  853.00	  574.21	-1753.50	  455.53
      5.6700	  876.00	  574.46	-1753.50	  455.78
      5.7700	  880.00	  574.69	-1753.50	  456.01
      5.8700	  852.00	  574.92	-1753.50	  456.25
      5.9700	  831.00	  575.15	-1753.50	  456.47
      6.0700	  836.00	  575.36	-1753.50	  456.68
      6.1700	  772.00	  575.57	-1753.50	  456.89
      6.2700	  763.00	  575.77	-1753.50	  457.09
      6.3700	  775.00	  575.97	-1753.50	  457.29
      6.4700	  803.00	  576.16	-1753.50	  457.48
      6.5700	  721.00	  576.34	-1753.50	  457.66
      6.6700	  784.00	  576.51	-1753.50	  457.83
      6.7700	  731.00	  576.68	-1753.50	  458.00
      6.8700	  727.00	  576.84	-1753.50	  458.16
      6.9700	  741.00	  576.99	-1753.50	  458.31
      7.0700	  679.00	  577.14	-1753.50	  458.46
      7.1700	  716.00	  577.28	-1753.50	  458.60
      7.2700	  673.00	  577.41	-1753.50	  458.73
      7.3700	  681.00	  577.54	-1753.50	  458.86
      7.4700	  701.00	  577.66	-1753.50	  458.98
      7.5700	  636.00	  577.78	-1753.50	  459.10
      7.6700	  668.00	  577.89	-1753.50	  459.21
      7.7700	  647.00	  577.99	-1753.50	  459.31
      7.8700	  642.00	  578.08	-1753.50	  459.41
      7.9700	  642.00	  578.17	-1753.50	  459.50
      8.0700	  676.00	  578.26	-1753.50	  459.58
      8.1700	  648.00	  578.34	-1753.50	  459.66
      8.2700	  652.00	  578.41	-1753.50	  459.73
      8.3700	  651.00	  578.47	-1753.50	  459.80
      8.4700	  630.00	  578.54	-1753.50	  459.86
      8.5700	  644.00	  578.59	-1753.50	  459.91
      8.6700	  645.00	  578.64	-1753.50	  459.96
      8.7700	  620.00	  578.68	-1753.50	  460.00
      8.8700	  586.00	  578.72	-1753.50	  460.04
      8.9700	  629.00	  578.75	-1753.50	  460.07
      9.0700	  580.00	  578.78	-1753.50	  460.10
      9.1700	  605.00	  578.80	-1753.50	  460.12
      9.2700	  601.00	  578.81	-1753.50	  460.13
      9.3700	  634.00	  578.82	-1753.50	  460.14
      9.4700	  594.00	  578.83	-1753.50	  460.15
      9.5700	  618.00	  578.83	-1753.50	  460.15
      9.6700	  580.00	  578.82	-1753.50	  460.14
      9.7700	  592.00	  578.81	-1753.50	  460.13
      9.8700	  621.00	  578.79	-1753.50	  460.11
      9.9700	  601.00	  578.77	-1753.50	  460.09
     10.0700	  580.00	  579.54	-1753.04	  460.07
     10.1700	  566.00	  579.59	-1767.09	  460.04
     10.2700	  645.00	  579.66	-1688.16	  460.00
     10.3700	  558.00	  579.76	-1775.26	  459.96
     10.4700	  581.00	  579.91	-1752.41	  459.91
     10.5700	  576.00	  580.17	-1757.67	  459.86
     10.6700	  593.00	  580.65	-1741.15	  459.81
     10.7700	  621.00	  581.45	-1713.95	  459.75
     10.8700	  582.00	  582.65	-1754.15	  459.68
     10.9700	  547.00	  584.24	-1790.74	  459.61
     11.0700	  596.00	  586.18	-1743.68	  459.54
     11.1700	  576.00	  588.47	-1765.97	  459.46
     11.2700	  617.00	  591.14	-1727.64	  459.38
     11.3700	  576.00	  594.27	-1771.77	  459.29
     11.4700	  627.00	  598.01	-1724.51	  459.20
     11.5700	  591.00	  602.55	-1765.05	  459.10
     11.6700	  630.00	  608.26	-1731.76	  459.00
     11.7700	  639.00	  615.76	-1730.26	  458.90
     11.8700	  668.00	  626.03	-1711.53	  458.79
     11.9700	  668.00	  639.77	-1725.27	  458.67
     12.0700	  711.00	  655.36	-1697.86	  458.56
     12.1700	  681.00	  666.35	-1738.85	  458.44
     12.2700	  700.00	  662.57	-1716.07	  458.31
     12.3700	  619.00	  641.18	-1775.68	  458.18
     12.4700	  646.00	  615.40	-1722.90	  458.05
     12.5700	  637.00	  596.77	-1713.27	  457.91
     12.6700	  609.00	  586.79	-1731.29	  457.77
     12.7700	  546.00	  582.32	-1789.82	  457.63
     12.8700	  587.00	  580.30	-1746.80	  457.48
     12.9700	  590.00	  579.18	-1742.68	  457.33
     13.0700	  530.00	  578.41	-1801.91	  457.17
     13.1700	  564.00	  577.81	-1767.31	  457.02
     13.2700	  530.00	  577.32	-1800.82	  456.85
     13.3700	  566.00	  576.90	-1764.40	  456.69
     13.4700	  573.00	  576.53	-1757.03	  456.52
     13.5700	  575.00	  576.20	-1754.70	  456.34
     13.6700	  564.00	  575.89	-1765.39	  456.17
     13.7700	  538.00	  575.61	-1791.11	  455.99
     13.8700	  570.00	  575.34	-1758.84	  455.81
     13.9700	  574.00	  575.08	-1754.58	  455.62
     14.0700	  555.00	  574.83	-1773.33	  455.43
     14.1700	  546.00	  574.58	-1782.08	  455.24
     14.2700	  543.00	  574.34	-1784.84	  455.04
     14.3700	  610.00	  574.10	-1717.60	  454.84
     14.4700	  589.00	  573.86	-1738.36	  454.64
     14.5700	  558.00	  573.63	-1769.13	  454.44
     14.6700	  544.00	  573.39	-1782.89	  454.23
     14.7700	  621.00	  573.15	-1705.65	  454.02
     14.8700	  600.00	  572.92	-1726.42	  453.80
     14.9700	  559.00	  572.68	-1767.18	  453.59
     15.0700	  550.00	  572.45	-1775.95	  453.37
     15.1700	  567.00	  572.21	-1758.71	  453.15
     15.2700	  557.00	  571.97	-1768.47	  452.92
     15.3700	  542.00	  571.73	-1783.23	  452.69
     15.4700	  546.00	  571.49	-1778.99	  452.46
     15.5700	  574.00	  571.24	-1750.74	  452.23
     15.6700	  533.00	  571.00	-1791.50	  451.99
     15.7700	  558.00	  570.75	-1766.25	  451.76
     15.8700	  526.00	  570.50	-1798.00	  451.52
     15.9700	  564.00	  570.25	-1759.75	  451.27
     16.0700	  581.00	  570.00	-1742.50	  451.03
     16.1700	  568.00	  569.74	-1755.24	  450.78
     16.2700	  579.00	  569.51	-1744.01	  450.53
     16.3700	  561.00	  569.26	-1761.76	  450.28
     16.4700	  530.00	  569.00	-1792.50	  450.02
     16.5700	  567.00	  568.73	-1755.23	  449.76
     16.6700	  566.00	  568.47	-1755.97	  449.50
     16.7700	  567.00	  568.21	-1754.71	  449.24
     16.8700	  539.00	  567.94	-1782.44	  448.98
     16.9700	  554.00	  567.67	-1767.17	  448.71
     17.0700	  596.00	  567.40	-1724.90	  448.45
     17.1700	  567.00	  567.13	-1753.63	  448.18
     17.2700	  568.00	  566.85	-1752.35	  447.90
     17.3700	  545.00	  566.58	-1775.08	  447.63
     17.4700	  573.00	  566.30	-1746.80	  447.35
     17.5700	  531.00	  566.02	-1788.52	  447.08
     17.6700	  551.00	  565.74	-1768.24	  446.80
     17.7700	  545.00	  565.46	-1773.96	  446.51
     17.8700	  567.00	  565.17	-1751.67	  446.23
     17.9700	  591.00	  564.99	-1727.49	  445.95
     18.0700	  574.00	  564.70	-1744.20	  445.66
     18.1700	  520.00	  564.41	-1797.91	  445.37
     18.2700	  560.00	  564.13	-1757.63	  445.08
     18.3700	  544.00	  563.84	-1773.34	  444.79
     18.4700	  570.00	  563.54	-1747.04	  444.49
     18.5700	  565.00	  563.25	-1751.75	  444.20
     18.6700	  572.00	  562.96	-1744.46	  443.90
     18.7700	  576.00	  562.66	-1740.16	  443.60
     18.8700	  570.00	  562.37	-1745.87	  443.31
     18.9700	  562.00	  562.16	-1753.66	  443.00
     19.0700	  547.00	  561.86	-1768.36	  442.70
     19.1700	  561.00	  561.56	-1754.06	  442.40
     19.2700	  553.00	  561.26	-1761.76	  442.09
     19.3700	  566.00	  560.96	-1748.46	  441.79
     19.4700	  541.00	  560.66	-1773.16	  441.48
     19.5700	  545.00	  560.36	-1768.86	  441.17
     19.6700	  551.00	  560.06	-1762.56	  440.86
     19.7700	  578.00	  559.76	-1735.26	  440.55
     19.8700	  538.00	  559.45	-1774.95	  440.23
     19.9700	  551.00	  559.15	-1761.65	  439.92
     20.0700	  582.00	  558.84	-1730.34	  439.61
     20.1700	  558.00	  558.53	-1754.03	  439.29
     20.2700	  534.00	  558.23	-1777.73	  438.97
     20.3700	  574.00	  557.92	-1737.42	  438.65
     20.4700	  573.00	  557.61	-1738.11	  438.34
     20.5700	  556.00	  557.27	-1754.77	  438.02
     20.6700	  570.00	  556.97	-1740.47	  437.69
     20.7700	  542.00	  556.66	-1768.16	  437.37
     20.8700	  570.00	  556.35	-1739.85	  437.05
     20.9700	  548.00	  556.08	-1761.58	  436.73
     21.0700	  573.00	  555.77	-1736.27	  436.40
     21.1700	  532.00	  555.47	-1776.97	  436.08
     21.2700	  573.00	  555.16	-1735.66	  435.75
     21.3700	  564.00	  554.86	-1744.36	  435.42
     21.4700	  547.00	  554.55	-1761.05	  435.10
     21.5700	  541.00	  554.25	-1766.75	  434.77
     21.6700	  555.00	  553.94	-1752.44	  434.44
     21.7700	  545.00	  553.64	-1762.14	  434.11
     21.8700	  550.00	  553.34	-1756.84	  433.78
     21.9700	  572.00	  553.04	-1734.54	  433.45
     22.0700	  526.00	  552.75	-1780.25	  433.12
     22.1700	  533.00	  552.45	-1772.95	  432.79
     22.2700	  573.00	  552.16	-1732.66	  432.45
     22.3700	  546.00	  551.87	-1759.37	  432.12
     22.4700	  546.00	  551.59	-1759.09	  431.79
     22.5700	  532.00	  551.31	-1772.81	  431.45
     22.6700	  511.00	  551.04	-1793.54	  431.12
     22.7700	  559.00	  550.77	-1745.27	  430.79
     22.8700	  531.00	  550.51	-1773.01	  430.45
     22.9700	  542.00	  550.26	-1761.76	  430.12
     23.0700	  631.00	  550.03	-1672.53	  429.78
     23.1700	  530.00	  549.81	-1773.31	  429.45
     23.2700	  600.00	  549.61	-1703.11	  429.11
     23.3700	  543.00	  549.44	-1759.94	  428.77
     23.4700	  560.00	  549.30	-1742.80	  428.44
     23.5700	  549.00	  549.21	-1753.71	  428.10
     23.6700	  564.00	  549.19	-1738.69	  427.76
     23.7700	  553.00	  549.41	-1749.91	  427.43
     23.8700	  553.00	  549.71	-1750.21	  427.09
     23.9700	  555.00	  550.47	-1748.97	  426.75
     24.0700	  562.00	  552.11	-1743.61	  426.42
     24.1700	  577.00	  555.31	-1731.81	  426.08
     24.2700	  590.00	  560.96	-1724.46	  425.74
     24.3700	  586.00	  570.02	-1737.52	  425.41
     24.4700	  593.00	  583.59	-1744.09	  425.07
     24.5700	  576.00	  601.93	-1779.43	  424.73
     24.6700	  607.00	  622.16	-1768.66	  424.39
     24.7700	  622.00	  636.04	-1767.54	  424.06
     24.8700	  643.00	  632.62	-1743.12	  423.72
     24.9700	  651.00	  610.77	-1713.27	  423.38
     25.0700	  575.00	  584.58	-1763.08	  423.05
     25.1700	  612.00	  565.17	-1706.67	  422.71
     25.2700	  611.00	  554.34	-1696.84	  422.37
     25.3700	  594.00	  549.31	-1708.81	  422.04
     25.4700	  568.00	  547.04	-1732.54	  421.70
     25.5700	  548.00	  545.83	-1751.33	  421.37
     25.6700	  562.00	  545.04	-1736.54	  421.03
     25.7700	  563.00	  544.46	-1734.96	  420.70
     25.8700	  542.00	  544.02	-1755.52	  420.36
     25.9700	  545.00	  543.68	-1752.18	  420.03
     26.0700	  558.00	  543.43	-1738.93	  419.70
     26.1700	  611.00	  543.26	-1685.76	  419.36
     26.2700	  542.00	  543.17	-1754.67	  419.03
     26.3700	  534.00	  543.15	-1762.65	  418.70
     26.4700	  563.00	  543.22	-1733.72	  418.36
     26.5700	  586.00	  543.38	-1710.88	  418.03
     26.6700	  590.00	  543.66	-1707.16	  417.70
     26.7700	  555.00	  544.08	-1742.58	  417.37
     26.8700	  533.00	  544.67	-1765.17	  417.04
     26.9700	  566.00	  545.48	-1732.98	  416.71
     27.0700	  533.00	  546.59	-1767.09	  416.38
     27.1700	  552.00	  548.15	-1749.65	  416.05
     27.2700	  564.00	  550.39	-1739.89	  415.72
     27.3700	  593.00	  553.82	-1714.32	  415.40
     27.4700	  579.00	  559.42	-1733.92	  415.07
     27.5700	  564.00	  568.95	-1758.45	  414.74
     27.6700	  581.00	  585.17	-1757.67	  414.42
     27.7700	  551.00	  611.66	-1814.16	  414.09
     27.8700	  588.00	  651.46	-1816.96	  413.77
     27.9700	  665.00	  704.69	-1793.19	  413.44
     28.0700	  780.00	  765.19	-1738.69	  413.12
     28.1700	  917.00	  817.81	-1654.31	  412.80
     28.2700	  960.00	  839.93	-1633.43	  412.48
     28.3700	  916.00	  818.75	-1656.25	  412.16
     28.4700	  773.00	  776.38	-1756.88	  411.84
     28.5700	  679.00	  748.28	-1822.78	  411.52
     28.6700	  688.00	  750.31	-1815.81	  411.20
     28.7700	  692.00	  777.17	-1838.67	  410.88
     28.8700	  798.00	  807.89	-1763.39	  410.57
     28.9700	  855.00	  812.98	-1711.48	  410.25
     29.0700	  822.00	  774.05	-1705.55	  409.94
     29.1700	  682.00	  708.07	-1779.57	  409.62
     29.2700	  671.00	  645.39	-1727.89	  409.31
     29.3700	  613.00	  600.33	-1740.83	  409.00
     29.4700	  621.00	  573.19	-1705.69	  408.69
     29.5700	  566.00	  558.58	-1746.08	  408.38
     29.6700	  568.00	  550.89	-1736.39	  408.07
     29.7700	  598.00	  546.55	-1702.05	  407.76
     29.8700	  536.00	  543.83	-1761.33	  407.45
     29.9700	  589.00	  542.11	-1706.61	  407.15
     30.0700	  610.00	  541.22	-1684.72	  406.84
     30.1700	  570.00	  541.31	-1724.81	  406.54
     30.2700	  575.00	  542.95	-1721.45	  406.23
     30.3700	  561.00	  547.21	-1739.71	  405.93
     30.4700	  598.00	  555.72	-1711.22	  405.63
     30.5700	  576.00	  570.21	-1747.71	  405.33
     30.6700	  603.00	  591.16	-1741.66	  405.03
     30.7700	  613.00	  615.95	-1756.45	  404.73
     30.8700	  609.00	  637.49	-1781.99	  404.44
     30.9700	  612.00	  644.95	-1786.45	  404.14
     31.0700	  626.00	  631.10	-1758.60	  403.85
     31.1700	  645.00	  603.18	-1711.68	  403.55
     31.2700	  552.00	  575.29	-1776.79	  403.26
     31.3700	  537.00	  554.77	-1771.27	  402.97
     31.4700	  559.00	  542.33	-1736.83	  402.68
     31.5700	  497.00	  535.71	-1792.21	  402.39
     31.6700	  513.00	  532.30	-1772.80	  402.11
     31.7700	  537.00	  530.42	-1746.92	  401.82
     31.8700	  555.00	  529.22	-1727.72	  401.53
     31.9700	  546.00	  528.39	-1735.89	  401.25
     32.0700	  516.00	  527.79	-1765.29	  400.97
     32.1700	  548.00	  527.38	-1732.88	  400.69
     32.2700	  468.00	  527.13	-1812.63	  400.41
     32.3700	  567.00	  527.03	-1713.53	  400.13
     32.4700	  571.00	  527.09	-1709.59	  399.85
     32.5700	  512.00	  527.32	-1768.82	  399.58
     32.6700	  563.00	  527.74	-1718.24	  399.30
     32.7700	  588.00	  528.41	-1693.91	  399.03
     32.8700	  552.00	  529.39	-1730.89	  398.76
     32.9700	  549.00	  530.80	-1735.30	  398.49
     33.0700	  547.00	  532.84	-1739.34	  398.22
     33.1700	  573.00	  536.00	-1716.50	  397.95
     33.2700	  549.00	  541.31	-1745.81	  397.68
     33.3700	  541.00	  551.10	-1763.60	  397.42
     33.4700	  568.00	  569.80	-1755.30	  397.16
     33.5700	  644.00	  604.50	-1714.00	  396.89
     33.6700	  673.00	  663.41	-1743.91	  396.63
     33.7700	  741.00	  750.20	-1762.70	  396.38
     33.8700	  869.00	  855.41	-1739.91	  396.12
     33.9700	  991.00	  950.68	-1713.18	  395.86
     34.0700	 1111.00	  992.50	-1635.00	  395.61
     34.1700	  999.00	  949.04	-1703.54	  395.35
     34.2700	  883.00	  842.89	-1713.39	  395.10
     34.3700	  728.00	  728.99	-1754.49	  394.85
     34.4700	  632.00	  641.06	-1762.56	  394.60
     34.5700	  586.00	  585.95	-1753.45	  394.35
     34.6700	  558.00	  556.25	-1751.75	  394.11
     34.7700	  498.00	  541.39	-1796.89	  393.86
     34.8700	  535.00	  533.66	-1752.16	  393.62
     34.9700	  552.00	  529.04	-1730.54	  393.38
     35.0700	  514.00	  525.85	-1765.35	  393.14
     35.1700	  513.00	  523.44	-1763.94	  392.90
     35.2700	  551.00	  521.55	-1724.05	  392.67
     35.3700	  533.00	  520.00	-1740.50	  392.43
     35.4700	  535.00	  518.71	-1737.21	  392.20
     35.5700	  509.00	  517.62	-1762.12	  391.96
     35.6700	  505.00	  516.69	-1765.19	  391.73
     35.7700	  523.00	  515.87	-1746.37	  391.51
     35.8700	  488.00	  515.15	-1780.65	  391.28
     35.9700	  554.00	  514.99	-1714.49	  391.05
     36.0700	  521.00	  514.43	-1746.93	  390.83
     36.1700	  500.00	  513.92	-1767.42	  390.61
     36.2700	  471.00	  513.46	-1795.96	  390.38
     36.3700	  522.00	  513.05	-1744.55	  390.17
     36.4700	  486.00	  512.67	-1780.17	  389.95
     36.5700	  501.00	  512.34	-1764.84	  389.73
     36.6700	  494.00	  512.04	-1771.54	  389.52
     36.7700	  510.00	  511.80	-1755.30	  389.31
     36.8700	  488.00	  511.63	-1777.13	  389.09
     36.9700	  476.00	  511.59	-1789.09	  388.88
     37.0700	  493.00	  511.83	-1772.33	  388.68
     37.1700	  497.00	  512.61	-1769.11	  388.47
     37.2700	  509.00	  514.33	-1758.83	  388.27
     37.3700	  559.00	  517.40	-1711.90	  388.06
     37.4700	  504.00	  521.84	-1771.34	  387.86
     37.5700	  545.00	  526.90	-1735.40	  387.66
     37.6700	  547.00	  530.97	-1737.47	  387.47
     37.7700	  527.00	  532.24	-1758.74	  387.27
     37.8700	  531.00	  530.25	-1752.75	  387.08
     37.9700	  521.00	  526.46	-1758.96	  386.88
     38.0700	  525.00	  522.22	-1750.72	  386.69
     38.1700	  502.00	  518.06	-1769.56	  386.50
     38.2700	  495.00	  514.40	-1772.90	  386.31
     38.3700	  494.00	  511.58	-1771.08	  386.13
     38.4700	  524.00	  509.62	-1739.12	  385.95
     38.5700	  517.00	  508.36	-1744.86	  385.76
     38.6700	  478.00	  507.49	-1782.99	  385.58
     38.7700	  490.00	  506.98	-1770.48	  385.40
     38.8700	  516.00	  506.63	-1744.13	  385.23
     38.9700	  519.00	  506.34	-1740.84	  385.05
     39.0700	  514.00	  506.09	-1745.59	  384.88
     39.1700	  527.00	  505.78	-1732.28	  384.70
     39.2700	  509.00	  505.57	-1750.07	  384.53
     39.3700	  512.00	  505.38	-1746.88	  384.37
     39.4700	  513.00	  505.21	-1745.71	  384.20
     39.5700	  530.00	  505.16	-1728.66	  384.03
     39.6700	  495.00	  505.01	-1763.51	  383.87
     39.7700	  491.00	  504.87	-1767.37	  383.71
     39.8700	  505.00	  504.73	-1753.23	  383.55
     39.9700	  508.00	  504.61	-1750.11	  383.39
     40.0700	  485.00	  504.50	-1773.00	  383.24
     40.1700	  489.00	  504.39	-1768.89	  383.08
     40.2700	  492.00	  504.30	-1765.80	  382.93
     40.3700	  479.00	  504.22	-1778.72	  382.78
     40.4700	  499.00	  504.15	-1758.66	  382.63
     40.5700	  463.00	  504.10	-1794.60	  382.48
     40.6700	  531.00	  504.07	-1726.57	  382.33
     40.7700	  512.00	  504.05	-1745.55	  382.19
     40.8700	  473.00	  504.06	-1784.56	  382.05
     40.9700	  506.00	  504.09	-1751.59	  381.91
     41.0700	  538.00	  504.16	-1719.66	  381.77
     41.1700	  469.00	  504.23	-1788.73	  381.63
     41.2700	  521.00	  504.38	-1736.88	  381.50
     41.3700	  499.00	  504.60	-1759.10	  381.36
     41.4700	  499.00	  504.91	-1759.41	  381.23
     41.5700	  558.00	  505.75	-1701.25	  381.10
     41.6700	  477.00	  506.35	-1782.85	  380.97
     41.7700	  445.00	  507.25	-1815.75	  380.85
     41.8700	  532.00	  508.77	-1730.27	  380.72
     41.9700	  505.00	  511.60	-1760.10	  380.60
     42.0700	  509.00	  517.12	-1761.62	  380.48
     42.1700	  515.00	  527.52	-1766.02	  380.36
     42.2700	  544.00	  545.37	-1754.87	  380.24
     42.3700	  546.00	  572.21	-1779.71	  380.13
     42.4700	  604.00	  605.95	-1755.45	  380.01
     42.5700	  578.00	  639.29	-1814.79	  379.90
     42.6700	  603.00	  660.13	-1810.63	  379.79
     42.7700	  561.00	  657.60	-1850.10	  379.68
     42.8700	  577.00	  632.15	-1808.65	  379.58
     42.9700	  592.00	  596.60	-1758.10	  379.47
     43.0700	  531.00	  563.35	-1785.85	  379.37
     43.1700	  506.00	  538.51	-1786.01	  379.27
     43.2700	  531.00	  522.83	-1745.33	  379.17
     43.3700	  531.00	  514.14	-1736.64	  379.07
     43.4700	  509.00	  509.68	-1754.18	  378.97
     43.5700	  497.00	  507.38	-1763.88	  378.88
     43.6700	  492.00	  506.07	-1767.57	  378.78
     43.7700	  485.00	  505.41	-1773.91	  378.69
     43.8700	  500.00	  504.79	-1758.29	  378.60
     43.9700	  513.00	  504.33	-1744.83	  378.52
     44.0700	  491.00	  504.01	-1766.51	  378.43
     44.1700	  479.00	  503.73	-1778.23	  378.35
     44.2700	  534.00	  503.51	-1723.01	  378.26
     44.3700	  502.00	  503.35	-1754.85	  378.18
     44.4700	  481.00	  503.22	-1775.72	  378.10
     44.5700	  507.00	  503.01	-1749.51	  378.03
     44.6700	  514.00	  502.96	-1742.46	  377.95
     44.7700	  464.00	  502.93	-1792.43	  377.88
     44.8700	  476.00	  502.93	-1780.43	  377.81
     44.9700	  506.00	  502.95	-1750.45	  377.74
     45.0700	  505.00	  503.00	-1751.50	  377.67
     45.1700	  499.00	  503.07	-1757.57	  377.60
     45.2700	  517.00	  503.34	-1739.84	  377.54
     45.3700	  477.00	  503.45	-1779.95	  377.47
     45.4700	  509.00	  503.59	-1748.09	  377.41
     45.5700	  488.00	  503.75	-1769.25	  377.35
     45.6700	  519.00	  503.94	-1738.44	  377.29
     45.7700	  497.00	  504.15	-1760.65	  377.24
     45.8700	  508.00	  504.39	-1749.89	  377.18
     45.9700	  510.00	  504.66	-1748.16	  377.13
     46.0700	  481.00	  504.97	-1777.47	  377.08
     46.1700	  517.00	  505.31	-1741.81	  377.03
     46.2700	  497.00	  505.70	-1762.20	  376.98
     46.3700	  506.00	  506.14	-1753.64	  376.93
     46.4700	  528.00	  506.64	-1732.14	  376.89
     46.5700	  478.00	  507.21	-1782.71	  376.85
     46.6700	  517.00	  507.87	-1744.37	  376.81
     46.7700	  492.00	  508.64	-1770.14	  376.77
     46.8700	  535.00	  509.58	-1728.08	  376.73
     46.9700	  522.00	  510.82	-1742.32	  376.69
     47.0700	  514.00	  512.63	-1752.13	  376.66
     47.1700	  487.00	  515.59	-1782.09	  376.62
     47.2700	  486.00	  520.57	-1788.07	  376.59
     47.3700	  529.00	  528.93	-1753.43	  376.56
     47.4700	  534.00	  541.72	-1761.22	  376.54
     47.5700	  567.00	  559.21	-1745.71	  376.51
     47.6700	  519.00	  579.63	-1814.14	  376.48
     47.7700	  633.00	  598.66	-1719.16	  376.46
     47.8700	  629.00	  610.08	-1734.58	  376.44
     47.9700	  599.00	  609.11	-1763.61	  376.42
     48.0700	  573.00	  596.88	-1777.38	  376.40
     48.1700	  553.00	  579.62	-1780.12	  376.38
     48.2700	  577.00	  563.26	-1739.76	  376.37
     48.3700	  592.00	  551.25	-1712.75	  376.36
     48.4700	  550.00	  544.48	-1747.98	  376.34
     48.5700	  535.00	  542.31	-1760.81	  376.33
     48.6700	  531.00	  543.54	-1766.04	  376.33
     48.7700	  584.00	  547.19	-1716.69	  376.32
     48.8700	  502.00	  552.78	-1804.28	  376.31
     48.9700	  559.00	  560.37	-1754.87	  376.31
     49.0700	  591.00	  570.64	-1733.14	  376.31
     49.1700	  545.00	  585.30	-1793.80	  376.30
     49.2700	  638.00	  607.90	-1723.40	  376.31
     49.3700	  608.00	  645.21	-1790.71	  376.31
     49.4700	  682.00	  708.63	-1780.13	  376.31
     49.5700	  784.00	  814.72	-1784.22	  376.32
     49.6700	  972.00	  981.34	-1762.84	  376.32
     49.7700	 1141.00	 1222.39	-1834.89	  376.33
     49.8700	 1511.00	 1535.85	-1778.35	  376.34
     49.9700	 1903.00	 1891.91	-1742.41	  376.35
     50.0700	 2178.00	 2224.12	-1799.62	  376.36
     50.1700	 2456.00	 2434.24	-1731.74	  376.38
     50.2700	 2614.00	 2435.59	-1575.09	  376.39
     50.3700	 2208.00	 2225.34	-1770.84	  376.41
     50.4700	 1879.00	 1891.33	-1765.83	  376.43
     50.5700	 1484.00	 1536.24	-1805.74	  376.45
     50.6700	 1093.00	 1227.65	-1888.15	  376.47
     50.7700	  798.00	  994.85	-1950.35	  376.50
     50.8700	  722.00	  838.88	-1870.38	  376.52
     50.9700	  663.00	  744.25	-1834.75	  376.55
     51.0700	  672.00	  689.72	-1771.22	  376.57
     51.1700	  647.00	  656.18	-1762.68	  376.60
     51.2700	  623.00	  631.14	-1761.64	  376.63
     51.3700	  576.00	  609.51	-1787.01	  376.66
     51.4700	  560.00	  590.68	-1784.19	  376.70
     51.5700	  508.00	  575.24	-1820.74	  376.73
     51.6700	  553.00	  563.50	-1764.00	  376.77
     51.7700	  560.00	  555.18	-1748.68	  376.80
     51.8700	  560.00	  549.59	-1743.09	  376.84
     51.9700	  558.00	  545.94	-1741.44	  376.88
     52.0700	  591.00	  543.62	-1706.12	  376.92
     52.1700	  571.00	  542.32	-1724.82	  376.97
     52.2700	  572.00	  542.14	-1723.64	  377.01
     52.3700	  564.00	  542.76	-1732.26	  377.05
     52.4700	  558.00	  544.81	-1740.31	  377.10
     52.5700	  557.00	  549.33	-1745.83	  377.15
     52.6700	  519.00	  558.52	-1793.02	  377.20
     52.7700	  603.00	  576.41	-1726.91	  377.25
     52.8700	  654.00	  609.31	-1708.81	  377.30
     52.9700	  694.00	  664.99	-1724.49	  377.35
     53.0700	  823.00	  750.02	-1680.52	  377.41
     53.1700	  895.00	  865.13	-1723.63	  377.46
     53.2700	 1051.00	 1000.13	-1702.63	  377.52
     53.3700	 1201.00	 1130.80	-1683.30	  377.58
     53.4700	 1177.00	 1221.01	-1797.51	  377.64
     53.5700	 1176.00	 1236.50	-1814.00	  377.70
     53.6700	 1091.00	 1169.92	-1832.42	  377.76
     53.7700	  979.00	 1048.55	-1823.05	  377.82
     53.8700	  900.00	  911.19	-1764.69	  377.89
     53.9700	  746.00	  787.20	-1794.70	  377.95
     54.0700	  686.00	  691.50	-1759.00	  378.02
     54.1700	  659.00	  626.58	-1721.08	  378.09
     54.2700	  596.00	  587.19	-1744.69	  378.16
     54.3700	  574.00	  565.43	-1744.93	  378.23
     54.4700	  569.00	  554.20	-1738.70	  378.30
     54.5700	  549.00	  548.72	-1753.22	  378.37
     54.6700	  569.00	  546.19	-1730.69	  378.45
     54.7700	  530.00	  545.28	-1768.78	  378.52
     54.8700	  563.00	  545.38	-1735.88	  378.60
     54.9700	  584.00	  546.27	-1715.77	  378.68
     55.0700	  580.00	  547.88	-1721.38	  378.75
     55.1700	  571.00	  550.22	-1732.72	  378.83
     55.2700	  584.00	  553.39	-1722.89	  378.91
     55.3700	  666.00	  557.44	-1644.94	  379.00
     55.4700	  604.00	  562.63	-1712.13	  379.08
     55.5700	  582.00	  569.34	-1740.84	  379.16
     55.6700	  582.00	  578.36	-1749.86	  379.25
     55.7700	  611.00	  591.34	-1733.84	  379.33
     55.8700	  617.00	  611.59	-1748.09	  379.42
     55.9700	  635.00	  645.34	-1763.84	  379.51
     56.0700	  648.00	  703.03	-1808.53	  379.60
     56.1700	  748.00	  799.87	-1805.37	  379.69
     56.2700	  865.00	  954.10	-1842.60	  379.78
     56.3700	 1090.00	 1181.61	-1845.11	  379.87
     56.4700	 1349.00	 1487.24	-1891.74	  379.96
     56.5700	 1832.00	 1854.74	-1776.24	  380.06
     56.6700	 2211.00	 2238.72	-1781.22	  380.15
     56.7700	 2481.00	 2562.78	-1835.28	  380.25
     56.8700	 2651.00	 2733.55	-1836.05	  380.35
     56.9700	 2673.00	 2687.66	-1768.16	  380.44
     57.0700	 2399.00	 2442.85	-1797.35	  380.54
     57.1700	 2041.00	 2083.55	-1796.05	  380.64
     57.2700	 1666.00	 1700.76	-1788.26	  380.74
     57.3700	 1320.00	 1358.54	-1792.04	  380.85
     57.4700	 1019.00	 1089.15	-1823.65	  380.95
     57.5700	  879.00	  898.85	-1773.35	  381.05
     57.6700	  746.00	  777.26	-1784.76	  381.16
     57.7700	  729.00	  707.28	-1731.78	  381.26
     57.8700	  668.00	  672.84	-1758.34	  381.37
     57.9700	  655.00	  662.65	-1761.15	  381.47
     58.0700	  670.00	  670.75	-1754.25	  381.58
     58.1700	  735.00	  695.17	-1713.67	  381.69
     58.2700	  746.00	  735.99	-1743.49	  381.80
     58.3700	  857.00	  793.44	-1689.94	  381.91
     58.4700	  987.00	  866.21	-1632.71	  382.02
     58.5700	 1095.00	  949.87	-1608.37	  382.13
     58.6700	 1167.00	 1036.30	-1622.80	  382.24
     58.7700	 1322.00	 1116.01	-1547.51	  382.36
     58.8700	 1473.00	 1182.40	-1462.90	  382.47
     58.9700	 1542.00	 1231.81	-1443.31	  382.59
     59.0700	 1527.00	 1259.29	-1485.79	  382.70
     59.1700	 1506.00	 1260.35	-1507.85	  382.82
     59.2700	 1453.00	 1238.53	-1539.03	  382.94
     59.3700	 1381.00	 1205.92	-1578.42	  383.05
     59.4700	 1277.00	 1174.90	-1651.40	  383.17
     59.5700	 1220.00	 1153.77	-1687.27	  383.29
     59.6700	 1084.00	 1149.67	-1819.17	  383.41
     59.7700	 1188.00	 1171.20	-1736.70	  383.53
     59.8700	 1296.00	 1224.19	-1681.69	  383.65
     59.9700	 1359.00	 1305.10	-1699.60	  383.77
     60.0700	 1407.00	 1397.94	-1744.44	  383.90
     60.1700	 1561.00	 1474.74	-1667.24	  384.02
     60.2700	 1546.00	 1502.61	-1710.11	  384.14
     60.3700	 1509.00	 1460.86	-1705.36	  384.27
     60.4700	 1414.00	 1355.85	-1695.35	  384.39
     60.5700	 1275.00	 1214.32	-1692.82	  384.52
     60.6700	 1194.00	 1065.20	-1624.70	  384.64
     60.7700	  941.00	  929.76	-1742.26	  384.77
     60.8700	  808.00	  819.94	-1765.44	  384.90
     60.9700	  724.00	  739.92	-1769.42	  385.03
     61.0700	  668.00	  688.55	-1774.05	  385.15
     61.1700	  622.00	  662.52	-1794.02	  385.28
     61.2700	  650.00	  659.13	-1762.63	  385.41
     61.3700	  662.00	  677.95	-1769.45	  385.54
     61.4700	  679.00	  721.02	-1795.52	  385.67
     61.5700	  767.00	  791.61	-1778.11	  385.80
     61.6700	  825.00	  891.75	-1820.25	  385.93
     61.7700	  954.00	 1019.19	-1818.69	  386.07
     61.8700	 1136.00	 1164.70	-1782.20	  386.20
     61.9700	 1225.00	 1310.20	-1838.70	  386.33
     62.0700	 1414.00	 1428.94	-1768.44	  386.46
     62.1700	 1380.00	 1490.49	-1863.99	  386.60
     62.2700	 1362.00	 1474.79	-1866.29	  386.73
     62.3700	 1203.00	 1386.56	-1937.06	  386.87
     62.4700	 1176.00	 1251.67	-1829.17	  387.00
     62.5700	 1034.00	 1100.42	-1819.92	  387.14
     62.6700	  885.00	  956.53	-1825.03	  387.27
     62.7700	  752.00	  834.44	-1835.94	  387.41
     62.8700	  722.00	  740.08	-1771.58	  387.54
     62.9700	  625.00	  672.89	-1801.39	  387.68
     63.0700	  594.00	  628.37	-1787.87	  387.82
     63.1700	  569.00	  600.68	-1785.18	  387.95
     63.2700	  572.00	  584.42	-1765.92	  388.09
     63.3700	  585.00	  575.59	-1744.09	  388.23
     63.4700	  566.00	  571.83	-1759.33	  388.37
     63.5700	  591.00	  572.25	-1734.75	  388.51
     63.6700	  596.00	  577.25	-1734.75	  388.65
     63.7700	  641.00	  588.20	-1700.70	  388.78
     63.8700	  654.00	  607.19	-1706.69	  388.92
     63.9700	  643.00	  636.44	-1746.94	  389.06
     64.0700	  726.00	  677.50	-1705.00	  389.20
     64.1700	  761.00	  730.29	-1722.79	  389.34
     64.2700	  832.00	  792.08	-1713.58	  389.48
     64.3700	  903.00	  856.88	-1707.38	  389.62
     64.4700	  965.00	  915.38	-1703.88	  389.76
     64.5700	  975.00	  956.03	-1734.53	  389.90
     64.6700	  978.00	  971.02	-1746.52	  390.04
     64.7700	 1061.00	  957.58	-1650.08	  390.18
     64.8700	 1010.00	  920.52	-1664.02	  390.33
     64.9700	  936.00	  868.65	-1686.15	  390.47
     65.0700	  850.00	  811.75	-1715.25	  390.61
     65.1700	  804.00	  757.74	-1707.24	  390.75
     65.2700	  738.00	  711.12	-1726.62	  390.89
     65.3700	  678.00	  673.16	-1748.66	  391.03
     65.4700	  656.00	  643.03	-1740.53	  391.17
     65.5700	  654.00	  619.38	-1718.88	  391.31
     65.6700	  564.00	  601.03	-1790.53	  391.46
     65.7700	  556.00	  587.11	-1784.61	  391.60
     65.8700	  569.00	  576.89	-1761.39	  391.74
     65.9700	  533.00	  569.82	-1790.32	  391.88
     66.0700	  581.00	  565.40	-1737.90	  392.02
     66.1700	  554.00	  563.20	-1762.70	  392.17
     66.2700	  562.00	  562.81	-1754.31	  392.31
     66.3700	  550.00	  563.92	-1767.42	  392.45
     66.4700	  582.00	  566.35	-1737.85	  392.59
     66.5700	  585.00	  570.15	-1738.65	  392.73
     66.6700	  534.00	  575.78	-1795.28	  392.87
     66.7700	  567.00	  583.92	-1770.42	  393.02
     66.8700	  547.00	  596.37	-1802.87	  393.16
     66.9700	  572.00	  616.10	-1797.60	  393.30
     67.0700	  613.00	  647.84	-1788.34	  393.44
     67.1700	  663.00	  698.37	-1788.87	  393.58
     67.2700	  732.00	  776.34	-1797.84	  393.72
     67.3700	  868.00	  891.12	-1776.62	  393.86
     67.4700	 1039.00	 1050.46	-1764.96	  394.00
     67.5700	 1345.00	 1257.29	-1665.79	  394.14
     67.6700	 1493.00	 1506.16	-1766.66	  394.28
     67.7700	 1742.00	 1780.26	-1791.76	  394.42
     67.8700	 2050.00	 2050.26	-1753.76	  394.56
     67.9700	 2327.00	 2275.01	-1701.51	  394.70
     68.0700	 2464.00	 2408.49	-1697.99	  394.84
     68.1700	 2517.00	 2416.50	-1653.00	  394.98
     68.2700	 2224.00	 2296.80	-1826.30	  395.12
     68.3700	 2122.00	 2080.65	-1712.15	  395.26
     68.4700	 1874.00	 1813.96	-1693.46	  395.40
     68.5700	 1567.00	 1538.88	-1725.38	  395.54
     68.6700	 1233.00	 1286.45	-1806.95	  395.68
     68.7700	 1008.00	 1074.68	-1820.18	  395.82
     68.8700	  860.00	  910.26	-1803.76	  395.95
     68.9700	  757.00	  791.17	-1787.67	  396.09
     69.0700	  712.00	  709.89	-1751.39	  396.23
     69.1700	  674.00	  657.14	-1736.64	  396.37
     69.2700	  626.00	  624.12	-1751.62	  396.50
     69.3700	  594.00	  603.79	-1763.29	  396.64
     69.4700	  622.00	  591.18	-1722.68	  396.77
     69.5700	  614.00	  583.12	-1722.62	  396.91
     69.6700	  596.00	  577.77	-1735.27	  397.04
     69.7700	  617.00	  574.09	-1710.59	  397.18
     69.8700	  576.00	  571.55	-1749.05	  397.31
     69.9700	  582.00	  569.88	-1741.38	  397.45
     70.0700	  528.00	  568.96	-1794.46	  397.58
     70.1700	  559.00	  568.72	-1763.22	  397.71
     70.2700	  558.00	  569.22	-1764.72	  397.85
     70.3700	  530.00	  570.51	-1794.01	  397.98
     70.4700	  566.00	  572.85	-1760.35	  398.11
     70.5700	  586.00	  576.71	-1744.21	  398.24
     70.6700	  563.00	  582.95	-1773.45	  398.37
     70.7700	  577.00	  593.07	-1769.57	  398.50
     70.8700	  608.00	  609.52	-1755.02	  398.63
     70.9700	  608.00	  635.88	-1781.38	  398.76
     71.0700	  640.00	  677.03	-1790.53	  398.89
     71.1700	  734.00	  738.80	-1758.30	  399.02
     71.2700	  816.00	  827.10	-1764.60	  399.15
     71.3700	  940.00	  946.51	-1760.01	  399.27
     71.4700	 1122.00	 1099.04	-1730.54	  399.40
     71.5700	 1255.00	 1278.93	-1777.43	  399.53
     71.6700	 1413.00	 1476.00	-1816.50	  399.65
     71.7700	 1551.00	 1671.69	-1874.19	  399.78
     71.8700	 1866.00	 1840.65	-1728.15	  399.90
     71.9700	 1887.00	 1953.76	-1820.26	  400.02
     72.0700	 1959.00	 1986.75	-1781.25	  400.15
     72.1700	 1909.00	 1931.76	-1776.26	  400.27
     72.2700	 1749.00	 1801.74	-1806.24	  400.39
     72.3700	 1710.00	 1624.22	-1667.72	  400.51
     72.4700	 1503.00	 1427.45	-1677.95	  400.63
     72.5700	 1370.00	 1234.91	-1618.41	  400.75
     72.6700	 1173.00	 1062.87	-1643.37	  400.87
     72.7700	 1047.00	  920.14	-1626.64	  400.99
     72.8700	  928.00	  808.99	-1634.49	  401.11
     72.9700	  810.00	  727.14	-1670.64	  401.23
     73.0700	  789.00	  669.62	-1634.12	  401.34
     73.1700	  779.00	  630.66	-1605.16	  401.46
     73.2700	  731.00	  604.89	-1627.39	  401.57
     73.3700	  666.00	  587.98	-1675.48	  401.69
     73.4700	  630.00	  576.80	-1700.30	  401.80
     73.5700	  594.00	  569.27	-1728.77	  401.92
     73.6700	  626.00	  564.13	-1691.63	  402.03
     73.7700	  569.00	  560.63	-1745.13	  402.14
     73.8700	  605.00	  558.33	-1706.83	  402.25
     73.9700	  591.00	  556.98	-1719.48	  402.36
     74.0700	  618.00	  556.39	-1691.89	  402.47
     74.1700	  570.00	  556.40	-1739.90	  402.58
     74.2700	  565.00	  556.80	-1745.30	  402.68
     74.3700	  605.00	  557.38	-1705.88	  402.79
     74.4700	  662.00	  557.86	-1649.36	  402.90
     74.5700	  618.00	  557.96	-1693.46	  403.00
     74.6700	  626.00	  557.49	-1684.99	  403.11
     74.7700	  683.00	  556.39	-1626.89	  403.21
     74.8700	  605.00	  554.80	-1703.30	  403.31
     74.9700	  632.00	  552.97	-1674.47	  403.41
     75.0700	  561.00	  551.22	-1743.72	  403.51
     75.1700	  567.00	  549.87	-1736.37	  403.61
     75.2700	  588.00	  549.18	-1714.68	  403.71
     75.3700	  598.00	  549.71	-1705.21	  403.81
     75.4700	  541.00	  551.78	-1764.28	  403.91
     75.5700	  553.00	  555.80	-1756.30	  404.00
     75.6700	  569.00	  562.47	-1746.97	  404.10
     75.7700	  563.00	  572.18	-1762.68	  404.19
     75.8700	  572.00	  585.24	-1766.74	  404.28
     75.9700	  553.00	  601.64	-1802.14	  404.38
     76.0700	  645.00	  620.88	-1729.38	  404.47
     76.1700	  643.00	  641.88	-1752.38	  404.56
     76.2700	  668.00	  662.90	-1748.40	  404.65
     76.3700	  697.00	  681.62	-1738.12	  404.74
     76.4700	  728.00	  695.38	-1720.88	  404.82
     76.5700	  674.00	  701.72	-1781.22	  404.91
     76.6700	  693.00	  699.33	-1759.83	  404.99
     76.7700	  693.00	  688.68	-1749.18	  405.08
     76.8700	  620.00	  671.79	-1805.29	  405.16
     76.9700	  632.00	  651.15	-1772.65	  405.24
     77.0700	  632.00	  629.65	-1751.15	  405.32
     77.1700	  569.00	  609.10	-1793.60	  405.40
     77.2700	  590.00	  590.89	-1754.39	  405.48
     77.3700	  587.00	  575.77	-1742.27	  405.56
     77.4700	  538.00	  563.92	-1779.42	  405.64
     77.5700	  502.00	  555.11	-1806.61	  405.71
     77.6700	  567.00	  548.87	-1735.37	  405.79
     77.7700	  499.00	  544.62	-1799.12	  405.86
     77.8700	  507.00	  541.84	-1788.34	  405.93
     77.9700	  464.00	  540.06	-1829.56	  406.01
     78.0700	  511.00	  538.94	-1781.44	  406.08
     78.1700	  537.00	  538.24	-1754.74	  406.14
     78.2700	  560.00	  537.80	-1731.30	  406.21
     78.3700	  518.00	  537.54	-1773.04	  406.28
     78.4700	  539.00	  537.40	-1751.90	  406.34
     78.5700	  557.00	  537.36	-1733.86	  406.41
     78.6700	  523.00	  537.41	-1767.91	  406.47
     78.7700	  503.00	  537.57	-1788.07	  406.53
     78.8700	  483.00	  537.85	-1808.35	  406.60
     78.9700	  521.00	  538.29	-1770.79	  406.66
     79.0700	  488.00	  538.92	-1804.42	  406.71
     79.1700	  526.00	  539.79	-1767.29	  406.77
     79.2700	  555.00	  540.79	-1739.29	  406.83
     79.3700	  496.00	  542.34	-1799.84	  406.88
     79.4700	  534.00	  544.31	-1763.81	  406.94
     79.5700	  516.00	  546.78	-1784.28	  406.99
     79.6700	  511.00	  549.83	-1792.33	  407.04
     79.7700	  536.00	  553.55	-1771.05	  407.09
     79.8700	  529.00	  558.08	-1782.58	  407.14
     79.9700	  538.00	  563.58	-1779.08	  407.19
     80.0700	  537.00	  570.28	-1786.78	  407.23
     80.1700	  526.00	  578.44	-1805.94	  407.28
     80.2700	  573.00	  588.39	-1768.89	  407.32
     80.3700	  559.00	  600.40	-1794.90	  407.36
     80.4700	  585.00	  614.57	-1783.07	  407.40
     80.5700	  606.00	  630.76	-1778.26	  407.44
     80.6700	  608.00	  648.51	-1794.01	  407.48
     80.7700	  641.00	  666.94	-1779.44	  407.52
     80.8700	  654.00	  684.88	-1784.38	  407.55
     80.9700	  629.00	  700.96	-1825.46	  407.59
     81.0700	  745.00	  713.91	-1722.41	  407.62
     81.1700	  732.00	  722.76	-1744.26	  407.65
     81.2700	  742.00	  726.91	-1738.41	  407.69
     81.3700	  787.00	  726.12	-1692.62	  407.71
     81.4700	  763.00	  720.57	-1711.07	  407.74
     81.5700	  736.00	  710.78	-1728.28	  407.77
     81.6700	  730.00	  697.52	-1721.02	  407.79
     81.7700	  771.00	  681.67	-1664.17	  407.82
     81.8700	  735.00	  664.20	-1682.70	  407.84
     81.9700	  716.00	  646.16	-1683.66	  407.86
     82.0700	  656.00	  628.66	-1726.16	  407.88
     82.1700	  632.00	  612.44	-1733.94	  407.90
     82.2700	  698.00	  598.03	-1653.53	  407.92
     82.3700	  638.00	  585.69	-1701.19	  407.93
     82.4700	  645.00	  575.50	-1684.00	  407.95
     82.5700	  543.00	  567.40	-1777.90	  407.96
     82.6700	  544.00	  561.32	-1770.82	  407.97
     82.7700	  514.00	  557.10	-1796.60	  407.98
     82.8700	  591.00	  554.57	-1717.07	  407.99
     82.9700	  549.00	  553.61	-1758.11	  408.00
     83.0700	  534.00	  554.09	-1773.59	  408.00
     83.1700	  559.00	  555.90	-1750.40	  408.01
     83.2700	  554.00	  558.92	-1758.42	  408.01
     83.3700	  579.00	  562.98	-1737.48	  408.01
     83.4700	  546.00	  567.85	-1775.35	  408.01
     83.5700	  515.00	  573.19	-1811.69	  408.01
     83.6700	  527.00	  578.58	-1805.08	  408.01
     83.7700	  553.00	  583.51	-1784.01	  408.00
     83.8700	  589.00	  587.39	-1751.89	  408.00
     83.9700	  547.00	  589.68	-1796.18	  407.99
     84.0700	  554.00	  589.97	-1789.47	  407.98
     84.1700	  562.00	  588.20	-1779.70	  407.97
     84.2700	  577.00	  584.60	-1761.10	  407.96
     84.3700	  566.00	  579.67	-1767.17	  407.95
     84.4700	  558.00	  573.97	-1769.47	  407.93
     84.5700	  561.00	  568.01	-1760.51	  407.92
     84.6700	  567.00	  562.22	-1748.72	  407.90
     84.7700	  535.00	  556.92	-1775.42	  407.88
     84.8700	  526.00	  552.31	-1779.81	  407.86
     84.9700	  548.00	  548.49	-1753.99	  407.84
     85.0700	  529.00	  545.47	-1769.97	  407.82
     85.1700	  525.00	  543.20	-1771.70	  407.79
     85.2700	  536.00	  541.59	-1759.09	  407.76
     85.3700	  500.00	  540.54	-1794.04	  407.74
     85.4700	  546.00	  539.96	-1747.46	  407.71
     85.5700	  526.00	  539.76	-1767.26	  407.68
     85.6700	  543.00	  539.89	-1750.39	  407.64
     85.7700	  523.00	  540.33	-1770.83	  407.61
     85.8700	  534.00	  541.09	-1760.59	  407.58
     85.9700	  545.00	  542.22	-1750.72	  407.54
     86.0700	  554.00	  543.78	-1743.28	  407.50
     86.1700	  541.00	  545.90	-1758.40	  407.46
     86.2700	  541.00	  548.71	-1761.21	  407.42
     86.3700	  553.00	  552.37	-1752.87	  407.38
     86.4700	  561.00	  557.01	-1749.51	  407.33
     86.5700	  557.00	  562.77	-1759.27	  407.29
     86.6700	  568.00	  569.69	-1755.19	  407.24
     86.7700	  572.00	  577.39	-1758.89	  407.19
     86.8700	  570.00	  586.28	-1769.78	  407.14
     86.9700	  615.00	  595.66	-1734.16	  407.09
     87.0700	  614.00	  604.97	-1744.47	  407.03
     87.1700	  652.00	  613.54	-1715.04	  406.98
     87.2700	  633.00	  620.55	-1741.05	  406.92
     87.3700	  657.00	  625.23	-1721.73	  406.86
     87.4700	  669.00	  626.96	-1711.46	  406.81
     87.5700	  643.00	  625.54	-1736.04	  406.74
     87.6700	  663.00	  621.18	-1711.68	  406.68
     87.7700	  659.00	  614.55	-1709.05	  406.62
     87.8700	  622.00	  606.48	-1737.98	  406.55
     87.9700	  578.00	  597.87	-1773.37	  406.48
     88.0700	  598.00	  589.54	-1745.04	  406.42
     88.1700	  595.00	  582.18	-1740.68	  406.35
     88.2700	  630.00	  576.32	-1699.82	  406.27
     88.3700	  587.00	  572.32	-1738.82	  406.20
     88.4700	  586.00	  570.35	-1737.85	  406.13
     88.5700	  566.00	  570.41	-1757.91	  406.05
     88.6700	  608.00	  572.36	-1717.86	  405.97
     88.7700	  616.00	  575.90	-1713.40	  405.89
     88.8700	  602.00	  580.63	-1732.13	  405.81
     88.9700	  618.00	  586.05	-1721.55	  405.73
     89.0700	  592.00	  591.60	-1753.10	  405.65
     89.1700	  579.00	  596.65	-1771.15	  405.56
     89.2700	  620.00	  600.57	-1734.07	  405.47
     89.3700	  622.00	  602.82	-1734.32	  405.38
     89.4700	  579.00	  603.03	-1777.53	  405.29
     89.5700	  576.00	  601.13	-1778.63	  405.20
     89.6700	  620.00	  597.34	-1730.84	  405.11
     89.7700	  605.00	  592.09	-1740.59	  405.02
     89.8700	  521.00	  585.90	-1818.40	  404.92
     89.9700	  531.00	  579.28	-1801.78	  404.82
     90.0700	  600.00	  572.67	-1726.17	  404.72
     90.1700	  536.00	  566.43	-1783.93	  404.62
     90.2700	  555.00	  560.82	-1759.32	  404.52
     90.3700	  550.00	  555.98	-1759.48	  404.42
     90.4700	  551.00	  551.99	-1754.49	  404.31
     90.5700	  514.00	  548.83	-1788.33	  404.20
     90.6700	  546.00	  546.45	-1753.95	  404.10
     90.7700	  536.00	  544.76	-1762.26	  403.99
     90.8700	  512.00	  543.65	-1785.15	  403.88
     90.9700	  509.00	  543.05	-1787.55	  403.76
     91.0700	  490.00	  542.88	-1806.38	  403.65
     91.1700	  524.00	  543.11	-1772.61	  403.53
     91.2700	  538.00	  543.73	-1759.23	  403.42
     91.3700	  528.00	  544.78	-1770.28	  403.30
     91.4700	  532.00	  546.34	-1767.84	  403.18
     91.5700	  522.00	  548.53	-1780.03	  403.06
     91.6700	  503.00	  551.53	-1802.03	  402.93
     91.7700	  544.00	  555.50	-1765.00	  402.81
     91.8700	  549.00	  560.45	-1764.95	  402.68
     91.9700	  508.00	  567.02	-1812.52	  402.55
     92.0700	  542.00	  575.17	-1786.67	  402.43
     92.1700	  607.00	  585.02	-1731.52	  402.30
     92.2700	  547.00	  596.63	-1803.13	  402.16
     92.3700	  578.00	  609.94	-1785.44	  402.03
     92.4700	  612.00	  624.76	-1766.26	  401.90
     92.5700	  648.00	  640.79	-1746.29	  401.76
     92.6700	  641.00	  657.55	-1770.05	  401.62
     92.7700	  684.00	  674.46	-1743.96	  401.48
     92.8700	  733.00	  690.85	-1711.35	  401.34
     92.9700	  692.00	  706.01	-1767.51	  401.20
     93.0700	  731.00	  719.35	-1741.85	  401.06
     93.1700	  815.00	  730.56	-1669.06	  400.91
     93.2700	  767.00	  739.74	-1726.24	  400.77
     93.3700	  827.00	  747.33	-1673.83	  400.62
     93.4700	  833.00	  753.99	-1674.49	  400.47
     93.5700	  789.00	  760.43	-1724.93	  400.32
     93.6700	  861.00	  767.31	-1659.81	  400.17
     93.7700	  812.00	  775.19	-1716.69	  400.02
     93.8700	  836.00	  784.56	-1702.06	  399.86
     93.9700	  826.00	  795.84	-1723.34	  399.71
     94.0700	  860.00	  809.36	-1702.86	  399.55
     94.1700	  882.00	  825.19	-1696.69	  399.39
     94.2700	  832.00	  843.03	-1764.53	  399.23
     94.3700	  859.00	  862.18	-1756.68	  399.07
     94.4700	  880.00	  881.44	-1754.94	  398.91
     94.5700	  944.00	  899.24	-1708.74	  398.75
     94.6700	  975.00	  913.70	-1692.20	  398.58
     94.7700	  932.00	  922.89	-1744.39	  398.42
     94.8700	  997.00	  925.17	-1681.67	  398.25
     94.9700	  925.00	  919.62	-1748.12	  398.08
     95.0700	  864.00	  906.31	-1795.81	  397.91
     95.1700	  894.00	  886.23	-1745.73	  397.74
     95.2700	  845.00	  861.12	-1769.62	  397.57
     95.3700	  774.00	  832.98	-1812.48	  397.39
     95.4700	  795.00	  803.90	-1762.40	  397.22
     95.5700	  779.00	  775.87	-1750.37	  397.04
     95.6700	  765.00	  750.70	-1739.20	  396.86
     95.7700	  709.00	  730.05	-1774.55	  396.68
     95.8700	  707.00	  715.35	-1761.85	  396.50
     95.9700	  662.00	  707.91	-1799.41	  396.32
     96.0700	  698.00	  708.80	-1764.30	  396.14
     96.1700	  710.00	  718.97	-1762.47	  395.96
     96.2700	  734.00	  739.13	-1758.63	  395.77
     96.3700	  720.00	  769.74	-1803.24	  395.59
     96.4700	  800.00	  810.92	-1764.42	  395.40
     96.5700	  858.00	  862.36	-1757.86	  395.21
     96.6700	  886.00	  923.21	-1790.71	  395.02
     96.7700	  977.00	  992.00	-1768.50	  394.83
     96.8700	 1055.00	 1066.55	-1765.05	  394.64
     96.9700	 1114.00	 1143.97	-1783.47	  394.45
     97.0700	 1152.00	 1220.70	-1822.20	  394.25
     97.1700	 1292.00	 1292.59	-1754.09	  394.06
     97.2700	 1377.00	 1355.12	-1731.62	  393.86
     97.3700	 1473.00	 1403.76	-1684.26	  393.66
     97.4700	 1387.00	 1434.58	-1801.08	  393.46
     97.5700	 1416.00	 1445.01	-1782.51	  393.26
     97.6700	 1403.00	 1434.43	-1784.93	  393.06
     97.7700	 1383.00	 1404.27	-1774.77	  392.86
     97.8700	 1362.00	 1357.62	-1749.12	  392.66
     97.9700	 1281.00	 1298.53	-1771.03	  392.46
     98.0700	 1181.00	 1231.45	-1803.95	  392.25
     98.1700	 1200.00	 1160.67	-1714.17	  392.05
     98.2700	 1128.00	 1090.13	-1715.63	  391.84
     98.3700	 1028.00	 1023.31	-1748.81	  391.63
     98.4700	  911.00	  963.08	-1805.58	  391.42
     98.5700	  876.00	  911.77	-1789.27	  391.21
     98.6700	  827.00	  871.15	-1797.65	  391.00
     98.7700	  838.00	  842.55	-1758.05	  390.79
     98.8700	  829.00	  826.92	-1751.42	  390.58
     98.9700	  818.00	  824.91	-1760.41	  390.37
     99.0700	  817.00	  836.93	-1773.43	  390.15
     99.1700	  827.00	  863.18	-1789.68	  389.94
     99.2700	  842.00	  903.69	-1815.19	  389.72
     99.3700	  869.00	  958.26	-1842.76	  389.51
     99.4700	 1014.00	 1026.39	-1765.89	  389.29
     99.5700	 1132.00	 1107.22	-1728.72	  389.07
     99.6700	 1089.00	 1199.39	-1863.89	  388.85
     99.7700	 1277.00	 1300.97	-1777.47	  388.63
     99.8700	 1407.00	 1409.38	-1755.88	  388.41
     99.9700	 1546.00	 1521.27	-1728.77	  388.19
    100.0700	 1571.00	 1632.69	-1815.19	  387.97
    100.1700	 1742.00	 1739.16	-1750.66	  387.74
    100.2700	 1854.00	 1836.11	-1735.61	  387.52
    100.3700	 1985.00	 1919.44	-1687.94	  387.29
    100.4700	 2103.00	 1985.83	-1636.33	  387.07
    100.5700	 2061.00	 2032.96	-1725.46	  386.84
    100.6700	 2132.00	 2059.32	-1680.82	  386.62
    100.7700	 2150.00	 2064.04	-1667.54	  386.39
    100.8700	 2121.00	 2046.85	-1679.35	  386.16
    100.9700	 2021.00	 2008.32	-1740.82	  385.93
    101.0700	 1965.00	 1950.25	-1738.75	  385.70
    101.1700	 1862.00	 1875.83	-1767.33	  385.47
    101.2700	 1803.00	 1789.51	-1740.01	  385.24
    101.3700	 1695.00	 1696.33	-1754.83	  385.01
    101.4700	 1617.00	 1601.44	-1737.94	  384.78
    101.5700	 1502.00	 1509.40	-1760.90	  384.55
    101.6700	 1421.00	 1424.02	-1756.52	  384.32
    101.7700	 1344.00	 1348.05	-1757.55	  384.08
    101.8700	 1337.00	 1283.11	-1699.61	  383.85
    101.9700	 1267.00	 1229.79	-1716.29	  383.62
    102.0700	 1256.00	 1187.63	-1685.13	  383.38
    102.1700	 1222.00	 1155.31	-1686.81	  383.15
    102.2700	 1119.00	 1130.76	-1765.26	  382.91
    102.3700	 1093.00	 1111.39	-1771.89	  382.68
    102.4700	 1005.00	 1094.42	-1842.92	  382.44
    102.5700	 1083.00	 1077.14	-1747.64	  382.20
    102.6700	 1064.00	 1057.35	-1746.85	  381.97
    102.7700	 1069.00	 1033.59	-1718.09	  381.73
    102.8700	  995.00	 1005.24	-1763.74	  381.49
    102.9700	  900.00	  972.54	-1826.04	  381.25
    103.0700	  922.00	  936.25	-1767.75	  381.02
    103.1700	  893.00	  897.51	-1758.01	  380.78
    103.2700	  833.00	  857.60	-1778.10	  380.54
    103.3700	  846.00	  817.76	-1725.26	  380.30
    103.4700	  784.00	  779.14	-1748.64	  380.06
    103.5700	  723.00	  742.72	-1773.22	  379.82
    103.6700	  670.00	  709.23	-1792.73	  379.58
    103.7700	  698.00	  679.22	-1734.72	  379.34
    103.8700	  654.00	  652.98	-1752.48	  379.10
    103.9700	  597.00	  630.59	-1787.09	  378.86
    104.0700	  654.00	  611.95	-1711.45	  378.62
    104.1700	  605.00	  596.85	-1745.35	  378.38
    104.2700	  501.00	  584.94	-1837.44	  378.14
    104.3700	  557.00	  575.85	-1772.35	  377.90
    104.4700	  599.00	  569.19	-1723.69	  377.66
    104.5700	  538.00	  564.55	-1780.05	  377.42
    104.6700	  551.00	  561.59	-1764.09	  377.18
    104.7700	  525.00	  559.97	-1788.47	  376.94
    104.8700	  550.00	  559.41	-1762.91	  376.70
    104.9700	  554.00	  559.67	-1759.17	  376.47
    105.0700	  562.00	  560.58	-1752.08	  376.23
    105.1700	  546.00	  561.99	-1769.49	  375.99
    105.2700	  522.00	  563.78	-1795.28	  375.75
    105.3700	  517.00	  565.91	-1802.41	  375.51
    105.4700	  556.00	  568.35	-1765.85	  375.27
    105.5700	  583.00	  571.13	-1741.63	  375.03
    105.6700	  531.00	  574.30	-1796.80	  374.79
    105.7700	  600.00	  577.98	-1731.48	  374.55
    105.8700	  547.00	  582.27	-1788.77	  374.32
    105.9700	  578.00	  587.30	-1762.80	  374.08
    106.0700	  606.00	  593.15	-1740.65	  373.84
    106.1700	  606.00	  599.87	-1747.37	  373.60
    106.2700	  580.00	  607.46	-1780.96	  373.37
    106.3700	  628.00	  615.85	-1741.35	  373.13
    106.4700	  630.00	  624.90	-1748.40	  372.89
    106.5700	  588.00	  634.38	-1799.88	  372.66
    106.6700	  635.00	  644.03	-1762.53	  372.42
    106.7700	  634.00	  653.52	-1773.02	  372.19
    106.8700	  645.00	  662.47	-1770.97	  371.96
    106.9700	  615.00	  670.49	-1808.99	  371.72
    107.0700	  650.00	  677.23	-1780.73	  371.49
    107.1700	  652.00	  682.38	-1783.88	  371.26
    107.2700	  696.00	  685.78	-1743.28	  371.03
    107.3700	  698.00	  687.41	-1742.91	  370.80
    107.4700	  674.00	  687.45	-1766.95	  370.57
    107.5700	  744.00	  686.20	-1695.70	  370.34
    107.6700	  617.00	  684.07	-1820.57	  370.11
    107.7700	  662.00	  681.48	-1772.98	  369.88
    107.8700	  713.00	  678.87	-1719.37	  369.65
    107.9700	  711.00	  676.57	-1719.07	  369.43
    108.0700	  682.00	  674.85	-1746.35	  369.20
    108.1700	  653.00	  673.85	-1774.35	  368.98
    108.2700	  682.00	  673.61	-1745.11	  368.75
    108.3700	  711.00	  674.05	-1716.55	  368.53
    108.4700	  703.00	  674.98	-1725.48	  368.31
    108.5700	  679.00	  676.12	-1750.62	  368.09
    108.6700	  712.00	  677.11	-1718.61	  367.87
    108.7700	  669.00	  677.56	-1762.06	  367.65
    108.8700	  670.00	  677.09	-1760.59	  367.43
    108.9700	  687.00	  675.38	-1741.88	  367.21
    109.0700	  679.00	  672.19	-1746.69	  367.00
    109.1700	  623.00	  667.46	-1797.96	  366.78
    109.2700	  650.00	  661.23	-1764.73	  366.57
    109.3700	  650.00	  653.67	-1757.17	  366.35
    109.4700	  652.00	  645.05	-1746.55	  366.14
    109.5700	  640.00	  635.67	-1749.17	  365.93
    109.6700	  613.00	  625.87	-1766.37	  365.72
    109.7700	  653.00	  615.95	-1716.45	  365.52
    109.8700	  648.00	  606.21	-1711.71	  365.31
    109.9700	  594.00	  596.90	-1756.40	  365.11
    110.0700	  585.00	  588.23	-1756.73	  364.90
    110.1700	  602.00	  580.36	-1731.86	  364.70
    110.2700	  625.00	  573.39	-1701.89	  364.50
    110.3700	  542.00	  567.39	-1778.89	  364.30
    110.4700	  593.00	  562.38	-1722.88	  364.10
    110.5700	  574.00	  558.32	-1737.82	  363.91
    110.6700	  567.00	  555.18	-1741.68	  363.71
    110.7700	  559.00	  552.88	-1747.38	  363.52
    110.8700	  556.00	  551.33	-1748.83	  363.33
    110.9700	  541.00	  550.46	-1762.96	  363.14
    111.0700	  547.00	  550.16	-1756.66	  362.95
    111.1700	  548.00	  550.37	-1755.87	  362.77
    111.2700	  574.00	  551.01	-1730.51	  362.58
    111.3700	  566.00	  552.01	-1739.51	  362.40
    111.4700	  588.00	  553.32	-1718.82	  362.22
    111.5700	  546.00	  554.90	-1762.40	  362.04
    111.6700	  536.00	  556.72	-1774.22	  361.86
    111.7700	  514.00	  558.75	-1798.25	  361.69
    111.8700	  553.00	  560.99	-1761.49	  361.52
    111.9700	  557.00	  563.42	-1759.92	  361.34
    112.0700	  585.00	  566.05	-1734.55	  361.17
    112.1700	  568.00	  568.91	-1754.41	  361.01
    112.2700	  532.00	  571.99	-1793.49	  360.84
    112.3700	  607.00	  575.35	-1721.85	  360.68
    112.4700	  601.00	  579.01	-1731.51	  360.52
    112.5700	  557.00	  583.02	-1779.52	  360.36
    112.6700	  620.00	  587.46	-1720.96	  360.20
    112.7700	  619.00	  592.40	-1726.90	  360.05
    112.8700	  701.00	  597.96	-1650.46	  359.90
    112.9700	  653.00	  604.29	-1704.79	  359.75
    113.0700	  660.00	  611.56	-1705.06	  359.60
    113.1700	  684.00	  620.03	-1689.53	  359.46
    113.2700	  704.00	  630.02	-1679.52	  359.32
    113.3700	  775.00	  641.92	-1620.42	  359.18
    113.4700	  726.00	  656.24	-1683.74	  359.04
    113.5700	  802.00	  673.61	-1625.11	  358.90
    113.6700	  830.00	  694.83	-1618.33	  358.77
    113.7700	  839.00	  720.84	-1635.34	  358.64
    113.8700	  871.00	  752.81	-1635.31	  358.52
    113.9700	  964.00	  792.06	-1581.56	  358.39
    114.0700	 1082.00	  840.19	-1511.69	  358.27
    114.1700	 1064.00	  898.99	-1588.49	  358.15
    114.2700	 1096.00	  970.43	-1627.93	  358.03
    114.3700	 1168.00	 1056.68	-1642.18	  357.92
    114.4700	 1287.00	 1159.98	-1626.48	  357.81
    114.5700	 1433.00	 1282.69	-1603.19	  357.70
    114.6700	 1563.00	 1427.11	-1617.61	  357.60
    114.7700	 1781.00	 1595.34	-1567.84	  357.50
    114.8700	 1947.00	 1789.21	-1595.71	  357.40
    114.9700	 2130.00	 2010.10	-1633.60	  357.31
    115.0700	 2322.00	 2258.81	-1690.31	  357.21
    115.1700	 2543.00	 2535.44	-1745.94	  357.12
    115.2700	 2861.00	 2839.11	-1731.61	  357.04
    115.3700	 3087.00	 3167.93	-1834.43	  356.96
    115.4700	 3353.00	 3518.86	-1919.36	  356.88
    115.5700	 3718.00	 3887.74	-1923.24	  356.80
    115.6700	 4022.00	 4269.22	-2000.72	  356.73
    115.7700	 4429.00	 4656.61	-1981.11	  356.66
    115.8700	 4711.00	 5042.09	-2084.59	  356.59
    115.9700	 5233.00	 5416.73	-1937.23	  356.53
    116.0700	 5717.00	 5770.78	-1807.28	  356.47
    116.1700	 5899.00	 6093.81	-1948.31	  356.42
    116.2700	 6230.00	 6375.05	-1898.55	  356.36
    116.3700	 6784.00	 6604.10	-1573.60	  356.32
    116.4700	 6740.00	 6771.62	-1785.12	  356.27
    116.5700	 6876.00	 6870.40	-1747.90	  356.23
    116.6700	 7014.00	 6895.99	-1635.49	  356.19
    116.7700	 6862.00	 6847.35	-1738.85	  356.16
    116.8700	 6842.00	 6727.05	-1638.55	  356.13
    116.9700	 6640.00	 6540.90	-1654.40	  356.11
    117.0700	 6356.00	 6297.13	-1694.63	  356.08
    117.1700	 5973.00	 6005.53	-1786.03	  356.07
    117.2700	 5629.00	 5676.70	-1801.20	  356.05
    117.3700	 5187.00	 5321.25	-1887.75	  356.04
    117.4700	 4913.00	 4949.35	-1789.85	  356.04
    117.5700	 4559.00	 4570.24	-1764.74	  356.04
    117.6700	 4249.00	 4192.16	-1696.66	  356.04
    117.7700	 3868.00	 3822.31	-1707.81	  356.05
    117.8700	 3621.00	 3466.62	-1599.12	  356.06
    117.9700	 3202.00	 3129.86	-1681.36	  356.08
    118.0700	 2950.00	 2815.48	-1618.98	  356.10
    118.1700	 2615.00	 2525.81	-1664.31	  356.12
    118.2700	 2332.00	 2262.26	-1683.76	  356.15
    118.3700	 1998.00	 2025.25	-1780.75	  356.18
    118.4700	 1781.00	 1814.47	-1786.97	  356.22
    118.5700	 1649.00	 1628.94	-1733.44	  356.27
    118.6700	 1382.00	 1467.17	-1838.67	  356.31
    118.7700	 1215.00	 1327.39	-1865.89	  356.36
    118.8700	 1116.00	 1207.60	-1845.10	  356.42
    118.9700	 1046.00	 1105.70	-1813.20	  356.48
    119.0700	  921.00	 1019.54	-1852.04	  356.55
    119.1700	  881.00	  947.08	-1819.58	  356.62
    119.2700	  794.00	  886.39	-1845.89	  356.70
    119.3700	  749.00	  835.73	-1840.23	  356.78
    119.4700	  724.00	  793.53	-1823.03	  356.87
    119.5700	  673.00	  758.41	-1838.91	  356.96
    119.6700	  671.00	  729.19	-1811.69	  357.05
    119.7700	  711.00	  704.86	-1747.36	  357.16
    119.8700	  653.00	  684.58	-1785.08	  357.26
    119.9700	  592.00	  667.65	-1829.15	  357.38
    120.0700	  612.00	  653.50	-1795.00	  357.49
    120.1700	  615.00	  641.67	-1780.17	  357.62
    120.2700	  584.00	  631.77	-1801.27	  357.74
    120.3700	  609.00	  623.50	-1768.00	  357.88
    120.4700	  555.00	  616.64	-1815.14	  358.02
    120.5700	  539.00	  610.98	-1825.48	  358.16
    120.6700	  544.00	  606.39	-1815.89	  358.31
    120.7700	  604.00	  602.73	-1752.23	  358.47
    120.8700	  531.00	  599.93	-1822.43	  358.63
    120.9700	  579.00	  597.90	-1772.40	  358.80
    121.0700	  568.00	  596.60	-1782.10	  358.97
    121.1700	  550.00	  595.97	-1799.47	  359.15
    121.2700	  555.00	  595.96	-1794.46	  359.34
    121.3700	  582.00	  596.54	-1768.04	  359.53
    121.4700	  590.00	  597.66	-1761.16	  359.73
    121.5700	  551.00	  599.27	-1801.77	  359.93
    121.6700	  609.00	  601.31	-1745.81	  360.14
    121.7700	  583.00	  603.71	-1774.21	  360.36
    121.8700	  609.00	  606.43	-1750.93	  360.58
    121.9700	  611.00	  609.38	-1751.88	  360.81
    122.0700	  619.00	  612.47	-1746.97	  361.04
    122.1700	  624.00	  615.61	-1745.11	  361.29
    122.2700	  618.00	  618.69	-1754.19	  361.53
    122.3700	  559.00	  621.62	-1816.12	  361.79
    122.4700	  657.00	  624.27	-1720.77	  362.05
    122.5700	  637.00	  626.58	-1743.08	  362.32
    122.6700	  672.00	  628.44	-1709.94	  362.59
    122.7700	  651.00	  629.77	-1732.27	  362.87
    122.8700	  632.00	  630.52	-1752.02	  363.16
    122.9700	  654.00	  630.66	-1730.16	  363.45
    123.0700	  634.00	  630.19	-1749.69	  363.76
    123.1700	  657.00	  629.12	-1725.62	  364.06
    123.2700	  662.00	  627.50	-1719.00	  364.38
    123.3700	  661.00	  625.39	-1717.89	  364.70
    123.4700	  660.00	  622.84	-1716.34	  365.03
    123.5700	  635.00	  619.94	-1738.44	  365.37
    123.6700	  670.00	  616.75	-1700.25	  365.71
    123.7700	  623.00	  613.35	-1743.85	  366.07
    123.8700	  660.00	  609.82	-1703.32	  366.43
    123.9700	  626.00	  606.22	-1733.72	  366.79
    124.0700	  659.00	  602.61	-1697.11	  367.17
    124.1700	  617.00	  599.05	-1735.55	  367.55
    124.2700	  624.00	  595.58	-1725.08	  367.94
    124.3700	  624.00	  592.25	-1721.75	  368.33
    124.4700	  562.00	  589.09	-1780.59	  368.74
    124.5700	  603.00	  586.12	-1736.62	  369.15
    124.6700	  580.00	  583.36	-1756.86	  369.57
    124.7700	  593.00	  580.82	-1741.32	  370.00
    124.8700	  550.00	  578.52	-1782.02	  370.44
    124.9700	  570.00	  489.56	-1673.06	  370.88
    125.0700	  581.00	  490.01	-1753.50	  371.33
    125.1700	  559.00	  490.47	-1753.50	  371.79
    125.2700	  568.00	  490.94	-1753.50	  372.26
    125.3700	  588.00	  491.42	-1753.50	  372.74
    125.4700	  611.00	  491.90	-1753.50	  373.22
    125.5700	  591.00	  492.40	-1753.50	  373.72
    125.6700	  553.00	  492.90	-1753.50	  374.22
    125.7700	  558.00	  493.41	-1753.50	  374.73
    125.8700	  591.00	  493.93	-1753.50	  375.25
    125.9700	  569.00	  494.46	-1753.50	  375.78
    126.0700	  541.00	  494.99	-1753.50	  376.31
    126.1700	  580.00	  495.54	-1753.50	  376.86
    126.2700	  556.00	  496.09	-1753.50	  377.41
    126.3700	  563.00	  496.66	-1753.50	  377.98
    126.4700	  597.00	  497.23	-1753.50	  378.55
    126.5700	  625.00	  497.81	-1753.50	  379.13
    126.6700	  665.00	  498.40	-1753.50	  379.72
    126.7700	  582.00	  499.00	-1753.50	  380.32
    126.8700	  647.00	  499.61	-1753.50	  380.93
    126.9700	  636.00	  500.23	-1753.50	  381.55
    127.0700	  672.00	  500.85	-1753.50	  382.18
    127.1700	  659.00	  501.49	-1753.50	  382.81
    127.2700	  636.00	  502.14	-1753.50	  383.46
    127.3700	  612.00	  502.79	-1753.50	  384.11
    127.4700	  639.00	  503.46	-1753.50	  384.78
    127.5700	  698.00	  504.13	-1753.50	  385.46
    127.6700	  668.00	  504.82	-1753.50	  386.14
    127.7700	  664.00	  505.51	-1753.50	  386.84
    127.8700	  755.00	  506.22	-1753.50	  387.54
    127.9700	  732.00	  506.93	-1753.50	  388.26
    128.0700	  783.00	  507.66	-1753.50	  388.98
    128.1700	  795.00	  508.39	-1753.50	  389.71
    128.2700	  775.00	  509.14	-1753.50	  390.46
    128.3700	  752.00	  509.89	-1753.50	  391.22
    128.4700	  857.00	  510.66	-1753.50	  391.98
    128.5700	    0.00	  511.44	-1753.50	  392.76
    128.6700	    1.00	  512.22	-1753.50	  393.54
     12.3051	        	        	        	        	       0	(  0  0  2)	  0  1
     24.8870	        	        	        	        	       0	(  0  0  4)	  0  1
     28.3308	        	        	        	        	       0	(  1  0  0)	  0  1
     29.0279	        	        	        	        	       0	(  1  0  1)	  0  1
     31.0338	        	        	        	        	       0	(  1  0  2)	  0  1
     34.1416	        	        	        	        	       0	(  1  0  3)	  0  1
     37.7848	        	        	        	        	       0	(  0  0  6)	  0  1
     38.1180	        	        	        	        	       0	(  1  0  4)	  0  1
     42.7674	        	        	        	        	       0	(  1  0  5)	  0  1
     47.9506	        	        	        	        	       0	(  1  0  6)	  0  1
     50.2673	        	        	        	        	       0	(  1  1  0)	  0  1
     51.2046	        	        	        	        	       0	(  0  0  8)	  0  1
     51.9900	        	        	        	        	       0	(  1  1  2)	  0  1
     53.5801	        	        	        	        	       0	(  1  0  7)	  0  1
     56.9369	        	        	        	        	       0	(  1  1  4)	  0  1
     58.7641	        	        	        	        	       0	(  2  0  0)	  0  1
     59.1556	        	        	        	        	       0	(  2  0  1)	  0  1
     59.6095	        	        	        	        	       0	(  1  0  8)	  0  1
     60.3208	        	        	        	        	       0	(  2  0  2)	  0  1
     62.2336	        	        	        	        	       0	(  2  0  3)	  0  1
     64.6302	        	        	        	        	       0	(  1  1  6)	  0  1
     64.8572	        	        	        	        	       0	(  2  0  4)	  0  1
     65.4313	        	        	        	        	       0	(  0  0 10)	  0  1
     66.0246	        	        	        	        	       0	(  1  0  9)	  0  1
     68.1508	        	        	        	        	       0	(  2  0  5)	  0  1
     72.0775	        	        	        	        	       0	(  2  0  6)	  0  1
     72.8394	        	        	        	        	       0	(  1  0 10)	  0  1
     74.6659	        	        	        	        	       0	(  1  1  8)	  0  1
     76.6106	        	        	        	        	       0	(  2  0  7)	  0  1
     80.0955	        	        	        	        	       0	(  1  0 11)	  0  1
     80.9085	        	        	        	        	       0	(  0  0 12)	  0  1
     81.0047	        	        	        	        	       0	(  2  1  0)	  0  1
     81.3445	        	        	        	        	       0	(  2  1  1)	  0  1
     81.7398	        	        	        	        	       0	(  2  0  8)	  0  1
     82.3622	        	        	        	        	       0	(  2  1  2)	  0  1
     84.0531	        	        	        	        	       0	(  2  1  3)	  0  1
     86.4122	        	        	        	        	       0	(  2  1  4)	  0  1
     86.9345	        	        	        	        	       0	(  1  1 10)	  0  1
     87.4765	        	        	        	        	       0	(  2  0  9)	  0  1
     87.8679	        	        	        	        	       0	(  1  0 12)	  0  1
     89.4373	        	        	        	        	       0	(  2  1  5)	  0  1
     93.1339	        	        	        	        	       0	(  2  1  6)	  0  1
     93.8624	        	        	        	        	       0	(  2  0 10)	  0  1
     94.8931	        	        	        	        	       0	(  3  0  0)	  0  1
     95.2304	        	        	        	        	       0	(  3  0  1)	  0  1
     96.2434	        	        	        	        	       0	(  3  0  2)	  0  1
     96.2789	        	        	        	        	       0	(  1  0 13)	  0  1
     97.5214	        	        	        	        	       0	(  2  1  7)	  0  1
     97.9363	        	        	        	        	       0	(  3  0  3)	  0  1
     98.4432	        	        	        	        	       0	(  0  0 14)	  0  1
    100.3187	        	        	        	        	       0	(  3  0  4)	  0  1
    100.9823	        	        	        	        	       0	(  2  0 11)	  0  1
    101.8010	        	        	        	        	       0	(  1  1 12)	  0  1
    102.6425	        	        	        	        	       0	(  2  1  8)	  0  1
    103.4096	        	        	        	        	       0	(  3  0  5)	  0  1
    105.5287	        	        	        	        	       0	(  1  0 14)	  0  1
    107.2437	        	        	        	        	       0	(  3  0  6)	  0  1
    108.5777	        	        	        	        	       0	(  2  1  9)	  0  1
    108.9911	        	        	        	        	       0	(  2  0 12)	  0  1
    111.8827	        	        	        	        	       0	(  3  0  7)	  0  1
    115.4724	        	        	        	        	       0	(  2  1 10)	  0  1
    115.9683	        	        	        	        	       0	(  1  0 15)	  0  1
    116.6174	        	        	        	        	       0	(  2  2  0)	  0  1
    117.4344	        	        	        	        	       0	(  3  0  8)	  0  1
    118.1321	        	        	        	        	       0	(  2  2  2)	  0  1
    118.1722	        	        	        	        	       0	(  2  0 13)	  0  1
    119.9237	        	        	        	        	       0	(  0  0 16)	  0  1
    120.6385	        	        	        	        	       0	(  1  1 14)	  0  1
    122.8163	        	        	        	        	       0	(  2  2  4)	  0  1
    123.5965	        	        	        	        	       0	(  2  1 11)	  0  1
    124.0922	        	        	        	        	       0	(  3  0  9)	  0  1
    124.6822	        	        	        	        	       0	(  3  1  0)	  0  1
    125.0923	        	        	        	        	       0	(  3  1  1)	  0  1
    126.3354	        	        	        	        	       0	(  3  1  2)	  0  1
    128.3061	        	        	        	        	       0	(  1  0 16)	  0  1
    128.4530	        	        	        	        	       0	(  3  1  3)	  0  1
    129.0976	        	        	        	        	       0	(  2  0 14)	  0  1
    131.2536	        	        	        	        	       0	(  2  2  6)	  0  1
    131.5280	        	        	        	        	       0	(  3  1  4)	  0  1
    132.2298	        	        	        	        	       0	(  3  0 10)	  0  1
    133.5048	        	        	        	        	       0	(  2  1 12)	  0  1
    135.7137	        	        	        	        	       0	(  3  1  5)	  0  1
    141.3072	        	        	        	        	       0	(  3  1  6)	  0  1
    142.7040	        	        	        	        	       0	(  3  0 11)	  0  1
    143.2302	        	        	        	        	       0	(  2  0 15)	  0  1
    144.4663	        	        	        	        	       0	(  1  0 17)	  0  1
    145.4823	        	        	        	        	       0	(  2  2  8)	  0  1
    146.6539	        	        	        	        	       0	(  2  1 13)	  0  1
    148.9774	        	        	        	        	       0	(  3  1  7)	  0  1
    149.5589	        	        	        	        	       0	(  1  1 16)	  0  1
    153.9536	        	        	        	        	       0	(  0  0 18)	  0  1
    158.5733	        	        	        	        	       0	(  3  0 12)	  0  1
    158.8366	        	        	        	        	       0	(  4  0  0)	  0  1
    159.7931	        	        	        	        	       0	(  4  0  1)	  0  1
    160.9651	        	        	        	        	       0	(  3  1  8)	  0  1
    162.9707	        	        	        	        	       0	(  4  0  2)	  0  1
    169.6447	        	        	        	        	       0	(  2  0 16)	  0  1
    170.3139	        	        	        	        	       0	(  4  0  3)	  0  1
    174.0664	        	        	        	        	       0	(  2  1 14)	  0  1
