MSG Master    CELL:    5.89504   5.89504  23.16461   90.0000   90.0000  120.0000   SPGR: P 63/m m c             TEMP:    713.35
  2   1280     2.52000     0.00000    -0.11333     0.00000     0.00000    0
    96    96     0     0     2
       0.00000      10.00000
     125.00000     130.00000
 2Theta	Yobs	Ycal	Yobs-Ycal	Backg	Posr	(hkl)	K
      0.7700	    0.00	  582.39	-1809.05	  466.69
      0.8700	    0.00	  583.51	-1809.05	  467.82
      0.9700	   36.00	  584.62	-1809.05	  468.92
      1.0700	   57.00	  585.71	-1809.05	  470.02
      1.1700	   37.00	  586.79	-1809.05	  471.10
      1.2700	   50.00	  587.86	-1809.05	  472.16
      1.3700	   50.00	  588.91	-1809.05	  473.21
      1.4700	   92.00	  589.94	-1809.05	  474.25
      1.5700	  285.00	  590.96	-1809.05	  475.27
      1.6700	  430.00	  591.97	-1809.05	  476.27
      1.7700	  565.00	  592.96	-1809.05	  477.27
      1.8700	  652.00	  593.94	-1809.05	  478.25
      1.9700	  720.00	  594.91	-1809.05	  479.21
      2.0700	  735.00	  595.86	-1809.05	  480.16
      2.1700	  841.00	  596.80	-1809.05	  481.10
      2.2700	  762.00	  597.72	-1809.05	  482.02
      2.3700	  773.00	  598.63	-1809.05	  482.93
      2.4700	  729.00	  599.53	-1809.05	  483.83
      2.5700	  701.00	  600.41	-1809.05	  484.71
      2.6700	  677.00	  601.28	-1809.05	  485.58
      2.7700	  664.00	  602.14	-1809.05	  486.44
      2.8700	  645.00	  602.98	-1809.05	  487.28
      2.9700	  688.00	  603.81	-1809.05	  488.11
      3.0700	  580.00	  604.63	-1809.05	  488.93
      3.1700	  607.00	  605.43	-1809.05	  489.74
      3.2700	  692.00	  606.22	-1809.05	  490.53
      3.3700	  921.00	  607.00	-1809.05	  491.31
      3.4700	  968.00	  607.77	-1809.05	  492.07
      3.5700	 1141.00	  608.52	-1809.05	  492.83
      3.6700	 1259.00	  609.27	-1809.05	  493.57
      3.7700	 1384.00	  610.00	-1809.05	  494.30
      3.8700	 1383.00	  610.71	-1809.05	  495.02
      3.9700	 1564.00	  611.42	-1809.05	  495.72
      4.0700	 1597.00	  612.11	-1809.05	  496.42
      4.1700	 1603.00	  612.79	-1809.05	  497.10
      4.2700	 1602.00	  613.46	-1809.05	  497.77
      4.3700	 1572.00	  614.12	-1809.05	  498.42
      4.4700	 1491.00	  614.76	-1809.05	  499.07
      4.5700	 1479.00	  615.40	-1809.05	  499.70
      4.6700	 1388.00	  616.02	-1809.05	  500.32
      4.7700	 1445.00	  616.63	-1809.05	  500.94
      4.8700	 1295.00	  617.23	-1809.05	  501.53
      4.9700	 1297.00	  617.82	-1809.05	  502.12
      5.0700	 1207.00	  618.39	-1809.05	  502.70
      5.1700	 1239.00	  618.96	-1809.05	  503.27
      5.2700	 1195.00	  619.52	-1809.05	  503.82
      5.3700	 1149.00	  620.06	-1809.05	  504.36
      5.4700	 1131.00	  620.59	-1809.05	  504.90
      5.5700	 1070.00	  621.11	-1809.05	  505.42
      5.6700	 1098.00	  621.62	-1809.05	  505.93
      5.7700	 1051.00	  622.12	-1809.05	  506.43
      5.8700	 1059.00	  622.61	-1809.05	  506.92
      5.9700	  981.00	  623.09	-1809.05	  507.40
      6.0700	  965.00	  623.56	-1809.05	  507.87
      6.1700	  980.00	  624.02	-1809.05	  508.33
      6.2700	 1030.00	  624.47	-1809.05	  508.77
      6.3700	  927.00	  624.91	-1809.05	  509.21
      6.4700	  964.00	  625.34	-1809.05	  509.64
      6.5700	  893.00	  625.75	-1809.05	  510.06
      6.6700	  898.00	  626.16	-1809.05	  510.47
      6.7700	  855.00	  626.56	-1809.05	  510.86
      6.8700	  848.00	  626.95	-1809.05	  511.25
      6.9700	  866.00	  627.33	-1809.05	  511.63
      7.0700	  864.00	  627.69	-1809.05	  512.00
      7.1700	  767.00	  628.05	-1809.05	  512.36
      7.2700	  765.00	  628.40	-1809.05	  512.71
      7.3700	  767.00	  628.74	-1809.05	  513.05
      7.4700	  717.00	  629.07	-1809.05	  513.38
      7.5700	  828.00	  629.40	-1809.05	  513.70
      7.6700	  763.00	  629.71	-1809.05	  514.01
      7.7700	  779.00	  630.01	-1809.05	  514.32
      7.8700	  812.00	  630.31	-1809.05	  514.61
      7.9700	  738.00	  630.59	-1809.05	  514.90
      8.0700	  769.00	  630.87	-1809.05	  515.17
      8.1700	  724.00	  631.13	-1809.05	  515.44
      8.2700	  712.00	  631.39	-1809.05	  515.70
      8.3700	  736.00	  631.64	-1809.05	  515.95
      8.4700	  713.00	  631.88	-1809.05	  516.19
      8.5700	  742.00	  632.12	-1809.05	  516.42
      8.6700	  722.00	  632.34	-1809.05	  516.64
      8.7700	  727.00	  632.56	-1809.05	  516.86
      8.8700	  629.00	  632.76	-1809.05	  517.07
      8.9700	  724.00	  632.96	-1809.05	  517.27
      9.0700	  661.00	  633.15	-1809.05	  517.46
      9.1700	  707.00	  633.34	-1809.05	  517.64
      9.2700	  707.00	  633.51	-1809.05	  517.81
      9.3700	  667.00	  633.68	-1809.05	  517.98
      9.4700	  673.00	  633.84	-1809.05	  518.14
      9.5700	  678.00	  633.99	-1809.05	  518.29
      9.6700	  698.00	  634.13	-1809.05	  518.43
      9.7700	  721.00	  634.26	-1809.05	  518.57
      9.8700	  701.00	  634.39	-1809.05	  518.70
      9.9700	  636.00	  634.51	-1809.05	  518.82
     10.0700	  681.00	  636.85	-1764.89	  518.93
     10.1700	  630.00	  637.21	-1816.25	  519.03
     10.2700	  633.00	  637.61	-1813.66	  519.13
     10.3700	  698.00	  638.09	-1749.13	  519.22
     10.4700	  667.00	  638.66	-1780.71	  519.30
     10.5700	  666.00	  639.40	-1782.44	  519.38
     10.6700	  672.00	  640.37	-1777.42	  519.45
     10.7700	  670.00	  641.68	-1780.72	  519.51
     10.8700	  678.00	  643.42	-1774.47	  519.57
     10.9700	  660.00	  645.66	-1794.71	  519.61
     11.0700	  694.00	  648.43	-1763.48	  519.65
     11.1700	  666.00	  651.73	-1794.78	  519.69
     11.2700	  739.00	  655.61	-1725.66	  519.71
     11.3700	  689.00	  660.13	-1780.18	  519.73
     11.4700	  659.00	  665.44	-1815.48	  519.75
     11.5700	  674.00	  671.72	-1806.77	  519.76
     11.6700	  634.00	  679.28	-1854.33	  519.76
     11.7700	  712.00	  688.47	-1785.52	  519.75
     11.8700	  782.00	  699.55	-1726.59	  519.74
     11.9700	  750.00	  712.30	-1771.35	  519.72
     12.0700	  733.00	  725.51	-1801.56	  519.70
     12.1700	  737.00	  736.28	-1808.33	  519.66
     12.2700	  801.00	  739.71	-1747.76	  519.63
     12.3700	  786.00	  731.08	-1754.13	  519.58
     12.4700	  757.00	  712.08	-1764.13	  519.53
     12.5700	  646.00	  690.84	-1853.89	  519.48
     12.6700	  660.00	  673.32	-1822.36	  519.42
     12.7700	  623.00	  660.93	-1846.97	  519.35
     12.8700	  641.00	  652.90	-1820.95	  519.28
     12.9700	  619.00	  647.95	-1837.99	  519.20
     13.0700	  706.00	  644.81	-1747.86	  519.12
     13.1700	  669.00	  642.73	-1782.78	  519.03
     13.2700	  636.00	  641.24	-1814.29	  518.93
     13.3700	  605.00	  640.11	-1844.15	  518.83
     13.4700	  616.00	  639.20	-1832.25	  518.73
     13.5700	  598.00	  638.45	-1849.50	  518.61
     13.6700	  585.00	  637.82	-1861.87	  518.50
     13.7700	  634.00	  637.28	-1812.33	  518.37
     13.8700	  596.00	  636.81	-1849.85	  518.25
     13.9700	  660.00	  636.38	-1785.43	  518.11
     14.0700	  636.00	  636.00	-1809.04	  517.98
     14.1700	  633.00	  635.64	-1811.69	  517.83
     14.2700	  620.00	  635.31	-1824.36	  517.69
     14.3700	  583.00	  635.00	-1861.05	  517.53
     14.4700	  610.00	  634.71	-1833.76	  517.38
     14.5700	  599.00	  634.43	-1844.47	  517.22
     14.6700	  631.00	  634.15	-1812.20	  517.05
     14.7700	  641.00	  633.89	-1801.93	  516.88
     14.8700	  596.00	  633.63	-1846.67	  516.70
     14.9700	  652.00	  633.37	-1790.42	  516.52
     15.0700	  615.00	  633.12	-1827.17	  516.33
     15.1700	  598.00	  632.87	-1843.92	  516.14
     15.2700	  615.00	  632.62	-1826.67	  515.95
     15.3700	  638.00	  632.37	-1803.42	  515.75
     15.4700	  591.00	  632.12	-1850.17	  515.55
     15.5700	  606.00	  631.88	-1834.92	  515.34
     15.6700	  622.00	  631.63	-1818.67	  515.13
     15.7700	  601.00	  631.38	-1839.42	  514.91
     15.8700	  632.00	  631.12	-1808.17	  514.69
     15.9700	  632.00	  630.87	-1807.92	  514.47
     16.0700	  632.00	  630.62	-1807.66	  514.24
     16.1700	  609.00	  630.36	-1830.41	  514.01
     16.2700	  612.00	  630.10	-1827.15	  513.77
     16.3700	  648.00	  629.84	-1790.89	  513.53
     16.4700	  614.00	  629.58	-1824.62	  513.29
     16.5700	  632.00	  629.31	-1806.36	  513.04
     16.6700	  590.00	  629.05	-1848.09	  512.79
     16.7700	  610.00	  628.77	-1827.82	  512.53
     16.8700	  621.00	  628.50	-1816.55	  512.27
     16.9700	  648.00	  628.23	-1789.27	  512.01
     17.0700	  611.00	  627.95	-1826.00	  511.75
     17.1700	  639.00	  627.67	-1797.71	  511.48
     17.2700	  613.00	  627.39	-1823.43	  511.20
     17.3700	  544.00	  627.10	-1892.15	  510.93
     17.4700	  594.00	  626.81	-1841.86	  510.65
     17.5700	  624.00	  626.52	-1811.57	  510.36
     17.6700	  637.00	  626.23	-1798.27	  510.08
     17.7700	  573.00	  626.46	-1862.51	  509.79
     17.8700	  631.00	  626.17	-1804.22	  509.50
     17.9700	  627.00	  625.88	-1807.93	  509.20
     18.0700	  578.00	  625.95	-1857.00	  508.90
     18.1700	  611.00	  625.66	-1823.71	  508.60
     18.2700	  623.00	  625.37	-1811.42	  508.29
     18.3700	  570.00	  625.08	-1864.13	  507.99
     18.4700	  620.00	  624.79	-1813.83	  507.68
     18.5700	  631.00	  624.49	-1802.54	  507.36
     18.6700	  611.00	  624.19	-1822.24	  507.05
     18.7700	  612.00	  623.89	-1820.94	  506.73
     18.8700	  626.00	  623.59	-1806.64	  506.40
     18.9700	  597.00	  623.29	-1835.33	  506.08
     19.0700	  583.00	  622.98	-1849.03	  505.75
     19.1700	  592.00	  622.68	-1839.72	  505.42
     19.2700	  607.00	  622.37	-1824.42	  505.09
     19.3700	  588.00	  622.06	-1843.11	  504.76
     19.4700	  601.00	  621.82	-1829.86	  504.42
     19.5700	  583.00	  621.51	-1847.55	  504.08
     19.6700	  611.00	  621.19	-1819.24	  503.74
     19.7700	  588.00	  620.88	-1841.93	  503.39
     19.8700	  598.00	  620.57	-1831.62	  503.04
     19.9700	  594.00	  620.26	-1835.30	  502.69
     20.0700	  633.00	  619.94	-1795.99	  502.34
     20.1700	  613.00	  619.63	-1815.68	  501.99
     20.2700	  614.00	  619.32	-1814.36	  501.63
     20.3700	  610.00	  619.00	-1818.05	  501.28
     20.4700	  544.00	  618.69	-1883.73	  500.92
     20.5700	  624.00	  618.37	-1803.42	  500.55
     20.6700	  605.00	  618.06	-1822.11	  500.19
     20.7700	  581.00	  617.75	-1845.79	  499.82
     20.8700	  621.00	  617.43	-1805.48	  499.46
     20.9700	  656.00	  617.12	-1770.17	  499.09
     21.0700	  636.00	  616.81	-1789.86	  498.71
     21.1700	  613.00	  616.50	-1812.55	  498.34
     21.2700	  607.00	  616.20	-1818.24	  497.96
     21.3700	  643.00	  615.89	-1781.94	  497.59
     21.4700	  613.00	  615.59	-1811.64	  497.21
     21.5700	  636.00	  615.29	-1788.34	  496.83
     21.6700	  618.00	  614.99	-1806.04	  496.45
     21.7700	  608.00	  614.70	-1815.75	  496.06
     21.8700	  617.00	  614.58	-1806.63	  495.68
     21.9700	  665.00	  614.30	-1758.35	  495.29
     22.0700	  618.00	  614.02	-1805.07	  494.90
     22.1700	  578.00	  613.75	-1844.80	  494.51
     22.2700	  653.00	  613.49	-1769.54	  494.12
     22.3700	  611.00	  613.23	-1811.28	  493.73
     22.4700	  608.00	  612.99	-1814.04	  493.34
     22.5700	  588.00	  612.75	-1833.80	  492.94
     22.6700	  564.00	  612.53	-1857.58	  492.55
     22.7700	  606.00	  612.32	-1815.37	  492.15
     22.8700	  648.00	  612.13	-1773.18	  491.75
     22.9700	  591.00	  611.96	-1830.01	  491.35
     23.0700	  610.00	  611.81	-1810.86	  490.95
     23.1700	  622.00	  611.69	-1798.74	  490.55
     23.2700	  627.00	  611.61	-1793.65	  490.14
     23.3700	  578.00	  611.57	-1842.61	  489.74
     23.4700	  613.00	  611.58	-1807.63	  489.34
     23.5700	  611.00	  611.66	-1809.71	  488.93
     23.6700	  612.00	  611.84	-1808.89	  488.52
     23.7700	  646.00	  612.15	-1775.20	  488.11
     23.8700	  562.00	  612.61	-1859.65	  487.71
     23.9700	  610.00	  613.43	-1812.48	  487.30
     24.0700	  634.00	  614.76	-1789.81	  486.89
     24.1700	  626.00	  616.89	-1799.93	  486.47
     24.2700	  646.00	  620.19	-1783.24	  486.06
     24.3700	  620.00	  625.15	-1814.20	  485.65
     24.4700	  648.00	  632.13	-1793.17	  485.24
     24.5700	  631.00	  641.15	-1819.20	  484.82
     24.6700	  644.00	  651.66	-1816.71	  484.41
     24.7700	  685.00	  662.12	-1786.16	  483.99
     24.8700	  693.00	  669.61	-1785.66	  483.58
     24.9700	  718.00	  670.34	-1761.39	  483.16
     25.0700	  653.00	  662.70	-1818.75	  482.74
     25.1700	  661.00	  650.24	-1798.28	  482.33
     25.2700	  715.00	  638.02	-1732.07	  481.91
     25.3700	  669.00	  628.53	-1768.58	  481.49
     25.4700	  689.00	  622.09	-1742.14	  481.07
     25.5700	  641.00	  618.12	-1786.17	  480.65
     25.6700	  663.00	  615.88	-1761.92	  480.23
     25.7700	  687.00	  614.71	-1736.75	  479.81
     25.8700	  624.00	  614.20	-1799.25	  479.40
     25.9700	  635.00	  614.14	-1788.19	  478.98
     26.0700	  637.00	  614.41	-1786.45	  478.55
     26.1700	  609.00	  614.96	-1815.01	  478.13
     26.2700	  621.00	  615.80	-1803.85	  477.71
     26.3700	  677.00	  616.94	-1748.99	  477.29
     26.4700	  623.00	  618.41	-1804.45	  476.87
     26.5700	  662.00	  620.25	-1767.30	  476.45
     26.6700	  673.00	  622.53	-1758.58	  476.03
     26.7700	  687.00	  625.36	-1747.40	  475.61
     26.8700	  744.00	  628.84	-1693.89	  475.19
     26.9700	  672.00	  633.17	-1770.22	  474.77
     27.0700	  663.00	  638.59	-1784.64	  474.35
     27.1700	  734.00	  645.48	-1720.53	  473.92
     27.2700	  690.00	  654.45	-1773.49	  473.50
     27.3700	  698.00	  666.60	-1777.65	  473.08
     27.4700	  747.00	  684.09	-1746.14	  472.66
     27.5700	  743.00	  711.05	-1777.10	  472.24
     27.6700	  750.00	  754.90	-1813.95	  471.82
     27.7700	  827.00	  827.57	-1809.61	  471.40
     27.8700	  849.00	  945.16	-1905.20	  470.98
     27.9700	  982.00	 1123.11	-1950.16	  470.56
     28.0700	 1229.00	 1365.85	-1945.89	  470.14
     28.1700	 1597.00	 1653.05	-1865.10	  469.72
     28.2700	 2060.00	 1926.53	-1675.58	  469.31
     28.3700	 2298.00	 2087.64	-1598.69	  468.89
     28.4700	 2236.00	 2045.54	-1618.58	  468.47
     28.5700	 1882.00	 1841.66	-1768.70	  468.05
     28.6700	 1545.00	 1634.29	-1898.34	  467.63
     28.7700	 1356.00	 1528.04	-1981.09	  467.22
     28.8700	 1419.00	 1532.87	-1922.91	  466.80
     28.9700	 1542.00	 1594.98	-1862.02	  466.39
     29.0700	 1662.00	 1624.51	-1771.56	  465.97
     29.1700	 1607.00	 1540.20	-1742.24	  465.56
     29.2700	 1463.00	 1347.42	-1693.46	  465.14
     29.3700	 1088.00	 1129.96	-1851.01	  464.73
     29.4700	  959.00	  950.45	-1800.49	  464.31
     29.5700	  812.00	  825.77	-1822.82	  463.90
     29.6700	  822.00	  748.42	-1735.47	  463.49
     29.7700	  804.00	  703.24	-1708.29	  463.08
     29.8700	  723.00	  676.72	-1762.77	  462.67
     29.9700	  728.00	  660.19	-1741.23	  462.26
     30.0700	  726.00	  649.17	-1732.21	  461.85
     30.1700	  692.00	  641.72	-1758.77	  461.44
     30.2700	  740.00	  637.26	-1706.30	  461.03
     30.3700	  665.00	  635.98	-1780.03	  460.63
     30.4700	  716.00	  638.81	-1731.86	  460.22
     30.5700	  651.00	  647.22	-1805.26	  459.81
     30.6700	  660.00	  662.74	-1811.78	  459.41
     30.7700	  716.00	  685.76	-1778.81	  459.01
     30.8700	  704.00	  714.04	-1819.08	  458.60
     30.9700	  731.00	  741.43	-1819.48	  458.20
     31.0700	  738.00	  757.65	-1828.70	  457.80
     31.1700	  747.00	  751.96	-1814.00	  457.40
     31.2700	  724.00	  724.33	-1809.38	  457.00
     31.3700	  670.00	  688.11	-1827.15	  456.60
     31.4700	  701.00	  655.55	-1763.60	  456.21
     31.5700	  610.00	  631.33	-1830.37	  455.81
     31.6700	  622.00	  615.31	-1802.36	  455.41
     31.7700	  634.00	  605.45	-1780.49	  455.02
     31.8700	  664.00	  599.48	-1744.52	  454.63
     31.9700	  610.00	  595.71	-1794.76	  454.23
     32.0700	  607.00	  593.16	-1795.21	  453.84
     32.1700	  622.00	  591.33	-1778.38	  453.45
     32.2700	  597.00	  589.99	-1802.04	  453.06
     32.3700	  606.00	  589.04	-1792.08	  452.67
     32.4700	  629.00	  588.42	-1768.46	  452.29
     32.5700	  602.00	  588.11	-1795.16	  451.90
     32.6700	  638.00	  588.17	-1759.21	  451.52
     32.7700	  644.00	  588.54	-1753.59	  451.13
     32.8700	  582.00	  589.32	-1816.36	  450.75
     32.9700	  619.00	  590.60	-1780.64	  450.37
     33.0700	  592.00	  592.53	-1809.57	  449.99
     33.1700	  620.00	  595.40	-1784.44	  449.61
     33.2700	  584.00	  599.73	-1824.78	  449.23
     33.3700	  591.00	  606.56	-1824.61	  448.86
     33.4700	  556.00	  617.75	-1870.79	  448.48
     33.5700	  648.00	  636.36	-1797.41	  448.11
     33.6700	  667.00	  666.71	-1808.76	  447.74
     33.7700	  761.00	  713.45	-1761.50	  447.37
     33.8700	  747.00	  779.04	-1841.09	  447.00
     33.9700	  897.00	  859.79	-1771.83	  446.63
     34.0700	 1028.00	  942.25	-1723.29	  446.26
     34.1700	 1094.00	 1002.01	-1717.05	  445.89
     34.2700	 1132.00	 1010.28	-1687.32	  445.53
     34.3700	 1043.00	  957.62	-1723.67	  445.17
     34.4700	  857.00	  870.02	-1822.07	  444.80
     34.5700	  776.00	  781.66	-1814.71	  444.44
     34.6700	  707.00	  710.51	-1812.56	  444.09
     34.7700	  615.00	  660.42	-1854.47	  443.73
     34.8700	  671.00	  628.28	-1766.33	  443.37
     34.9700	  629.00	  608.70	-1788.75	  443.02
     35.0700	  646.00	  596.78	-1759.83	  442.66
     35.1700	  576.00	  589.13	-1822.18	  442.31
     35.2700	  595.00	  583.80	-1797.85	  441.96
     35.3700	  577.00	  579.80	-1811.85	  441.61
     35.4700	  576.00	  576.65	-1809.69	  441.27
     35.5700	  548.00	  574.07	-1835.12	  440.92
     35.6700	  567.00	  571.93	-1813.98	  440.58
     35.7700	  556.00	  570.12	-1823.17	  440.23
     35.8700	  585.00	  569.07	-1793.11	  439.89
     35.9700	  574.00	  567.73	-1802.78	  439.55
     36.0700	  536.00	  566.57	-1839.61	  439.21
     36.1700	  580.00	  565.55	-1794.59	  438.88
     36.2700	  560.00	  564.65	-1813.70	  438.54
     36.3700	  539.00	  563.86	-1833.91	  438.21
     36.4700	  546.00	  563.18	-1826.22	  437.88
     36.5700	  538.00	  562.58	-1833.63	  437.55
     36.6700	  492.00	  562.09	-1879.13	  437.22
     36.7700	  586.00	  561.69	-1784.74	  436.89
     36.8700	  557.00	  561.41	-1813.46	  436.57
     36.9700	  528.00	  561.45	-1842.50	  436.24
     37.0700	  564.00	  561.54	-1806.58	  435.92
     37.1700	  574.00	  561.94	-1796.98	  435.60
     37.2700	  533.00	  562.82	-1838.87	  435.28
     37.3700	  509.00	  564.43	-1864.48	  434.96
     37.4700	  535.00	  567.09	-1841.14	  434.65
     37.5700	  531.00	  571.15	-1849.20	  434.33
     37.6700	  539.00	  576.88	-1846.93	  434.02
     37.7700	  581.00	  584.25	-1812.29	  433.71
     37.8700	  591.00	  592.70	-1810.75	  433.40
     37.9700	  624.00	  601.10	-1786.14	  433.10
     38.0700	  553.00	  607.95	-1864.00	  432.79
     38.1700	  591.00	  611.50	-1829.54	  432.49
     38.2700	  596.00	  609.70	-1822.75	  432.19
     38.3700	  578.00	  602.06	-1833.11	  431.89
     38.4700	  568.00	  591.17	-1832.22	  431.59
     38.5700	  577.00	  580.23	-1812.28	  431.29
     38.6700	  572.00	  571.16	-1808.21	  431.00
     38.7700	  565.00	  564.45	-1808.50	  430.70
     38.8700	  554.00	  559.85	-1814.89	  430.41
     38.9700	  537.00	  556.82	-1828.87	  430.12
     39.0700	  507.00	  554.83	-1856.88	  429.83
     39.1700	  559.00	  553.46	-1803.51	  429.55
     39.2700	  560.00	  551.95	-1800.99	  429.26
     39.3700	  555.00	  551.15	-1805.19	  428.98
     39.4700	  531.00	  550.48	-1828.53	  428.70
     39.5700	  559.00	  549.90	-1799.95	  428.42
     39.6700	  572.00	  549.39	-1786.44	  428.14
     39.7700	  591.00	  548.94	-1766.99	  427.87
     39.8700	  562.00	  548.53	-1795.58	  427.59
     39.9700	  564.00	  548.16	-1793.21	  427.32
     40.0700	  544.00	  548.38	-1813.42	  427.05
     40.1700	  550.00	  548.08	-1807.12	  426.78
     40.2700	  504.00	  547.80	-1852.85	  426.52
     40.3700	  532.00	  547.21	-1824.26	  426.25
     40.4700	  528.00	  546.99	-1828.04	  425.99
     40.5700	  507.00	  546.81	-1848.85	  425.73
     40.6700	  504.00	  546.64	-1851.69	  425.47
     40.7700	  522.00	  546.51	-1833.56	  425.21
     40.8700	  537.00	  546.41	-1818.46	  424.96
     40.9700	  553.00	  546.34	-1802.39	  424.70
     41.0700	  524.00	  546.32	-1831.36	  424.45
     41.1700	  516.00	  546.34	-1839.39	  424.20
     41.2700	  556.00	  546.47	-1799.52	  423.95
     41.3700	  547.00	  546.62	-1808.67	  423.71
     41.4700	  544.00	  546.85	-1811.90	  423.46
     41.5700	  562.00	  547.19	-1794.24	  423.22
     41.6700	  535.00	  547.68	-1821.72	  422.98
     41.7700	  504.00	  548.37	-1853.42	  422.74
     41.8700	  541.00	  549.39	-1817.44	  422.51
     41.9700	  553.00	  550.95	-1807.00	  422.27
     42.0700	  582.00	  553.45	-1780.49	  422.04
     42.1700	  546.00	  557.56	-1820.60	  421.81
     42.2700	  538.00	  564.13	-1835.17	  421.58
     42.3700	  529.00	  574.02	-1854.07	  421.35
     42.4700	  571.00	  588.15	-1826.20	  421.12
     42.5700	  621.00	  606.53	-1794.57	  420.90
     42.6700	  570.00	  627.66	-1866.71	  420.68
     42.7700	  608.00	  647.75	-1848.80	  420.46
     42.8700	  632.00	  660.76	-1837.80	  420.24
     42.9700	  641.00	  661.07	-1829.12	  420.02
     43.0700	  634.00	  647.84	-1822.89	  419.81
     43.1700	  602.00	  626.97	-1834.01	  419.59
     43.2700	  564.00	  605.15	-1850.19	  419.38
     43.3700	  559.00	  586.34	-1836.39	  419.18
     43.4700	  545.00	  571.96	-1836.01	  418.97
     43.5700	  511.00	  561.88	-1859.93	  418.76
     43.6700	  563.00	  555.26	-1801.31	  418.56
     43.7700	  555.00	  551.05	-1805.10	  418.36
     43.8700	  544.00	  548.37	-1813.41	  418.16
     43.9700	  533.00	  546.58	-1822.63	  417.96
     44.0700	  555.00	  545.32	-1799.37	  417.76
     44.1700	  561.00	  544.58	-1792.62	  417.57
     44.2700	  557.00	  543.83	-1795.88	  417.38
     44.3700	  543.00	  543.23	-1809.28	  417.19
     44.4700	  555.00	  542.74	-1796.79	  417.00
     44.5700	  534.00	  542.34	-1817.39	  416.81
     44.6700	  590.00	  542.01	-1761.06	  416.63
     44.7700	  528.00	  541.74	-1822.79	  416.44
     44.8700	  546.00	  541.52	-1804.57	  416.26
     44.9700	  532.00	  541.35	-1818.40	  416.08
     45.0700	  534.00	  541.22	-1816.27	  415.91
     45.1700	  554.00	  541.14	-1796.19	  415.73
     45.2700	  569.00	  541.18	-1781.22	  415.56
     45.3700	  572.00	  541.16	-1778.20	  415.39
     45.4700	  571.00	  541.17	-1779.21	  415.22
     45.5700	  569.00	  541.21	-1781.26	  415.05
     45.6700	  599.00	  541.30	-1751.34	  414.88
     45.7700	  585.00	  541.47	-1765.52	  414.72
     45.8700	  542.00	  541.62	-1808.67	  414.55
     45.9700	  568.00	  541.82	-1782.87	  414.39
     46.0700	  538.00	  542.06	-1813.11	  414.23
     46.1700	  531.00	  542.35	-1820.39	  414.08
     46.2700	  562.00	  542.69	-1789.74	  413.92
     46.3700	  569.00	  543.09	-1783.14	  413.77
     46.4700	  573.00	  543.57	-1779.61	  413.62
     46.5700	  542.00	  544.12	-1811.17	  413.47
     46.6700	  578.00	  544.61	-1775.66	  413.32
     46.7700	  521.00	  545.39	-1833.44	  413.17
     46.8700	  521.00	  546.34	-1834.38	  413.03
     46.9700	  563.00	  547.50	-1793.55	  412.88
     47.0700	  560.00	  549.01	-1798.05	  412.74
     47.1700	  539.00	  551.05	-1821.09	  412.60
     47.2700	  571.00	  553.95	-1792.00	  412.47
     47.3700	  558.00	  558.21	-1809.26	  412.33
     47.4700	  539.00	  564.44	-1834.49	  412.20
     47.5700	  515.00	  573.32	-1867.36	  412.06
     47.6700	  575.00	  585.29	-1819.33	  411.93
     47.7700	  573.00	  600.30	-1836.35	  411.80
     47.8700	  661.00	  617.32	-1765.36	  411.68
     47.9700	  689.00	  634.38	-1754.42	  411.55
     48.0700	  631.00	  646.63	-1824.67	  411.43
     48.1700	  637.00	  650.51	-1822.56	  411.31
     48.2700	  658.00	  644.94	-1795.99	  411.19
     48.3700	  633.00	  632.99	-1809.04	  411.07
     48.4700	  615.00	  619.21	-1813.26	  410.95
     48.5700	  574.00	  606.92	-1841.97	  410.84
     48.6700	  566.00	  597.79	-1840.83	  410.72
     48.7700	  589.00	  592.32	-1812.36	  410.61
     48.8700	  600.00	  590.36	-1799.41	  410.50
     48.9700	  590.00	  591.49	-1810.54	  410.39
     49.0700	  581.00	  595.32	-1823.37	  410.29
     49.1700	  620.00	  601.73	-1790.78	  410.18
     49.2700	  570.00	  611.14	-1850.19	  410.08
     49.3700	  606.00	  624.85	-1827.90	  409.98
     49.4700	  623.00	  645.78	-1831.83	  409.88
     49.5700	  622.00	  679.52	-1866.56	  409.78
     49.6700	  685.00	  735.46	-1859.51	  409.68
     49.7700	  757.00	  827.29	-1879.33	  409.59
     49.8700	  885.00	  971.07	-1895.12	  409.50
     49.9700	 1087.00	 1180.28	-1902.33	  409.41
     50.0700	 1455.00	 1457.41	-1811.46	  409.32
     50.1700	 1839.00	 1783.83	-1753.88	  409.23
     50.2700	 2135.00	 2110.63	-1784.68	  409.14
     50.3700	 2571.00	 2356.46	-1594.50	  409.06
     50.4700	 2634.00	 2431.23	-1606.28	  408.97
     50.5700	 2380.00	 2300.62	-1729.66	  408.89
     50.6700	 1967.00	 2021.13	-1863.18	  408.81
     50.7700	 1718.00	 1688.99	-1780.04	  408.73
     50.8700	 1326.00	 1378.80	-1861.85	  408.65
     50.9700	 1015.00	 1129.18	-1923.23	  408.58
     51.0700	  856.00	  950.45	-1903.50	  408.50
     51.1700	  780.00	  834.72	-1863.77	  408.43
     51.2700	  706.00	  765.23	-1868.28	  408.36
     51.3700	  694.00	  724.09	-1839.14	  408.29
     51.4700	  701.00	  697.02	-1805.06	  408.22
     51.5700	  659.00	  675.63	-1825.67	  408.16
     51.6700	  645.00	  656.88	-1820.93	  408.09
     51.7700	  668.00	  640.58	-1781.62	  408.03
     51.8700	  619.00	  627.02	-1817.07	  407.97
     51.9700	  585.00	  616.38	-1840.43	  407.91
     52.0700	  591.00	  608.49	-1826.54	  407.85
     52.1700	  644.00	  602.97	-1768.01	  407.79
     52.2700	  634.00	  599.38	-1774.43	  407.73
     52.3700	  619.00	  597.48	-1787.53	  407.68
     52.4700	  614.00	  597.25	-1792.29	  407.63
     52.5700	  610.00	  598.91	-1797.96	  407.57
     52.6700	  625.00	  603.04	-1787.09	  407.52
     52.7700	  648.00	  610.69	-1771.74	  407.48
     52.8700	  627.00	  623.62	-1805.67	  407.43
     52.9700	  689.00	  644.38	-1764.43	  407.38
     53.0700	  709.00	  676.23	-1776.28	  407.34
     53.1700	  713.00	  722.65	-1818.69	  407.29
     53.2700	  800.00	  786.14	-1795.19	  407.25
     53.3700	  863.00	  867.12	-1813.17	  407.21
     53.4700	  966.00	  961.96	-1805.01	  407.17
     53.5700	 1120.00	 1061.04	-1750.09	  407.14
     53.6700	 1198.00	 1147.06	-1758.10	  407.10
     53.7700	 1279.00	 1197.09	-1727.13	  407.06
     53.8700	 1214.00	 1193.31	-1788.36	  407.03
     53.9700	 1181.00	 1136.99	-1765.04	  407.00
     54.0700	 1083.00	 1047.76	-1773.80	  406.97
     54.1700	  914.00	  948.67	-1843.72	  406.94
     54.2700	  883.00	  855.99	-1782.04	  406.91
     54.3700	  764.00	  778.24	-1823.28	  406.88
     54.4700	  689.00	  718.22	-1838.27	  406.86
     54.5700	  647.00	  675.09	-1837.13	  406.83
     54.6700	  632.00	  645.97	-1823.01	  406.81
     54.7700	  593.00	  627.35	-1843.40	  406.79
     54.8700	  638.00	  616.03	-1787.08	  406.76
     54.9700	  625.00	  609.53	-1793.57	  406.74
     55.0700	  616.00	  606.18	-1799.23	  406.73
     55.1700	  587.00	  605.00	-1827.05	  406.71
     55.2700	  646.00	  605.44	-1768.49	  406.69
     55.3700	  560.00	  607.27	-1856.32	  406.68
     55.4700	  611.00	  610.43	-1808.47	  406.66
     55.5700	  585.00	  615.00	-1839.05	  406.65
     55.6700	  607.00	  621.22	-1823.26	  406.64
     55.7700	  659.00	  629.54	-1779.59	  406.63
     55.8700	  635.00	  640.83	-1814.88	  406.62
     55.9700	  709.00	  656.69	-1756.74	  406.61
     56.0700	  672.00	  679.95	-1816.99	  406.60
     56.1700	  700.00	  715.34	-1824.39	  406.60
     56.2700	  768.00	  769.98	-1811.03	  406.59
     56.3700	  841.00	  853.52	-1821.57	  406.59
     56.4700	  945.00	  977.18	-1841.22	  406.59
     56.5700	 1137.00	 1151.12	-1823.17	  406.59
     56.6700	 1262.00	 1380.64	-1927.68	  406.59
     56.7700	 1644.00	 1661.15	-1826.19	  406.59
     56.8700	 1998.00	 1972.94	-1783.98	  406.59
     56.9700	 2300.00	 2276.33	-1785.38	  406.59
     57.0700	 2530.00	 2510.03	-1789.07	  406.59
     57.1700	 2612.00	 2606.55	-1803.60	  406.60
     57.2700	 2473.00	 2531.51	-1867.56	  406.60
     57.3700	 2342.00	 2312.11	-1779.16	  406.61
     57.4700	 2020.00	 2015.03	-1804.08	  406.62
     57.5700	 1596.00	 1704.33	-1917.37	  406.63
     57.6700	 1344.00	 1422.45	-1887.50	  406.64
     57.7700	 1080.00	 1191.10	-1920.15	  406.65
     57.8700	  985.00	 1016.58	-1840.62	  406.66
     57.9700	  856.00	  894.98	-1848.03	  406.67
     58.0700	  792.00	  817.49	-1834.53	  406.68
     58.1700	  736.00	  774.43	-1847.48	  406.70
     58.2700	  755.00	  758.09	-1812.13	  406.71
     58.3700	  787.00	  763.60	-1785.65	  406.73
     58.4700	  795.00	  788.63	-1802.68	  406.74
     58.5700	  829.00	  832.11	-1812.16	  406.76
     58.6700	  850.00	  892.73	-1851.78	  406.78
     58.7700	  960.00	  967.28	-1816.33	  406.80
     58.8700	 1005.00	 1049.31	-1853.36	  406.82
     58.9700	 1136.00	 1129.10	-1802.14	  406.84
     59.0700	 1211.00	 1197.09	-1795.14	  406.86
     59.1700	 1263.00	 1248.04	-1794.08	  406.88
     59.2700	 1277.00	 1279.68	-1811.73	  406.91
     59.3700	 1365.00	 1288.98	-1733.02	  406.93
     59.4700	 1260.00	 1274.60	-1823.65	  406.96
     59.5700	 1267.00	 1243.45	-1785.50	  406.98
     59.6700	 1250.00	 1209.16	-1768.21	  407.01
     59.7700	 1246.00	 1184.58	-1747.62	  407.03
     59.8700	 1135.00	 1177.91	-1851.96	  407.06
     59.9700	 1204.00	 1194.19	-1799.24	  407.09
     60.0700	 1268.00	 1236.96	-1778.00	  407.12
     60.1700	 1336.00	 1306.35	-1779.40	  407.15
     60.2700	 1501.00	 1395.26	-1703.31	  407.18
     60.3700	 1535.00	 1486.87	-1760.92	  407.21
     60.4700	 1564.00	 1555.18	-1800.22	  407.24
     60.5700	 1594.00	 1572.10	-1787.14	  407.27
     60.6700	 1523.00	 1522.92	-1808.97	  407.30
     60.7700	 1487.00	 1417.08	-1739.13	  407.34
     60.8700	 1223.00	 1280.01	-1866.06	  407.37
     60.9700	 1102.00	 1137.37	-1844.41	  407.41
     61.0700	 1008.00	 1007.27	-1808.32	  407.44
     61.1700	  884.00	  900.01	-1825.06	  407.48
     61.2700	  824.00	  819.73	-1804.77	  407.51
     61.3700	  806.00	  766.43	-1769.48	  407.55
     61.4700	  772.00	  738.20	-1775.25	  407.59
     61.5700	  765.00	  733.02	-1777.07	  407.62
     61.6700	  770.00	  749.94	-1788.98	  407.66
     61.7700	  857.00	  789.25	-1741.30	  407.70
     61.8700	  896.00	  851.68	-1764.72	  407.74
     61.9700	  936.00	  936.86	-1809.91	  407.78
     62.0700	 1072.00	 1041.65	-1778.69	  407.82
     62.1700	 1171.00	 1158.35	-1796.39	  407.86
     62.2700	 1219.00	 1273.33	-1863.37	  407.90
     62.3700	 1348.00	 1366.54	-1827.59	  407.94
     62.4700	 1390.00	 1415.10	-1834.15	  407.98
     62.5700	 1350.00	 1403.69	-1862.73	  408.03
     62.6700	 1275.00	 1335.37	-1869.42	  408.07
     62.7700	 1261.00	 1229.26	-1777.31	  408.11
     62.8700	 1071.00	 1108.08	-1846.13	  408.15
     62.9700	  970.00	  989.84	-1828.89	  408.20
     63.0700	  846.00	  885.78	-1848.83	  408.24
     63.1700	  775.00	  801.33	-1835.37	  408.29
     63.2700	  702.00	  737.48	-1844.53	  408.33
     63.3700	  684.00	  692.30	-1817.35	  408.37
     63.4700	  651.00	  662.38	-1820.43	  408.42
     63.5700	  676.00	  644.07	-1777.12	  408.46
     63.6700	  705.00	  634.45	-1738.50	  408.51
     63.7700	  623.00	  631.60	-1817.64	  408.56
     63.8700	  673.00	  634.76	-1770.81	  408.60
     63.9700	  650.00	  644.28	-1803.32	  408.65
     64.0700	  686.00	  661.29	-1784.33	  408.69
     64.1700	  729.00	  687.45	-1767.50	  408.74
     64.2700	  780.00	  724.42	-1753.46	  408.79
     64.3700	  843.00	  773.31	-1739.36	  408.83
     64.4700	  855.00	  834.04	-1788.09	  408.88
     64.5700	  948.00	  904.55	-1765.60	  408.93
     64.6700	 1014.00	  979.68	-1774.72	  408.98
     64.7700	 1091.00	 1051.45	-1769.50	  409.02
     64.8700	 1101.00	 1109.13	-1817.18	  409.07
     64.9700	 1221.00	 1142.23	-1730.28	  409.12
     65.0700	 1152.00	 1144.86	-1801.91	  409.17
     65.1700	 1070.00	 1117.86	-1856.90	  409.22
     65.2700	 1098.00	 1067.44	-1778.49	  409.26
     65.3700	  995.00	 1004.51	-1818.56	  409.31
     65.4700	  912.00	  938.50	-1835.54	  409.36
     65.5700	  860.00	  876.05	-1825.09	  409.41
     65.6700	  772.00	  820.97	-1858.02	  409.46
     65.7700	  760.00	  774.29	-1823.33	  409.50
     65.8700	  734.00	  735.65	-1810.69	  409.55
     65.9700	  739.00	  704.37	-1774.42	  409.60
     66.0700	  655.00	  679.74	-1833.78	  409.65
     66.1700	  661.00	  660.90	-1808.95	  409.70
     66.2700	  664.00	  647.10	-1792.15	  409.74
     66.3700	  654.00	  637.25	-1792.30	  409.79
     66.4700	  629.00	  630.95	-1811.00	  409.84
     66.5700	  585.00	  627.42	-1851.47	  409.89
     66.6700	  600.00	  626.51	-1835.56	  409.94
     66.7700	  632.00	  628.10	-1805.14	  409.98
     66.8700	  641.00	  632.30	-1800.35	  410.03
     66.9700	  619.00	  639.61	-1829.65	  410.08
     67.0700	  596.00	  651.04	-1864.09	  410.13
     67.1700	  702.00	  668.40	-1775.45	  410.17
     67.2700	  696.00	  694.55	-1807.59	  410.22
     67.3700	  714.00	  733.54	-1828.59	  410.27
     67.4700	  756.00	  790.69	-1843.74	  410.31
     67.5700	  810.00	  872.13	-1871.18	  410.36
     67.6700	  948.00	  983.96	-1845.01	  410.40
     67.7700	 1101.00	 1130.87	-1838.91	  410.45
     67.8700	 1272.00	 1314.27	-1851.31	  410.50
     67.9700	 1488.00	 1530.29	-1851.34	  410.54
     68.0700	 1758.00	 1768.17	-1819.21	  410.59
     68.1700	 1978.00	 2008.45	-1839.50	  410.63
     68.2700	 2232.00	 2222.13	-1799.18	  410.68
     68.3700	 2399.00	 2372.60	-1782.65	  410.72
     68.4700	 2406.00	 2426.19	-1829.24	  410.76
     68.5700	 2358.00	 2368.96	-1820.01	  410.81
     68.6700	 2174.00	 2215.76	-1850.80	  410.85
     68.7700	 2033.00	 2000.63	-1776.68	  410.89
     68.8700	 1720.00	 1760.04	-1849.09	  410.94
     68.9700	 1518.00	 1522.76	-1813.81	  410.98
     69.0700	 1240.00	 1307.91	-1876.96	  411.02
     69.1700	 1063.00	 1125.98	-1872.03	  411.06
     69.2700	  945.00	  980.51	-1844.56	  411.10
     69.3700	  870.00	  869.97	-1809.02	  411.14
     69.4700	  799.00	  789.61	-1799.66	  411.18
     69.5700	  745.00	  733.28	-1797.33	  411.22
     69.6700	  694.00	  694.81	-1809.86	  411.26
     69.7700	  685.00	  668.91	-1792.96	  411.30
     69.8700	  662.00	  651.48	-1798.53	  411.34
     69.9700	  653.00	  639.63	-1795.68	  411.38
     70.0700	  574.00	  631.45	-1866.50	  411.41
     70.1700	  586.00	  625.78	-1848.83	  411.45
     70.2700	  635.00	  621.90	-1795.95	  411.49
     70.3700	  587.00	  619.46	-1841.50	  411.52
     70.4700	  635.00	  618.26	-1792.31	  411.56
     70.5700	  640.00	  618.30	-1787.35	  411.59
     70.6700	  668.00	  619.47	-1760.51	  411.63
     70.7700	  621.00	  622.45	-1810.50	  411.66
     70.8700	  657.00	  627.55	-1779.60	  411.70
     70.9700	  630.00	  636.58	-1815.62	  411.73
     71.0700	  669.00	  649.02	-1789.07	  411.76
     71.1700	  692.00	  667.77	-1784.82	  411.79
     71.2700	  724.00	  695.49	-1780.54	  411.82
     71.3700	  765.00	  735.48	-1779.53	  411.85
     71.4700	  762.00	  791.48	-1838.53	  411.88
     71.5700	  865.00	  867.10	-1811.15	  411.91
     71.6700	  989.00	  965.11	-1785.15	  411.94
     71.7700	 1106.00	 1086.48	-1789.53	  411.97
     71.8700	 1204.00	 1229.41	-1834.46	  411.99
     71.9700	 1373.00	 1388.29	-1824.33	  412.02
     72.0700	 1556.00	 1552.92	-1805.97	  412.04
     72.1700	 1615.00	 1707.87	-1901.91	  412.07
     72.2700	 1803.00	 1832.79	-1838.84	  412.09
     72.3700	 1970.00	 1905.76	-1744.80	  412.12
     72.4700	 1901.00	 1911.00	-1819.04	  412.14
     72.5700	 1785.00	 1847.22	-1871.27	  412.16
     72.6700	 1769.00	 1728.40	-1768.45	  412.18
     72.7700	 1600.00	 1576.13	-1785.18	  412.20
     72.8700	 1330.00	 1411.29	-1890.33	  412.22
     72.9700	 1316.00	 1250.11	-1743.15	  412.24
     73.0700	 1142.00	 1103.50	-1770.54	  412.26
     73.1700	  993.00	  977.66	-1793.70	  412.27
     73.2700	  897.00	  874.87	-1786.91	  412.29
     73.3700	  843.00	  794.51	-1760.56	  412.31
     73.4700	  739.00	  734.07	-1804.12	  412.32
     73.5700	  736.00	  690.06	-1763.11	  412.33
     73.6700	  757.00	  658.80	-1710.84	  412.35
     73.7700	  696.00	  636.93	-1749.97	  412.36
     73.8700	  669.00	  621.74	-1761.79	  412.37
     73.9700	  622.00	  611.21	-1798.26	  412.38
     74.0700	  646.00	  603.93	-1766.98	  412.39
     74.1700	  641.00	  598.98	-1767.03	  412.40
     74.2700	  582.00	  595.76	-1822.81	  412.41
     74.3700	  699.00	  593.34	-1703.38	  412.41
     74.4700	  639.00	  592.53	-1762.58	  412.42
     74.5700	  599.00	  592.54	-1802.59	  412.42
     74.6700	  604.00	  593.09	-1798.14	  412.43
     74.7700	  652.00	  593.86	-1750.91	  412.43
     74.8700	  681.00	  594.50	-1722.54	  412.43
     74.9700	  701.00	  594.61	-1702.66	  412.43
     75.0700	  655.00	  593.92	-1747.97	  412.43
     75.1700	  653.00	  592.38	-1748.43	  412.43
     75.2700	  651.00	  590.22	-1748.27	  412.43
     75.3700	  683.00	  587.85	-1713.90	  412.42
     75.4700	  662.00	  585.79	-1732.83	  412.42
     75.5700	  656.00	  584.53	-1737.58	  412.42
     75.6700	  676.00	  584.61	-1717.66	  412.41
     75.7700	  650.00	  586.56	-1745.61	  412.40
     75.8700	  607.00	  590.94	-1792.99	  412.39
     75.9700	  624.00	  598.23	-1783.28	  412.38
     76.0700	  648.00	  609.05	-1770.09	  412.37
     76.1700	  633.00	  623.67	-1799.71	  412.36
     76.2700	  669.00	  642.18	-1782.23	  412.35
     76.3700	  726.00	  664.32	-1747.37	  412.34
     76.4700	  697.00	  689.35	-1801.40	  412.32
     76.5700	  741.00	  715.96	-1784.01	  412.30
     76.6700	  763.00	  742.08	-1788.13	  412.29
     76.7700	  753.00	  765.30	-1821.34	  412.27
     76.8700	  788.00	  782.38	-1803.43	  412.25
     76.9700	  836.00	  790.42	-1763.47	  412.23
     77.0700	  761.00	  787.78	-1835.83	  412.21
     77.1700	  745.00	  774.92	-1838.96	  412.19
     77.2700	  745.00	  754.12	-1818.16	  412.16
     77.3700	  721.00	  728.49	-1816.54	  412.14
     77.4700	  698.00	  700.97	-1812.02	  412.11
     77.5700	  667.00	  673.88	-1815.93	  412.08
     77.6700	  640.00	  648.87	-1817.92	  412.05
     77.7700	  652.00	  626.93	-1783.98	  412.02
     77.8700	  596.00	  608.53	-1821.58	  411.99
     77.9700	  569.00	  593.72	-1833.77	  411.96
     78.0700	  580.00	  582.22	-1811.27	  411.93
     78.1700	  521.00	  573.58	-1861.62	  411.89
     78.2700	  545.00	  567.25	-1831.30	  411.86
     78.3700	  530.00	  562.50	-1841.54	  411.82
     78.4700	  533.00	  559.24	-1835.29	  411.78
     78.5700	  564.00	  557.01	-1802.05	  411.74
     78.6700	  573.00	  555.45	-1791.50	  411.70
     78.7700	  552.00	  554.38	-1811.42	  411.66
     78.8700	  546.00	  553.65	-1816.70	  411.61
     78.9700	  589.00	  553.20	-1773.25	  411.57
     79.0700	  603.00	  552.98	-1759.03	  411.52
     79.1700	  542.00	  552.97	-1820.02	  411.47
     79.2700	  545.00	  553.18	-1817.22	  411.43
     79.3700	  542.00	  553.62	-1820.66	  411.38
     79.4700	  529.00	  554.32	-1834.37	  411.32
     79.5700	  575.00	  555.35	-1789.39	  411.27
     79.6700	  566.00	  556.75	-1799.80	  411.22
     79.7700	  587.00	  558.64	-1780.68	  411.16
     79.8700	  536.00	  561.13	-1834.18	  411.11
     79.9700	  568.00	  564.42	-1805.47	  411.05
     80.0700	  570.00	  568.75	-1807.80	  410.99
     80.1700	  554.00	  574.44	-1829.48	  410.93
     80.2700	  618.00	  581.87	-1772.91	  410.87
     80.3700	  573.00	  591.48	-1827.53	  410.80
     80.4700	  616.00	  603.77	-1796.81	  410.74
     80.5700	  595.00	  619.20	-1833.24	  410.67
     80.6700	  638.00	  638.20	-1809.25	  410.61
     80.7700	  630.00	  661.06	-1840.11	  410.54
     80.8700	  723.00	  687.77	-1773.82	  410.47
     80.9700	  679.00	  717.72	-1847.76	  410.39
     81.0700	  744.00	  750.36	-1815.41	  410.32
     81.1700	  740.00	  783.98	-1853.02	  410.25
     81.2700	  830.00	  816.49	-1795.53	  410.17
     81.3700	  831.00	  845.59	-1823.63	  410.09
     81.4700	  809.00	  869.19	-1869.24	  410.02
     81.5700	  868.00	  885.87	-1826.92	  409.94
     81.6700	  888.00	  894.97	-1816.02	  409.85
     81.7700	  872.00	  896.47	-1833.52	  409.77
     81.8700	  843.00	  890.93	-1856.97	  409.69
     81.9700	  843.00	  879.32	-1845.36	  409.60
     82.0700	  846.00	  862.79	-1825.84	  409.51
     82.1700	  793.00	  842.47	-1858.51	  409.43
     82.2700	  807.00	  819.47	-1821.52	  409.34
     82.3700	  797.00	  795.02	-1807.07	  409.24
     82.4700	  777.00	  770.29	-1802.33	  409.15
     82.5700	  746.00	  746.14	-1809.19	  409.06
     82.6700	  688.00	  723.03	-1844.08	  408.96
     82.7700	  681.00	  701.11	-1829.15	  408.86
     82.8700	  650.00	  680.42	-1839.46	  408.77
     82.9700	  652.00	  661.14	-1818.19	  408.67
     83.0700	  609.00	  643.59	-1843.64	  408.56
     83.1700	  640.00	  628.11	-1797.16	  408.46
     83.2700	  578.00	  614.97	-1846.02	  408.36
     83.3700	  577.00	  604.35	-1836.39	  408.25
     83.4700	  611.00	  596.30	-1794.35	  408.14
     83.5700	  568.00	  590.79	-1831.83	  408.04
     83.6700	  540.00	  587.66	-1856.71	  407.93
     83.7700	  595.00	  586.68	-1800.73	  407.81
     83.8700	  610.00	  587.52	-1786.57	  407.70
     83.9700	  620.00	  589.73	-1778.78	  407.59
     84.0700	  568.00	  592.80	-1833.85	  407.47
     84.1700	  614.00	  596.13	-1791.18	  407.35
     84.2700	  588.00	  599.07	-1820.12	  407.23
     84.3700	  604.00	  600.97	-1806.02	  407.11
     84.4700	  563.00	  601.30	-1847.35	  406.99
     84.5700	  616.00	  599.64	-1792.69	  406.87
     84.6700	  581.00	  596.36	-1824.41	  406.74
     84.7700	  589.00	  591.68	-1811.73	  406.61
     84.8700	  571.00	  586.09	-1824.13	  406.49
     84.9700	  553.00	  580.09	-1836.14	  406.36
     85.0700	  585.00	  574.12	-1798.17	  406.23
     85.1700	  503.00	  568.54	-1874.58	  406.09
     85.2700	  588.00	  563.59	-1784.64	  405.96
     85.3700	  507.00	  559.44	-1861.49	  405.82
     85.4700	  559.00	  556.20	-1806.24	  405.69
     85.5700	  572.00	  553.89	-1790.93	  405.55
     85.6700	  532.00	  552.51	-1829.56	  405.41
     85.7700	  489.00	  552.05	-1872.09	  405.27
     85.8700	  569.00	  552.45	-1792.50	  405.12
     85.9700	  552.00	  553.68	-1810.73	  404.98
     86.0700	  551.00	  555.72	-1813.76	  404.83
     86.1700	  565.00	  558.52	-1802.56	  404.69
     86.2700	  513.00	  562.04	-1858.09	  404.54
     86.3700	  562.00	  566.31	-1813.36	  404.39
     86.4700	  555.00	  571.27	-1825.31	  404.24
     86.5700	  595.00	  576.89	-1790.93	  404.08
     86.6700	  557.00	  583.12	-1835.16	  403.93
     86.7700	  601.00	  589.90	-1797.95	  403.77
     86.8700	  634.00	  597.21	-1772.25	  403.62
     86.9700	  589.00	  605.06	-1825.10	  403.46
     87.0700	  589.00	  613.54	-1833.58	  403.30
     87.1700	  621.00	  622.74	-1810.79	  403.13
     87.2700	  624.00	  632.72	-1817.77	  402.97
     87.3700	  623.00	  643.37	-1829.42	  402.81
     87.4700	  622.00	  654.38	-1841.43	  402.64
     87.5700	  637.00	  665.22	-1837.26	  402.47
     87.6700	  669.00	  675.12	-1815.17	  402.30
     87.7700	  710.00	  683.15	-1782.20	  402.13
     87.8700	  699.00	  688.32	-1798.37	  401.96
     87.9700	  698.00	  689.86	-1800.91	  401.79
     88.0700	  673.00	  687.43	-1823.47	  401.61
     88.1700	  670.00	  681.26	-1820.30	  401.43
     88.2700	  620.00	  672.06	-1861.11	  401.26
     88.3700	  624.00	  660.81	-1845.85	  401.08
     88.4700	  659.00	  648.49	-1798.54	  400.90
     88.5700	  598.00	  636.03	-1847.08	  400.71
     88.6700	  644.00	  624.23	-1789.28	  400.53
     88.7700	  612.00	  613.70	-1810.75	  400.35
     88.8700	  611.00	  604.90	-1802.95	  400.16
     88.9700	  621.00	  598.10	-1786.14	  399.97
     89.0700	  568.00	  592.94	-1833.98	  399.78
     89.1700	  599.00	  590.25	-1800.30	  399.59
     89.2700	  597.00	  589.38	-1801.43	  399.40
     89.3700	  610.00	  590.00	-1789.04	  399.21
     89.4700	  703.00	  591.67	-1697.71	  399.01
     89.5700	  637.00	  593.90	-1765.94	  398.82
     89.6700	  621.00	  596.13	-1784.17	  398.62
     89.7700	  593.00	  597.80	-1813.85	  398.42
     89.8700	  644.00	  598.42	-1763.47	  398.22
     89.9700	  616.00	  597.66	-1790.71	  398.02
     90.0700	  596.00	  595.43	-1808.48	  397.81
     90.1700	  598.00	  591.86	-1802.91	  397.61
     90.2700	  581.00	  587.27	-1815.31	  397.40
     90.3700	  596.00	  582.02	-1795.07	  397.20
     90.4700	  556.00	  576.50	-1829.54	  396.99
     90.5700	  592.00	  571.01	-1788.06	  396.78
     90.6700	  555.00	  565.81	-1819.86	  396.57
     90.7700	  577.00	  561.09	-1793.13	  396.36
     90.8700	  590.00	  556.96	-1776.01	  396.14
     90.9700	  575.00	  553.50	-1787.55	  395.93
     91.0700	  587.00	  550.73	-1772.78	  395.71
     91.1700	  560.00	  548.63	-1797.67	  395.50
     91.2700	  563.00	  547.16	-1793.20	  395.28
     91.3700	  526.00	  546.28	-1829.33	  395.06
     91.4700	  559.00	  545.95	-1796.00	  394.84
     91.5700	  539.00	  546.16	-1816.21	  394.61
     91.6700	  557.00	  546.90	-1798.95	  394.39
     91.7700	  513.00	  548.22	-1844.27	  394.17
     91.8700	  577.00	  550.19	-1782.23	  393.94
     91.9700	  530.00	  552.92	-1831.97	  393.71
     92.0700	  537.00	  556.57	-1828.61	  393.48
     92.1700	  586.00	  561.31	-1784.36	  393.25
     92.2700	  534.00	  567.35	-1842.40	  393.02
     92.3700	  538.00	  574.92	-1845.96	  392.79
     92.4700	  566.00	  584.20	-1827.24	  392.56
     92.5700	  571.00	  595.37	-1833.42	  392.32
     92.6700	  623.00	  608.55	-1794.60	  392.09
     92.7700	  589.00	  623.78	-1843.83	  391.85
     92.8700	  621.00	  641.00	-1829.05	  391.62
     92.9700	  658.00	  660.03	-1811.08	  391.38
     93.0700	  643.00	  680.56	-1846.60	  391.14
     93.1700	  671.00	  702.10	-1840.15	  390.90
     93.2700	  690.00	  724.05	-1843.10	  390.65
     93.3700	  756.00	  745.64	-1798.68	  390.41
     93.4700	  688.00	  766.03	-1887.08	  390.17
     93.5700	  788.00	  784.51	-1805.56	  389.92
     93.6700	  734.00	  800.61	-1875.66	  389.68
     93.7700	  786.00	  814.28	-1837.32	  389.43
     93.8700	  775.00	  825.87	-1859.91	  389.18
     93.9700	  802.00	  835.98	-1843.02	  388.93
     94.0700	  799.00	  845.22	-1855.26	  388.68
     94.1700	  878.00	  854.06	-1785.11	  388.43
     94.2700	  882.00	  862.77	-1789.82	  388.18
     94.3700	  912.00	  871.48	-1768.53	  387.92
     94.4700	  805.00	  879.97	-1884.01	  387.67
     94.5700	  915.00	  889.03	-1783.07	  387.42
     94.6700	  863.00	  898.53	-1844.58	  387.16
     94.7700	  940.00	  908.57	-1777.62	  386.90
     94.8700	  886.00	  919.01	-1842.06	  386.65
     94.9700	  974.00	  929.34	-1764.38	  386.39
     95.0700	  991.00	  938.63	-1756.68	  386.13
     95.1700	  928.00	  945.63	-1826.68	  385.87
     95.2700	  965.00	  948.91	-1792.95	  385.61
     95.3700	  932.00	  947.12	-1824.17	  385.34
     95.4700	  993.00	  939.41	-1755.46	  385.08
     95.5700	  944.00	  925.65	-1790.70	  384.82
     95.6700	  933.00	  906.54	-1782.59	  384.55
     95.7700	  878.00	  883.41	-1814.46	  384.29
     95.8700	  813.00	  857.96	-1854.01	  384.02
     95.9700	  837.00	  832.02	-1804.06	  383.76
     96.0700	  843.00	  807.34	-1773.38	  383.49
     96.1700	  807.00	  785.58	-1787.63	  383.22
     96.2700	  718.00	  768.26	-1859.31	  382.95
     96.3700	  788.00	  756.69	-1777.74	  382.68
     96.4700	  735.00	  752.04	-1826.09	  382.41
     96.5700	  738.00	  755.27	-1826.32	  382.14
     96.6700	  750.00	  767.17	-1826.22	  381.87
     96.7700	  796.00	  788.32	-1801.37	  381.60
     96.8700	  824.00	  819.06	-1804.10	  381.33
     96.9700	  835.00	  859.44	-1833.49	  381.05
     97.0700	  886.00	  909.20	-1832.25	  380.78
     97.1700	  968.00	  967.69	-1808.74	  380.51
     97.2700	 1073.00	 1033.82	-1769.87	  380.23
     97.3700	 1155.00	 1105.97	-1760.02	  379.96
     97.4700	 1112.00	 1181.96	-1879.01	  379.68
     97.5700	 1272.00	 1259.03	-1796.07	  379.41
     97.6700	 1356.00	 1333.82	-1786.86	  379.13
     97.7700	 1344.00	 1402.45	-1867.50	  378.85
     97.8700	 1428.00	 1460.70	-1841.74	  378.57
     97.9700	 1479.00	 1504.42	-1834.46	  378.30
     98.0700	 1602.00	 1530.20	-1737.25	  378.02
     98.1700	 1561.00	 1536.11	-1784.16	  377.74
     98.2700	 1430.00	 1522.07	-1901.12	  377.46
     98.3700	 1423.00	 1489.91	-1875.96	  377.18
     98.4700	 1405.00	 1442.84	-1846.89	  376.90
     98.5700	 1353.00	 1384.80	-1840.85	  376.62
     98.6700	 1305.00	 1319.89	-1823.94	  376.34
     98.7700	 1227.00	 1251.98	-1834.02	  376.06
     98.8700	 1186.00	 1184.58	-1807.63	  375.78
     98.9700	 1083.00	 1120.73	-1846.77	  375.50
     99.0700	 1046.00	 1062.99	-1826.03	  375.22
     99.1700	  996.00	 1013.46	-1826.51	  374.94
     99.2700	  958.00	  973.84	-1824.88	  374.66
     99.3700	  946.00	  945.48	-1808.53	  374.38
     99.4700	  888.00	  929.38	-1850.43	  374.10
     99.5700	  923.00	  926.25	-1812.30	  373.81
     99.6700	  944.00	  936.48	-1801.53	  373.53
     99.7700	 1001.00	  960.18	-1768.23	  373.25
     99.8700	 1000.00	  997.20	-1806.25	  372.97
     99.9700	 1099.00	 1047.08	-1757.13	  372.69
    100.0700	 1138.00	 1109.06	-1780.11	  372.41
    100.1700	 1199.00	 1182.01	-1792.05	  372.13
    100.2700	 1276.00	 1264.37	-1797.41	  371.84
    100.3700	 1440.00	 1354.15	-1723.20	  371.56
    100.4700	 1497.00	 1448.82	-1760.87	  371.28
    100.5700	 1499.00	 1545.36	-1855.41	  371.00
    100.6700	 1671.00	 1640.31	-1778.36	  370.72
    100.7700	 1726.00	 1729.97	-1813.02	  370.44
    100.8700	 1804.00	 1810.96	-1816.01	  370.16
    100.9700	 1888.00	 1880.27	-1801.31	  369.88
    101.0700	 1975.00	 1935.73	-1769.78	  369.60
    101.1700	 1995.00	 1976.02	-1790.06	  369.32
    101.2700	 1986.00	 2000.35	-1823.39	  369.04
    101.3700	 2054.00	 2008.21	-1763.26	  368.76
    101.4700	 2059.00	 1999.34	-1749.39	  368.48
    101.5700	 1992.00	 1973.87	-1790.91	  368.21
    101.6700	 1991.00	 1932.73	-1750.78	  367.93
    101.7700	 1912.00	 1877.92	-1774.97	  367.65
    101.8700	 1840.00	 1812.45	-1781.50	  367.37
    101.9700	 1734.00	 1740.09	-1815.14	  367.10
    102.0700	 1713.00	 1664.78	-1760.83	  366.82
    102.1700	 1637.00	 1590.16	-1762.21	  366.55
    102.2700	 1480.00	 1519.25	-1848.29	  366.27
    102.3700	 1433.00	 1454.28	-1830.32	  366.00
    102.4700	 1484.00	 1396.66	-1721.71	  365.73
    102.5700	 1356.00	 1347.03	-1800.07	  365.45
    102.6700	 1290.00	 1305.25	-1824.29	  365.18
    102.7700	 1295.00	 1270.53	-1784.57	  364.91
    102.8700	 1146.00	 1241.54	-1904.59	  364.64
    102.9700	 1205.00	 1216.50	-1820.54	  364.37
    103.0700	 1206.00	 1193.34	-1796.39	  364.10
    103.1700	 1229.00	 1170.00	-1750.05	  363.83
    103.2700	 1123.00	 1144.68	-1830.72	  363.56
    103.3700	 1089.00	 1116.14	-1836.18	  363.30
    103.4700	 1055.00	 1083.83	-1837.88	  363.03
    103.5700	 1024.00	 1047.90	-1832.95	  362.77
    103.6700	 1034.00	 1008.99	-1784.04	  362.50
    103.7700	  963.00	  968.05	-1814.10	  362.24
    103.8700	  903.00	  926.14	-1832.19	  361.98
    103.9700	  811.00	  884.30	-1882.35	  361.72
    104.0700	  853.00	  843.44	-1799.49	  361.46
    104.1700	  814.00	  804.36	-1799.41	  361.20
    104.2700	  796.00	  767.71	-1780.76	  360.95
    104.3700	  727.00	  733.95	-1816.00	  360.69
    104.4700	  758.00	  703.41	-1754.46	  360.43
    104.5700	  703.00	  676.26	-1782.31	  360.18
    104.6700	  683.00	  652.53	-1778.57	  359.93
    104.7700	  679.00	  632.13	-1762.17	  359.68
    104.8700	  670.00	  614.87	-1753.92	  359.43
    104.9700	  659.00	  600.53	-1750.57	  359.18
    105.0700	  643.00	  588.80	-1754.85	  358.93
    105.1700	  598.00	  579.39	-1790.44	  358.69
    105.2700	  629.00	  572.01	-1752.06	  358.44
    105.3700	  587.00	  566.38	-1788.43	  358.20
    105.4700	  554.00	  562.27	-1817.31	  357.96
    105.5700	  549.00	  559.47	-1819.51	  357.72
    105.6700	  544.00	  557.83	-1822.88	  357.49
    105.7700	  565.00	  557.24	-1801.29	  357.25
    105.8700	  583.00	  557.64	-1783.69	  357.02
    105.9700	  566.00	  558.96	-1802.01	  356.78
    106.0700	  634.00	  561.25	-1736.30	  356.55
    106.1700	  551.00	  564.51	-1822.55	  356.32
    106.2700	  575.00	  568.78	-1802.82	  356.10
    106.3700	  558.00	  574.11	-1825.15	  355.87
    106.4700	  583.00	  580.55	-1806.59	  355.65
    106.5700	  644.00	  588.12	-1753.16	  355.43
    106.6700	  626.00	  596.88	-1779.93	  355.21
    106.7700	  591.00	  606.80	-1824.84	  354.99
    106.8700	  612.00	  617.80	-1814.85	  354.77
    106.9700	  634.00	  629.77	-1804.82	  354.56
    107.0700	  648.00	  642.54	-1803.59	  354.35
    107.1700	  642.00	  655.87	-1822.92	  354.14
    107.2700	  641.00	  669.48	-1837.52	  353.93
    107.3700	  691.00	  682.99	-1801.04	  353.73
    107.4700	  655.00	  696.03	-1850.07	  353.53
    107.5700	  698.00	  708.13	-1819.18	  353.33
    107.6700	  715.00	  718.88	-1812.92	  353.13
    107.7700	  702.00	  727.85	-1834.89	  352.93
    107.8700	  690.00	  734.73	-1853.78	  352.74
    107.9700	  706.00	  739.38	-1842.43	  352.55
    108.0700	  723.00	  741.81	-1827.86	  352.36
    108.1700	  714.00	  742.29	-1837.34	  352.18
    108.2700	  686.00	  741.20	-1864.25	  351.99
    108.3700	  670.00	  739.00	-1878.05	  351.81
    108.4700	  777.00	  736.19	-1768.24	  351.64
    108.5700	  708.00	  733.23	-1834.27	  351.46
    108.6700	  705.00	  730.49	-1834.53	  351.29
    108.7700	  701.00	  728.26	-1836.30	  351.12
    108.8700	  708.00	  726.72	-1827.76	  350.95
    108.9700	  725.00	  725.92	-1809.97	  350.79
    109.0700	  739.00	  725.82	-1795.87	  350.63
    109.1700	  737.00	  726.25	-1798.30	  350.47
    109.2700	  742.00	  726.94	-1793.99	  350.31
    109.3700	  697.00	  727.54	-1839.59	  350.16
    109.4700	  695.00	  727.64	-1841.69	  350.01
    109.5700	  763.00	  726.83	-1772.87	  349.87
    109.6700	  690.00	  724.72	-1843.77	  349.73
    109.7700	  698.00	  721.04	-1832.09	  349.59
    109.8700	  706.00	  715.66	-1818.71	  349.45
    109.9700	  731.00	  708.60	-1786.64	  349.32
    110.0700	  706.00	  700.01	-1803.05	  349.19
    110.1700	  715.00	  690.16	-1784.21	  349.06
    110.2700	  713.00	  679.38	-1775.43	  348.94
    110.3700	  693.00	  668.00	-1784.05	  348.82
    110.4700	  662.00	  656.37	-1803.42	  348.71
    110.5700	  647.00	  644.79	-1806.84	  348.59
    110.6700	  641.00	  633.53	-1801.57	  348.49
    110.7700	  684.00	  622.80	-1747.84	  348.38
    110.8700	  628.00	  612.81	-1793.86	  348.28
    110.9700	  640.00	  603.71	-1772.76	  348.18
    111.0700	  639.00	  595.59	-1765.63	  348.09
    111.1700	  604.00	  588.51	-1793.55	  348.00
    111.2700	  621.00	  582.50	-1770.55	  347.91
    111.3700	  610.00	  577.56	-1776.61	  347.83
    111.4700	  556.00	  573.66	-1826.71	  347.75
    111.5700	  614.00	  570.74	-1765.79	  347.68
    111.6700	  537.00	  568.73	-1840.78	  347.61
    111.7700	  557.00	  567.54	-1819.59	  347.54
    111.8700	  539.00	  567.09	-1837.14	  347.48
    111.9700	  573.00	  567.28	-1803.33	  347.43
    112.0700	  559.00	  568.03	-1818.07	  347.37
    112.1700	  529.00	  569.23	-1849.28	  347.32
    112.2700	  589.00	  570.82	-1790.86	  347.28
    112.3700	  588.00	  572.71	-1793.76	  347.24
    112.4700	  583.00	  574.86	-1800.91	  347.20
    112.5700	  563.00	  577.21	-1823.25	  347.17
    112.6700	  579.00	  579.72	-1809.77	  347.15
    112.7700	  594.00	  582.40	-1797.45	  347.13
    112.8700	  554.00	  585.24	-1840.29	  347.11
    112.9700	  560.00	  588.27	-1837.32	  347.10
    113.0700	  560.00	  591.54	-1840.58	  347.09
    113.1700	  603.00	  595.09	-1801.13	  347.09
    113.2700	  557.00	  598.99	-1851.04	  347.09
    113.3700	  603.00	  603.33	-1809.38	  347.10
    113.4700	  582.00	  608.22	-1835.26	  347.11
    113.5700	  593.00	  613.77	-1829.82	  347.12
    113.6700	  588.00	  620.16	-1841.20	  347.15
    113.7700	  639.00	  627.57	-1797.61	  347.17
    113.8700	  682.00	  636.25	-1763.30	  347.21
    113.9700	  595.00	  646.53	-1860.58	  347.25
    114.0700	  671.00	  658.80	-1796.85	  347.29
    114.1700	  648.00	  673.54	-1834.59	  347.34
    114.2700	  677.00	  691.38	-1823.42	  347.39
    114.3700	  695.00	  713.06	-1827.11	  347.45
    114.4700	  709.00	  739.51	-1839.55	  347.52
    114.5700	  757.00	  771.80	-1823.84	  347.59
    114.6700	  785.00	  811.21	-1835.26	  347.66
    114.7700	  819.00	  859.23	-1849.28	  347.75
    114.8700	  898.00	  917.56	-1828.61	  347.83
    114.9700	  981.00	  988.07	-1816.11	  347.93
    115.0700	 1134.00	 1072.80	-1747.85	  348.03
    115.1700	 1193.00	 1173.92	-1789.97	  348.13
    115.2700	 1303.00	 1293.68	-1799.72	  348.24
    115.3700	 1471.00	 1434.31	-1772.35	  348.36
    115.4700	 1735.00	 1597.92	-1671.96	  348.48
    115.5700	 1841.00	 1786.39	-1754.44	  348.61
    115.6700	 2160.00	 2001.22	-1650.26	  348.75
    115.7700	 2328.00	 2243.45	-1724.49	  348.89
    115.8700	 2535.00	 2513.51	-1787.56	  349.04
    115.9700	 2961.00	 2810.98	-1659.03	  349.20
    116.0700	 3143.00	 3134.56	-1800.61	  349.36
    116.1700	 3525.00	 3481.88	-1765.93	  349.52
    116.2700	 3905.00	 3849.60	-1753.64	  349.70
    116.3700	 4285.00	 4233.22	-1757.26	  349.88
    116.4700	 4684.00	 4626.98	-1752.03	  350.07
    116.5700	 4951.00	 5024.01	-1882.05	  350.26
    116.6700	 5341.00	 5416.32	-1884.37	  350.46
    116.7700	 5701.00	 5794.99	-1903.03	  350.67
    116.8700	 6144.00	 6150.25	-1815.29	  350.89
    116.9700	 6469.00	 6471.65	-1811.70	  351.11
    117.0700	 6680.00	 6748.67	-1877.72	  351.34
    117.1700	 7014.00	 6971.25	-1766.29	  351.58
    117.2700	 7051.00	 7130.63	-1888.68	  351.82
    117.3700	 7029.00	 7220.20	-2000.25	  352.07
    117.4700	 7180.00	 7236.19	-1865.23	  352.33
    117.5700	 7157.00	 7178.26	-1830.31	  352.60
    117.6700	 6959.00	 7049.57	-1899.62	  352.87
    117.7700	 6772.00	 6856.20	-1893.24	  353.15
    117.8700	 6399.00	 6606.49	-2016.54	  353.44
    117.9700	 6260.00	 6310.24	-1859.29	  353.73
    118.0700	 5859.00	 5977.82	-1927.86	  354.04
    118.1700	 5524.00	 5619.55	-1904.59	  354.35
    118.2700	 5339.00	 5245.15	-1715.20	  354.67
    118.3700	 4786.00	 4863.49	-1886.54	  355.00
    118.4700	 4604.00	 4482.55	-1687.60	  355.33
    118.5700	 4196.00	 4109.17	-1722.21	  355.67
    118.6700	 3955.00	 3749.06	-1603.11	  356.03
    118.7700	 3571.00	 3406.70	-1644.74	  356.39
    118.8700	 3160.00	 3085.40	-1734.45	  356.75
    118.9700	 2929.00	 2787.60	-1667.65	  357.13
    119.0700	 2564.00	 2514.68	-1759.72	  357.51
    119.1700	 2330.00	 2267.21	-1746.25	  357.91
    119.2700	 2010.00	 2044.99	-1844.03	  358.31
    119.3700	 1852.00	 1847.25	-1804.29	  358.72
    119.4700	 1693.00	 1672.82	-1788.87	  359.14
    119.5700	 1449.00	 1520.16	-1880.20	  359.57
    119.6700	 1382.00	 1387.51	-1814.55	  360.00
    119.7700	 1365.00	 1272.94	-1716.99	  360.45
    119.8700	 1200.00	 1174.51	-1783.55	  360.90
    119.9700	 1156.00	 1090.31	-1743.36	  361.37
    120.0700	 1014.00	 1018.52	-1813.57	  361.84
    120.1700	 1029.00	  957.47	-1737.51	  362.32
    120.2700	  929.00	  905.60	-1785.65	  362.81
    120.3700	  875.00	  861.55	-1795.60	  363.31
    120.4700	  869.00	  824.14	-1764.19	  363.82
    120.5700	  818.00	  792.36	-1783.40	  364.34
    120.6700	  786.00	  765.33	-1788.37	  364.87
    120.7700	  743.00	  742.33	-1808.38	  365.41
    120.8700	  721.00	  722.76	-1810.81	  365.95
    120.9700	  717.00	  706.13	-1798.18	  366.51
    121.0700	  666.00	  692.03	-1835.08	  367.08
    121.1700	  681.00	  680.13	-1808.18	  367.66
    121.2700	  675.00	  670.15	-1804.20	  368.24
    121.3700	  693.00	  661.88	-1777.93	  368.84
    121.4700	  666.00	  655.13	-1798.18	  369.45
    121.5700	  665.00	  649.75	-1793.80	  370.06
    121.6700	  624.00	  645.61	-1830.66	  370.69
    121.7700	  667.00	  642.61	-1784.66	  371.33
    121.8700	  682.00	  640.66	-1767.70	  371.98
    121.9700	  618.00	  639.66	-1830.70	  372.64
    122.0700	  612.00	  639.54	-1836.59	  373.31
    122.1700	  685.00	  640.24	-1764.28	  373.99
    122.2700	  612.00	  641.68	-1838.72	  374.68
    122.3700	  646.00	  643.79	-1806.83	  375.38
    122.4700	  628.00	  646.50	-1827.54	  376.09
    122.5700	  653.00	  649.73	-1805.77	  376.82
    122.6700	  652.00	  653.40	-1810.45	  377.55
    122.7700	  708.00	  657.43	-1758.48	  378.30
    122.8700	  666.00	  661.73	-1804.77	  379.06
    122.9700	  636.00	  666.19	-1839.23	  379.83
    123.0700	  648.00	  670.71	-1831.76	  380.61
    123.1700	  673.00	  675.19	-1811.23	  381.40
    123.2700	  702.00	  679.50	-1786.55	  382.20
    123.3700	  647.00	  683.56	-1845.60	  383.01
    123.4700	  664.00	  687.24	-1832.29	  383.84
    123.5700	  723.00	  690.46	-1776.51	  384.68
    123.6700	  673.00	  693.14	-1829.19	  385.53
    123.7700	  657.00	  695.24	-1847.29	  386.39
    123.8700	  689.00	  696.73	-1816.77	  387.26
    123.9700	  622.00	  697.60	-1884.65	  388.15
    124.0700	  648.00	  697.90	-1858.95	  389.05
    124.1700	  720.00	  697.67	-1786.71	  389.96
    124.2700	  675.00	  696.96	-1831.00	  390.88
    124.3700	  670.00	  695.85	-1834.89	  391.82
    124.4700	  687.00	  694.40	-1816.45	  392.77
    124.5700	  693.00	  692.67	-1808.71	  393.73
    124.6700	  707.00	  690.76	-1792.81	  394.70
    124.7700	  674.00	  688.72	-1823.76	  395.69
    124.8700	  690.00	  686.59	-1805.64	  396.69
    124.9700	  632.00	  513.39	-1690.44	  397.70
    125.0700	  636.00	  514.42	-1809.05	  398.72
    125.1700	  664.00	  515.46	-1809.05	  399.76
    125.2700	  632.00	  516.51	-1809.05	  400.81
    125.3700	  691.00	  517.57	-1809.05	  401.88
    125.4700	  602.00	  518.65	-1809.05	  402.95
    125.5700	  661.00	  519.74	-1809.05	  404.05
    125.6700	  581.00	  520.85	-1809.05	  405.15
    125.7700	  609.00	  521.97	-1809.05	  406.27
    125.8700	  610.00	  523.10	-1809.05	  407.40
    125.9700	  636.00	  524.25	-1809.05	  408.55
    126.0700	  618.00	  525.41	-1809.05	  409.71
    126.1700	  588.00	  526.58	-1809.05	  410.88
    126.2700	  548.00	  527.77	-1809.05	  412.07
    126.3700	  600.00	  528.97	-1809.05	  413.28
    126.4700	  599.00	  530.19	-1809.05	  414.49
    126.5700	  633.00	  531.42	-1809.05	  415.73
    126.6700	  616.00	  532.67	-1809.05	  416.97
    126.7700	  601.00	  533.93	-1809.05	  418.23
    126.8700	  608.00	  535.20	-1809.05	  419.51
    126.9700	  562.00	  536.49	-1809.05	  420.80
    127.0700	  648.00	  537.80	-1809.05	  422.10
    127.1700	  593.00	  539.12	-1809.05	  423.42
    127.2700	  587.00	  540.45	-1809.05	  424.76
    127.3700	  620.00	  541.80	-1809.05	  426.11
    127.4700	  602.00	  543.17	-1809.05	  427.47
    127.5700	  559.00	  544.55	-1809.05	  428.85
    127.6700	  563.00	  545.95	-1809.05	  430.25
    127.7700	  583.00	  547.36	-1809.05	  431.66
    127.8700	  641.00	  548.79	-1809.05	  433.09
    127.9700	  670.00	  550.23	-1809.05	  434.53
    128.0700	  636.00	  551.69	-1809.05	  435.99
    128.1700	  642.00	  553.16	-1809.05	  437.47
    128.2700	  673.00	  554.65	-1809.05	  438.96
    128.3700	  673.00	  556.16	-1809.05	  440.47
    128.4700	  703.00	  557.68	-1809.05	  441.99
    128.5700	    0.00	  559.22	-1809.05	  443.53
    128.6700	    0.00	  560.78	-1809.05	  445.08
     12.3774	        	        	        	        	       0	(  0  0  2)	  0  1
     12.3774	        	        	        	        	    -452	(  0  0  2)	  0  1
     25.0197	        	        	        	        	       0	(  0  0  4)	  0  1
     25.0197	        	        	        	        	    -452	(  0  0  4)	  0  1
     28.4637	        	        	        	        	       0	(  1  0  0)	  0  1
     28.4637	        	        	        	        	    -452	(  1  0  0)	  0  1
     29.1646	        	        	        	        	       0	(  1  0  1)	  0  1
     29.1646	        	        	        	        	    -452	(  1  0  1)	  0  1
     31.1815	        	        	        	        	       0	(  1  0  2)	  0  1
     31.1815	        	        	        	        	    -452	(  1  0  2)	  0  1
     34.3063	        	        	        	        	       0	(  1  0  3)	  0  1
     34.3063	        	        	        	        	    -452	(  1  0  3)	  0  1
     37.9826	        	        	        	        	       0	(  0  0  6)	  0  1
     37.9826	        	        	        	        	    -452	(  0  0  6)	  0  1
     38.3046	        	        	        	        	       0	(  1  0  4)	  0  1
     38.3046	        	        	        	        	    -452	(  1  0  4)	  0  1
     42.9798	        	        	        	        	       0	(  1  0  5)	  0  1
     42.9798	        	        	        	        	    -452	(  1  0  5)	  0  1
     48.1925	        	        	        	        	       0	(  1  0  6)	  0  1
     48.1925	        	        	        	        	    -452	(  1  0  6)	  0  1
     50.5019	        	        	        	        	       0	(  1  1  0)	  0  1
     50.5019	        	        	        	        	    -452	(  1  1  0)	  0  1
     51.4758	        	        	        	        	       0	(  0  0  8)	  0  1
     51.4758	        	        	        	        	    -452	(  0  0  8)	  0  1
     52.2353	        	        	        	        	       0	(  1  1  2)	  0  1
     52.2353	        	        	        	        	    -452	(  1  1  2)	  0  1
     53.8552	        	        	        	        	       0	(  1  0  7)	  0  1
     53.8552	        	        	        	        	    -452	(  1  0  7)	  0  1
     57.2133	        	        	        	        	       0	(  1  1  4)	  0  1
     57.2133	        	        	        	        	    -452	(  1  1  4)	  0  1
     59.0429	        	        	        	        	       0	(  2  0  0)	  0  1
     59.0429	        	        	        	        	    -452	(  2  0  0)	  0  1
     59.4369	        	        	        	        	       0	(  2  0  1)	  0  1
     59.4369	        	        	        	        	    -452	(  2  0  1)	  0  1
     59.9217	        	        	        	        	       0	(  1  0  8)	  0  1
     59.9217	        	        	        	        	    -452	(  1  0  8)	  0  1
     60.6098	        	        	        	        	       0	(  2  0  2)	  0  1
     60.6098	        	        	        	        	    -452	(  2  0  2)	  0  1
     62.5354	        	        	        	        	       0	(  2  0  3)	  0  1
     62.5354	        	        	        	        	    -452	(  2  0  3)	  0  1
     64.9571	        	        	        	        	       0	(  1  1  6)	  0  1
     64.9571	        	        	        	        	    -452	(  1  1  6)	  0  1
     65.1768	        	        	        	        	       0	(  2  0  4)	  0  1
     65.1768	        	        	        	        	    -452	(  2  0  4)	  0  1
     65.7901	        	        	        	        	       0	(  0  0 10)	  0  1
     65.7901	        	        	        	        	    -452	(  0  0 10)	  0  1
     66.3786	        	        	        	        	       0	(  1  0  9)	  0  1
     66.3786	        	        	        	        	    -452	(  1  0  9)	  0  1
     68.4934	        	        	        	        	       0	(  2  0  5)	  0  1
     68.4934	        	        	        	        	    -452	(  2  0  5)	  0  1
     72.4484	        	        	        	        	       0	(  2  0  6)	  0  1
     72.4484	        	        	        	        	    -452	(  2  0  6)	  0  1
     73.2411	        	        	        	        	       0	(  1  0 10)	  0  1
     73.2411	        	        	        	        	    -452	(  1  0 10)	  0  1
     75.0645	        	        	        	        	       0	(  1  1  8)	  0  1
     75.0645	        	        	        	        	    -452	(  1  1  8)	  0  1
     77.0158	        	        	        	        	       0	(  2  0  7)	  0  1
     77.0158	        	        	        	        	    -452	(  2  0  7)	  0  1
     80.5527	        	        	        	        	       0	(  1  0 11)	  0  1
     80.5527	        	        	        	        	    -452	(  1  0 11)	  0  1
     81.3805	        	        	        	        	       0	(  0  0 12)	  0  1
     81.3805	        	        	        	        	    -452	(  0  0 12)	  0  1
     81.4206	        	        	        	        	       0	(  2  1  0)	  0  1
     81.4206	        	        	        	        	    -452	(  2  1  0)	  0  1
     81.7632	        	        	        	        	       0	(  2  1  1)	  0  1
     81.7632	        	        	        	        	    -452	(  2  1  1)	  0  1
     82.1861	        	        	        	        	       0	(  2  0  8)	  0  1
     82.1861	        	        	        	        	    -452	(  2  0  8)	  0  1
     82.7894	        	        	        	        	       0	(  2  1  2)	  0  1
     82.7894	        	        	        	        	    -452	(  2  1  2)	  0  1
     84.4947	        	        	        	        	       0	(  2  1  3)	  0  1
     84.4947	        	        	        	        	    -452	(  2  1  3)	  0  1
     86.8745	        	        	        	        	       0	(  2  1  4)	  0  1
     86.8745	        	        	        	        	    -452	(  2  1  4)	  0  1
     87.4337	        	        	        	        	       0	(  1  1 10)	  0  1
     87.4337	        	        	        	        	    -452	(  1  1 10)	  0  1
     87.9725	        	        	        	        	       0	(  2  0  9)	  0  1
     87.9725	        	        	        	        	    -452	(  2  0  9)	  0  1
     88.3916	        	        	        	        	       0	(  1  0 12)	  0  1
     88.3916	        	        	        	        	    -452	(  1  0 12)	  0  1
     89.9272	        	        	        	        	       0	(  2  1  5)	  0  1
     89.9272	        	        	        	        	    -452	(  2  1  5)	  0  1
     93.6593	        	        	        	        	       0	(  2  1  6)	  0  1
     93.6593	        	        	        	        	    -452	(  2  1  6)	  0  1
     94.4192	        	        	        	        	       0	(  2  0 10)	  0  1
     94.4192	        	        	        	        	    -452	(  2  0 10)	  0  1
     95.4201	        	        	        	        	       0	(  3  0  0)	  0  1
     95.4201	        	        	        	        	    -452	(  3  0  0)	  0  1
     95.7608	        	        	        	        	       0	(  3  0  1)	  0  1
     95.7608	        	        	        	        	    -452	(  3  0  1)	  0  1
     96.7843	        	        	        	        	       0	(  3  0  2)	  0  1
     96.7843	        	        	        	        	    -452	(  3  0  2)	  0  1
     96.8850	        	        	        	        	       0	(  1  0 13)	  0  1
     96.8850	        	        	        	        	    -452	(  1  0 13)	  0  1
     98.0920	        	        	        	        	       0	(  2  1  7)	  0  1
     98.0920	        	        	        	        	    -452	(  2  1  7)	  0  1
     98.4952	        	        	        	        	       0	(  3  0  3)	  0  1
     98.4952	        	        	        	        	    -452	(  3  0  3)	  0  1
     99.0808	        	        	        	        	       0	(  0  0 14)	  0  1
     99.0808	        	        	        	        	    -452	(  0  0 14)	  0  1
    100.9038	        	        	        	        	       0	(  3  0  4)	  0  1
    100.9038	        	        	        	        	    -452	(  3  0  4)	  0  1
    101.6159	        	        	        	        	       0	(  2  0 11)	  0  1
    101.6159	        	        	        	        	    -452	(  2  0 11)	  0  1
    102.4524	        	        	        	        	       0	(  1  1 12)	  0  1
    102.4524	        	        	        	        	    -452	(  1  1 12)	  0  1
    103.2709	        	        	        	        	       0	(  2  1  8)	  0  1
    103.2709	        	        	        	        	    -452	(  2  1  8)	  0  1
    104.0305	        	        	        	        	       0	(  3  0  5)	  0  1
    104.0305	        	        	        	        	    -452	(  3  0  5)	  0  1
    106.2427	        	        	        	        	       0	(  1  0 14)	  0  1
    106.2427	        	        	        	        	    -452	(  1  0 14)	  0  1
    107.9126	        	        	        	        	       0	(  3  0  6)	  0  1
    107.9126	        	        	        	        	    -452	(  3  0  6)	  0  1
    109.2813	        	        	        	        	       0	(  2  1  9)	  0  1
    109.2813	        	        	        	        	    -452	(  2  1  9)	  0  1
    109.7260	        	        	        	        	       0	(  2  0 12)	  0  1
    109.7260	        	        	        	        	    -452	(  2  0 12)	  0  1
    112.6156	        	        	        	        	       0	(  3  0  7)	  0  1
    112.6156	        	        	        	        	    -452	(  3  0  7)	  0  1
    116.2781	        	        	        	        	       0	(  2  1 10)	  0  1
    116.2781	        	        	        	        	    -452	(  2  1 10)	  0  1
    116.8362	        	        	        	        	       0	(  1  0 15)	  0  1
    116.8362	        	        	        	        	    -452	(  1  0 15)	  0  1
    117.3966	        	        	        	        	       0	(  2  2  0)	  0  1
    117.3966	        	        	        	        	    -452	(  2  2  0)	  0  1
    118.2545	        	        	        	        	       0	(  3  0  8)	  0  1
    118.2545	        	        	        	        	    -452	(  3  0  8)	  0  1
    118.9366	        	        	        	        	       0	(  2  2  2)	  0  1
    118.9366	        	        	        	        	    -452	(  2  2  2)	  0  1
    119.0510	        	        	        	        	       0	(  2  0 13)	  0  1
    119.0510	        	        	        	        	    -452	(  2  0 13)	  0  1
    120.8718	        	        	        	        	       0	(  0  0 16)	  0  1
    120.8718	        	        	        	        	    -452	(  0  0 16)	  0  1
    121.5722	        	        	        	        	       0	(  1  1 14)	  0  1
    121.5722	        	        	        	        	    -452	(  1  1 14)	  0  1
    123.7061	        	        	        	        	       0	(  2  2  4)	  0  1
    123.7061	        	        	        	        	    -452	(  2  2  4)	  0  1
    124.5507	        	        	        	        	       0	(  2  1 11)	  0  1
    124.5507	        	        	        	        	    -452	(  2  1 11)	  0  1
    125.0370	        	        	        	        	       0	(  3  0  9)	  0  1
    125.0370	        	        	        	        	    -452	(  3  0  9)	  0  1
    125.5998	        	        	        	        	       0	(  3  1  0)	  0  1
    125.5998	        	        	        	        	    -452	(  3  1  0)	  0  1
    126.0184	        	        	        	        	       0	(  3  1  1)	  0  1
    126.0184	        	        	        	        	    -452	(  3  1  1)	  0  1
    127.2881	        	        	        	        	       0	(  3  1  2)	  0  1
    127.2881	        	        	        	        	    -452	(  3  1  2)	  0  1
    129.4285	        	        	        	        	       0	(  1  0 16)	  0  1
    129.4285	        	        	        	        	    -452	(  1  0 16)	  0  1
    129.4539	        	        	        	        	       0	(  3  1  3)	  0  1
    129.4539	        	        	        	        	    -452	(  3  1  3)	  0  1
    130.2086	        	        	        	        	       0	(  2  0 14)	  0  1
    130.2086	        	        	        	        	    -452	(  2  0 14)	  0  1
    132.3349	        	        	        	        	       0	(  2  2  6)	  0  1
    132.3349	        	        	        	        	    -452	(  2  2  6)	  0  1
    132.6057	        	        	        	        	       0	(  3  1  4)	  0  1
    132.6057	        	        	        	        	    -452	(  3  1  4)	  0  1
    133.3706	        	        	        	        	       0	(  3  0 10)	  0  1
    133.3706	        	        	        	        	    -452	(  3  0 10)	  0  1
    134.7049	        	        	        	        	       0	(  2  1 12)	  0  1
    134.7049	        	        	        	        	    -452	(  2  1 12)	  0  1
    136.9123	        	        	        	        	       0	(  3  1  5)	  0  1
    136.9123	        	        	        	        	    -452	(  3  1  5)	  0  1
    142.7074	        	        	        	        	       0	(  3  1  6)	  0  1
    142.7074	        	        	        	        	    -452	(  3  1  6)	  0  1
    144.2191	        	        	        	        	       0	(  3  0 11)	  0  1
    144.2191	        	        	        	        	    -452	(  3  0 11)	  0  1
    144.8397	        	        	        	        	       0	(  2  0 15)	  0  1
    144.8397	        	        	        	        	    -452	(  2  0 15)	  0  1
    146.1821	        	        	        	        	       0	(  1  0 17)	  0  1
    146.1821	        	        	        	        	    -452	(  1  0 17)	  0  1
    147.0909	        	        	        	        	       0	(  2  2  8)	  0  1
    147.0909	        	        	        	        	    -452	(  2  2  8)	  0  1
    148.4032	        	        	        	        	       0	(  2  1 13)	  0  1
    148.4032	        	        	        	        	    -452	(  2  1 13)	  0  1
    150.7749	        	        	        	        	       0	(  3  1  7)	  0  1
    150.7749	        	        	        	        	    -452	(  3  1  7)	  0  1
    151.5642	        	        	        	        	       0	(  1  1 16)	  0  1
    151.5642	        	        	        	        	    -452	(  1  1 16)	  0  1
    156.4051	        	        	        	        	       0	(  0  0 18)	  0  1
    156.4051	        	        	        	        	    -452	(  0  0 18)	  0  1
    161.4204	        	        	        	        	       0	(  3  0 12)	  0  1
    161.4204	        	        	        	        	    -452	(  3  0 12)	  0  1
    161.5461	        	        	        	        	       0	(  4  0  0)	  0  1
    161.5461	        	        	        	        	    -452	(  4  0  0)	  0  1
    162.6561	        	        	        	        	       0	(  4  0  1)	  0  1
    162.6561	        	        	        	        	    -452	(  4  0  1)	  0  1
    164.1316	        	        	        	        	       0	(  3  1  8)	  0  1
    164.1316	        	        	        	        	    -452	(  3  1  8)	  0  1
    166.5105	        	        	        	        	       0	(  4  0  2)	  0  1
    166.5105	        	        	        	        	    -452	(  4  0  2)	  0  1
