MSG Master    CELL:    5.91920   5.91920  23.27336   90.0000   90.0000  120.0000   SPGR: P 63/m m c             TEMP:   1074.85
  1   1280     2.52000     0.00000    -0.12440     0.00000     0.00000    0
    99     0     2
       0.00000      10.00000
     125.00000     130.00000
 2Theta	Yobs	Ycal	Yobs-Ycal	Backg	Posr	(hkl)	K
      0.7700	    0.00	  545.98	-1770.75	  429.40
      0.8700	    1.00	  546.70	-1770.75	  430.12
      0.9700	   46.00	  547.41	-1770.75	  430.83
      1.0700	   55.00	  548.11	-1770.75	  431.53
      1.1700	   35.00	  548.79	-1770.75	  432.21
      1.2700	   39.00	  549.47	-1770.75	  432.89
      1.3700	   51.00	  550.14	-1770.75	  433.56
      1.4700	   97.00	  550.79	-1770.75	  434.21
      1.5700	  276.00	  551.44	-1770.75	  434.86
      1.6700	  502.00	  552.07	-1770.75	  435.49
      1.7700	  563.00	  552.70	-1770.75	  436.12
      1.8700	  682.00	  553.31	-1770.75	  436.73
      1.9700	  667.00	  553.92	-1770.75	  437.34
      2.0700	  744.00	  554.51	-1770.75	  437.93
      2.1700	  781.00	  555.10	-1770.75	  438.52
      2.2700	  754.00	  555.67	-1770.75	  439.09
      2.3700	  742.00	  556.24	-1770.75	  439.66
      2.4700	  712.00	  556.79	-1770.75	  440.21
      2.5700	  698.00	  557.34	-1770.75	  440.76
      2.6700	  683.00	  557.87	-1770.75	  441.29
      2.7700	  700.00	  558.40	-1770.75	  441.82
      2.8700	  623.00	  558.92	-1770.75	  442.34
      2.9700	  615.00	  559.43	-1770.75	  442.85
      3.0700	  570.00	  559.92	-1770.75	  443.34
      3.1700	  559.00	  560.41	-1770.75	  443.83
      3.2700	  601.00	  560.89	-1770.75	  444.31
      3.3700	  647.00	  561.36	-1770.75	  444.78
      3.4700	  723.00	  561.82	-1770.75	  445.24
      3.5700	  807.00	  562.28	-1770.75	  445.70
      3.6700	  868.00	  562.72	-1770.75	  446.14
      3.7700	  887.00	  563.16	-1770.75	  446.58
      3.8700	  927.00	  563.58	-1770.75	  447.00
      3.9700	 1077.00	  564.00	-1770.75	  447.42
      4.0700	 1021.00	  564.41	-1770.75	  447.83
      4.1700	 1046.00	  564.81	-1770.75	  448.23
      4.2700	 1093.00	  565.20	-1770.75	  448.62
      4.3700	 1088.00	  565.58	-1770.75	  449.00
      4.4700	 1062.00	  565.96	-1770.75	  449.38
      4.5700	 1015.00	  566.32	-1770.75	  449.74
      4.6700	 1015.00	  566.68	-1770.75	  450.10
      4.7700	  968.00	  567.03	-1770.75	  450.45
      4.8700	 1002.00	  567.37	-1770.75	  450.79
      4.9700	  983.00	  567.70	-1770.75	  451.12
      5.0700	  985.00	  568.03	-1770.75	  451.45
      5.1700	  945.00	  568.35	-1770.75	  451.77
      5.2700	  894.00	  568.66	-1770.75	  452.08
      5.3700	  884.00	  568.96	-1770.75	  452.38
      5.4700	  834.00	  569.25	-1770.75	  452.67
      5.5700	  855.00	  569.54	-1770.75	  452.96
      5.6700	  849.00	  569.82	-1770.75	  453.24
      5.7700	  825.00	  570.09	-1770.75	  453.51
      5.8700	  830.00	  570.35	-1770.75	  453.77
      5.9700	  747.00	  570.61	-1770.75	  454.03
      6.0700	  810.00	  570.85	-1770.75	  454.28
      6.1700	  788.00	  571.10	-1770.75	  454.52
      6.2700	  776.00	  571.33	-1770.75	  454.75
      6.3700	  828.00	  571.56	-1770.75	  454.98
      6.4700	  759.00	  571.78	-1770.75	  455.20
      6.5700	  748.00	  571.99	-1770.75	  455.41
      6.6700	  740.00	  572.19	-1770.75	  455.61
      6.7700	  724.00	  572.39	-1770.75	  455.81
      6.8700	  702.00	  572.58	-1770.75	  456.00
      6.9700	  721.00	  572.77	-1770.75	  456.19
      7.0700	  691.00	  572.94	-1770.75	  456.36
      7.1700	  697.00	  573.11	-1770.75	  456.53
      7.2700	  675.00	  573.28	-1770.75	  456.70
      7.3700	  686.00	  573.44	-1770.75	  456.86
      7.4700	  673.00	  573.59	-1770.75	  457.01
      7.5700	  663.00	  573.73	-1770.75	  457.15
      7.6700	  702.00	  573.87	-1770.75	  457.29
      7.7700	  614.00	  574.00	-1770.75	  457.42
      7.8700	  666.00	  574.12	-1770.75	  457.54
      7.9700	  634.00	  574.24	-1770.75	  457.66
      8.0700	  649.00	  574.35	-1770.75	  457.78
      8.1700	  661.00	  574.46	-1770.75	  457.88
      8.2700	  604.00	  574.56	-1770.75	  457.98
      8.3700	  598.00	  574.65	-1770.75	  458.08
      8.4700	  656.00	  574.74	-1770.75	  458.16
      8.5700	  640.00	  574.82	-1770.75	  458.24
      8.6700	  643.00	  574.90	-1770.75	  458.32
      8.7700	  623.00	  574.97	-1770.75	  458.39
      8.8700	  587.00	  575.03	-1770.75	  458.45
      8.9700	  639.00	  575.09	-1770.75	  458.51
      9.0700	  619.00	  575.15	-1770.75	  458.57
      9.1700	  615.00	  575.19	-1770.75	  458.61
      9.2700	  602.00	  575.23	-1770.75	  458.65
      9.3700	  603.00	  575.27	-1770.75	  458.69
      9.4700	  596.00	  575.30	-1770.75	  458.72
      9.5700	  601.00	  575.32	-1770.75	  458.74
      9.6700	  600.00	  575.34	-1770.75	  458.76
      9.7700	  666.00	  575.36	-1770.75	  458.78
      9.8700	  636.00	  575.37	-1770.75	  458.79
      9.9700	  563.00	  575.37	-1770.75	  458.79
     10.0700	  649.00	  576.12	-1697.87	  458.79
     10.1700	  637.00	  576.19	-1709.94	  458.78
     10.2700	  595.00	  576.28	-1752.03	  458.77
     10.3700	  595.00	  576.39	-1752.14	  458.75
     10.4700	  574.00	  576.55	-1773.30	  458.73
     10.5700	  579.00	  576.81	-1768.56	  458.70
     10.6700	  573.00	  577.26	-1775.01	  458.67
     10.7700	  558.00	  578.02	-1790.77	  458.64
     10.8700	  576.00	  579.15	-1773.90	  458.59
     10.9700	  573.00	  580.64	-1778.39	  458.55
     11.0700	  587.00	  582.46	-1766.21	  458.50
     11.1700	  579.00	  584.60	-1776.35	  458.44
     11.2700	  569.00	  587.10	-1788.85	  458.38
     11.3700	  575.00	  590.02	-1785.77	  458.32
     11.4700	  574.00	  593.50	-1790.25	  458.25
     11.5700	  610.00	  597.73	-1758.48	  458.17
     11.6700	  612.00	  603.03	-1761.78	  458.09
     11.7700	  638.00	  609.99	-1742.74	  458.01
     11.8700	  609.00	  619.50	-1781.25	  457.93
     11.9700	  644.00	  632.26	-1759.01	  457.83
     12.0700	  626.00	  646.84	-1791.59	  457.74
     12.1700	  690.00	  657.36	-1738.11	  457.64
     12.2700	  666.00	  654.31	-1759.06	  457.54
     12.3700	  692.00	  634.67	-1713.42	  457.43
     12.4700	  645.00	  610.54	-1736.29	  457.32
     12.5700	  631.00	  592.93	-1732.69	  457.20
     12.6700	  604.00	  583.46	-1750.21	  457.08
     12.7700	  588.00	  579.21	-1761.96	  456.96
     12.8700	  586.00	  577.31	-1762.06	  456.83
     12.9700	  588.00	  576.27	-1759.02	  456.70
     13.0700	  558.00	  575.55	-1788.30	  456.56
     13.1700	  566.00	  575.00	-1779.75	  456.42
     13.2700	  568.00	  574.55	-1777.30	  456.28
     13.3700	  582.00	  574.16	-1762.91	  456.13
     13.4700	  509.00	  573.83	-1835.58	  455.98
     13.5700	  543.00	  573.53	-1801.28	  455.83
     13.6700	  567.00	  573.25	-1777.00	  455.67
     13.7700	  538.00	  572.99	-1805.74	  455.51
     13.8700	  557.00	  572.75	-1786.50	  455.35
     13.9700	  593.00	  572.51	-1750.26	  455.18
     14.0700	  552.00	  572.28	-1791.03	  455.01
     14.1700	  575.00	  572.06	-1767.81	  454.84
     14.2700	  541.00	  571.84	-1801.59	  454.66
     14.3700	  563.00	  571.62	-1779.37	  454.48
     14.4700	  583.00	  571.40	-1759.15	  454.30
     14.5700	  530.00	  571.19	-1811.94	  454.11
     14.6700	  532.00	  570.97	-1809.72	  453.92
     14.7700	  554.00	  570.75	-1787.50	  453.73
     14.8700	  547.00	  570.54	-1794.29	  453.53
     14.9700	  548.00	  570.32	-1793.07	  453.33
     15.0700	  545.00	  570.10	-1795.85	  453.13
     15.1700	  591.00	  569.88	-1749.63	  452.93
     15.2700	  549.00	  569.66	-1791.41	  452.72
     15.3700	  590.00	  569.44	-1750.19	  452.51
     15.4700	  577.00	  569.22	-1762.97	  452.30
     15.5700	  546.00	  568.99	-1793.74	  452.08
     15.6700	  603.00	  568.76	-1736.51	  451.86
     15.7700	  547.00	  568.53	-1792.28	  451.64
     15.8700	  589.00	  568.30	-1750.05	  451.42
     15.9700	  591.00	  568.07	-1747.82	  451.19
     16.0700	  565.00	  567.83	-1773.58	  450.96
     16.1700	  574.00	  567.60	-1764.35	  450.73
     16.2700	  555.00	  567.38	-1783.13	  450.50
     16.3700	  548.00	  567.14	-1789.89	  450.26
     16.4700	  595.00	  566.90	-1742.65	  450.02
     16.5700	  549.00	  566.65	-1788.40	  449.78
     16.6700	  582.00	  566.41	-1755.16	  449.54
     16.7700	  586.00	  566.16	-1750.91	  449.29
     16.8700	  565.00	  565.91	-1771.66	  449.04
     16.9700	  582.00	  565.65	-1754.40	  448.79
     17.0700	  555.00	  565.40	-1781.15	  448.54
     17.1700	  525.00	  565.14	-1810.89	  448.29
     17.2700	  563.00	  564.88	-1772.63	  448.03
     17.3700	  521.00	  564.62	-1814.37	  447.77
     17.4700	  517.00	  564.36	-1818.11	  447.51
     17.5700	  539.00	  564.10	-1795.85	  447.25
     17.6700	  536.00	  563.83	-1798.58	  446.99
     17.7700	  563.00	  563.56	-1771.31	  446.72
     17.8700	  528.00	  563.29	-1806.04	  446.45
     17.9700	  539.00	  563.13	-1794.88	  446.18
     18.0700	  546.00	  562.86	-1787.61	  445.91
     18.1700	  549.00	  562.59	-1784.34	  445.63
     18.2700	  501.00	  562.31	-1832.06	  445.36
     18.3700	  523.00	  562.04	-1809.79	  445.08
     18.4700	  565.00	  561.76	-1767.51	  444.80
     18.5700	  549.00	  561.48	-1783.23	  444.52
     18.6700	  556.00	  561.21	-1775.96	  444.24
     18.7700	  565.00	  560.92	-1766.67	  443.96
     18.8700	  558.00	  560.72	-1773.47	  443.67
     18.9700	  535.00	  560.44	-1796.19	  443.38
     19.0700	  600.00	  560.16	-1730.91	  443.10
     19.1700	  558.00	  559.88	-1772.63	  442.81
     19.2700	  535.00	  559.59	-1795.34	  442.51
     19.3700	  588.00	  559.30	-1742.05	  442.22
     19.4700	  556.00	  559.02	-1773.77	  441.93
     19.5700	  573.00	  558.73	-1756.48	  441.63
     19.6700	  576.00	  558.44	-1753.19	  441.34
     19.7700	  532.00	  558.15	-1796.90	  441.04
     19.8700	  555.00	  557.86	-1773.61	  440.74
     19.9700	  534.00	  557.57	-1794.32	  440.44
     20.0700	  560.00	  557.28	-1768.03	  440.14
     20.1700	  598.00	  556.98	-1729.73	  439.83
     20.2700	  605.00	  556.69	-1722.44	  439.53
     20.3700	  552.00	  556.39	-1775.14	  439.23
     20.4700	  513.00	  556.10	-1813.85	  438.92
     20.5700	  576.00	  555.78	-1750.53	  438.61
     20.6700	  573.00	  555.48	-1753.23	  438.30
     20.7700	  528.00	  555.19	-1797.94	  438.00
     20.8700	  541.00	  554.93	-1784.68	  437.69
     20.9700	  567.00	  554.63	-1758.38	  437.37
     21.0700	  542.00	  554.34	-1783.09	  437.06
     21.1700	  493.00	  554.04	-1831.79	  436.75
     21.2700	  560.00	  553.75	-1764.50	  436.44
     21.3700	  593.00	  553.46	-1731.21	  436.12
     21.4700	  546.00	  553.16	-1777.91	  435.81
     21.5700	  537.00	  552.87	-1786.62	  435.49
     21.6700	  532.00	  552.58	-1791.33	  435.18
     21.7700	  547.00	  552.29	-1776.04	  434.86
     21.8700	  538.00	  552.00	-1784.75	  434.54
     21.9700	  555.00	  551.71	-1767.46	  434.22
     22.0700	  559.00	  551.43	-1763.18	  433.90
     22.1700	  564.00	  551.14	-1757.90	  433.58
     22.2700	  580.00	  550.86	-1741.61	  433.26
     22.3700	  552.00	  550.59	-1769.34	  432.94
     22.4700	  533.00	  550.31	-1788.06	  432.62
     22.5700	  540.00	  550.05	-1780.80	  432.30
     22.6700	  611.00	  549.78	-1709.53	  431.98
     22.7700	  530.00	  549.52	-1790.27	  431.66
     22.8700	  568.00	  549.28	-1752.03	  431.33
     22.9700	  589.00	  549.04	-1730.79	  431.01
     23.0700	  558.00	  548.81	-1761.56	  430.69
     23.1700	  555.00	  548.60	-1764.35	  430.36
     23.2700	  531.00	  548.40	-1788.15	  430.04
     23.3700	  531.00	  548.23	-1787.98	  429.71
     23.4700	  559.00	  548.10	-1759.85	  429.39
     23.5700	  570.00	  548.01	-1748.76	  429.06
     23.6700	  538.00	  547.98	-1780.73	  428.74
     23.7700	  575.00	  548.18	-1743.93	  428.41
     23.8700	  533.00	  548.47	-1786.22	  428.09
     23.9700	  601.00	  549.16	-1718.91	  427.76
     24.0700	  548.00	  550.69	-1773.44	  427.44
     24.1700	  601.00	  553.68	-1723.43	  427.11
     24.2700	  554.00	  558.97	-1775.72	  426.78
     24.3700	  604.00	  567.49	-1734.24	  426.46
     24.4700	  635.00	  580.27	-1716.02	  426.13
     24.5700	  645.00	  597.61	-1723.36	  425.81
     24.6700	  618.00	  616.87	-1769.62	  425.48
     24.7700	  654.00	  630.34	-1747.09	  425.15
     24.8700	  622.00	  627.56	-1776.31	  424.83
     24.9700	  652.00	  607.07	-1725.82	  424.50
     25.0700	  590.00	  582.10	-1762.85	  424.18
     25.1700	  573.00	  563.46	-1761.21	  423.85
     25.2700	  551.00	  553.01	-1772.76	  423.53
     25.3700	  573.00	  548.15	-1745.90	  423.20
     25.4700	  580.00	  545.96	-1736.71	  422.88
     25.5700	  586.00	  544.80	-1729.55	  422.55
     25.6700	  573.00	  544.05	-1741.80	  422.23
     25.7700	  534.00	  543.51	-1780.26	  421.90
     25.8700	  588.00	  543.10	-1725.85	  421.58
     25.9700	  561.00	  542.79	-1752.54	  421.26
     26.0700	  561.00	  542.56	-1752.31	  420.93
     26.1700	  545.00	  542.41	-1768.16	  420.61
     26.2700	  534.00	  542.34	-1779.09	  420.29
     26.3700	  539.00	  542.35	-1774.10	  419.96
     26.4700	  554.00	  542.44	-1759.19	  419.64
     26.5700	  571.00	  542.63	-1742.38	  419.32
     26.6700	  575.00	  542.94	-1738.69	  419.00
     26.7700	  522.00	  543.38	-1792.13	  418.68
     26.8700	  532.00	  544.01	-1782.76	  418.36
     26.9700	  555.00	  544.86	-1760.61	  418.04
     27.0700	  562.00	  546.03	-1754.78	  417.72
     27.1700	  494.00	  547.64	-1824.39	  417.40
     27.2700	  530.00	  549.97	-1790.72	  417.09
     27.3700	  540.00	  553.52	-1784.27	  416.77
     27.4700	  579.00	  559.30	-1751.05	  416.45
     27.5700	  548.00	  569.12	-1791.87	  416.14
     27.6700	  582.00	  585.82	-1774.57	  415.82
     27.7700	  576.00	  613.07	-1807.82	  415.50
     27.8700	  629.00	  654.04	-1795.79	  415.19
     27.9700	  618.00	  708.85	-1861.60	  414.88
     28.0700	  796.00	  771.27	-1746.02	  414.56
     28.1700	  942.00	  825.76	-1654.51	  414.25
     28.2700	  936.00	  848.89	-1683.64	  413.94
     28.3700	  923.00	  826.47	-1674.22	  413.63
     28.4700	  815.00	  779.98	-1735.73	  413.32
     28.5700	  747.00	  745.81	-1769.56	  413.01
     28.6700	  754.00	  740.97	-1757.72	  412.70
     28.7700	  713.00	  761.25	-1819.00	  412.40
     28.8700	  772.00	  787.29	-1786.04	  412.09
     28.9700	  821.00	  791.64	-1741.39	  411.78
     29.0700	  754.00	  756.45	-1773.20	  411.48
     29.1700	  671.00	  696.09	-1795.84	  411.17
     29.2700	  689.00	  638.21	-1719.96	  410.87
     29.3700	  591.00	  596.26	-1776.01	  410.57
     29.4700	  622.00	  570.78	-1719.53	  410.27
     29.5700	  608.00	  556.94	-1719.69	  409.97
     29.6700	  596.00	  549.61	-1724.36	  409.67
     29.7700	  601.00	  545.46	-1715.21	  409.37
     29.8700	  585.00	  542.87	-1728.62	  409.07
     29.9700	  577.00	  541.22	-1734.97	  408.77
     30.0700	  584.00	  540.38	-1727.13	  408.48
     30.1700	  540.00	  540.49	-1771.24	  408.18
     30.2700	  559.00	  542.09	-1753.84	  407.89
     30.3700	  571.00	  546.22	-1745.97	  407.60
     30.4700	  607.00	  554.48	-1718.23	  407.31
     30.5700	  575.00	  568.54	-1764.29	  407.02
     30.6700	  599.00	  588.92	-1760.67	  406.73
     30.7700	  588.00	  613.14	-1795.89	  406.44
     30.8700	  619.00	  634.39	-1786.14	  406.15
     30.9700	  603.00	  642.16	-1809.91	  405.87
     31.0700	  584.00	  629.15	-1815.90	  405.58
     31.1700	  583.00	  602.05	-1789.80	  405.30
     31.2700	  609.00	  574.65	-1736.40	  405.02
     31.3700	  569.00	  554.33	-1756.08	  404.73
     31.4700	  550.00	  541.94	-1762.69	  404.45
     31.5700	  514.00	  535.31	-1792.06	  404.18
     31.6700	  509.00	  531.90	-1793.65	  403.90
     31.7700	  524.00	  530.01	-1776.76	  403.62
     31.8700	  581.00	  528.82	-1718.57	  403.35
     31.9700	  522.00	  528.00	-1776.75	  403.07
     32.0700	  534.00	  527.41	-1764.16	  402.80
     32.1700	  522.00	  527.00	-1775.75	  402.53
     32.2700	  509.00	  526.75	-1788.50	  402.26
     32.3700	  550.00	  526.65	-1747.40	  401.99
     32.4700	  580.00	  526.70	-1717.45	  401.72
     32.5700	  479.00	  526.92	-1818.67	  401.45
     32.6700	  518.00	  527.33	-1780.08	  401.19
     32.7700	  533.00	  527.98	-1765.73	  400.93
     32.8700	  547.00	  528.93	-1752.68	  400.66
     32.9700	  555.00	  530.30	-1746.05	  400.40
     33.0700	  540.00	  532.28	-1763.03	  400.14
     33.1700	  568.00	  535.33	-1738.08	  399.88
     33.2700	  552.00	  540.46	-1759.21	  399.63
     33.3700	  586.00	  549.87	-1734.62	  399.37
     33.4700	  586.00	  567.83	-1752.58	  399.12
     33.5700	  565.00	  601.15	-1806.90	  398.86
     33.6700	  617.00	  657.76	-1811.51	  398.61
     33.7700	  726.00	  741.42	-1786.17	  398.36
     33.8700	  899.00	  843.33	-1715.08	  398.11
     33.9700	 1045.00	  936.45	-1662.20	  397.87
     34.0700	 1061.00	  978.79	-1688.54	  397.62
     34.1700	 1009.00	  938.69	-1700.44	  397.38
     34.2700	  885.00	  836.61	-1722.36	  397.14
     34.3700	  771.00	  725.76	-1725.51	  396.89
     34.4700	  647.00	  639.56	-1763.31	  396.65
     34.5700	  604.00	  585.23	-1751.98	  396.42
     34.6700	  535.00	  555.78	-1791.53	  396.18
     34.7700	  503.00	  541.02	-1808.77	  395.94
     34.8700	  543.00	  533.35	-1761.10	  395.71
     34.9700	  502.00	  528.78	-1797.53	  395.48
     35.0700	  507.00	  525.64	-1789.39	  395.25
     35.1700	  521.00	  523.28	-1773.03	  395.02
     35.2700	  525.00	  521.42	-1767.17	  394.79
     35.3700	  543.00	  519.90	-1747.65	  394.56
     35.4700	  523.00	  518.64	-1766.39	  394.34
     35.5700	  521.00	  517.57	-1767.32	  394.12
     35.6700	  521.00	  516.66	-1766.41	  393.90
     35.7700	  483.00	  515.86	-1803.61	  393.68
     35.8700	  553.00	  515.16	-1732.91	  393.46
     35.9700	  520.00	  515.03	-1765.78	  393.24
     36.0700	  567.00	  514.48	-1718.23	  393.03
     36.1700	  529.00	  513.99	-1755.74	  392.81
     36.2700	  551.00	  513.54	-1733.29	  392.60
     36.3700	  491.00	  513.14	-1792.89	  392.39
     36.4700	  464.00	  512.78	-1819.53	  392.18
     36.5700	  517.00	  512.45	-1766.20	  391.98
     36.6700	  500.00	  512.17	-1782.92	  391.77
     36.7700	  502.00	  511.94	-1780.69	  391.57
     36.8700	  517.00	  511.77	-1765.52	  391.36
     36.9700	  510.00	  511.73	-1772.48	  391.16
     37.0700	  488.00	  511.94	-1794.69	  390.97
     37.1700	  517.00	  512.65	-1766.40	  390.77
     37.2700	  510.00	  514.25	-1775.00	  390.57
     37.3700	  534.00	  517.10	-1753.85	  390.38
     37.4700	  558.00	  521.29	-1734.04	  390.19
     37.5700	  505.00	  526.18	-1791.93	  390.00
     37.6700	  517.00	  530.34	-1784.09	  389.81
     37.7700	  510.00	  532.10	-1792.85	  389.62
     37.8700	  574.00	  530.92	-1727.67	  389.44
     37.9700	  489.00	  527.95	-1809.70	  389.25
     38.0700	  490.00	  524.21	-1804.96	  389.07
     38.1700	  513.00	  520.06	-1777.81	  388.89
     38.2700	  496.00	  516.06	-1790.81	  388.71
     38.3700	  507.00	  512.80	-1776.55	  388.53
     38.4700	  528.00	  510.49	-1753.24	  388.36
     38.5700	  536.00	  509.00	-1743.75	  388.19
     38.6700	  520.00	  508.09	-1758.84	  388.01
     38.7700	  528.00	  507.43	-1750.18	  387.84
     38.8700	  494.00	  507.05	-1783.80	  387.68
     38.9700	  509.00	  506.76	-1768.51	  387.51
     39.0700	  533.00	  506.51	-1744.26	  387.34
     39.1700	  525.00	  506.28	-1752.03	  387.18
     39.2700	  493.00	  506.00	-1783.75	  387.02
     39.3700	  527.00	  505.82	-1749.57	  386.86
     39.4700	  469.00	  505.65	-1807.40	  386.70
     39.5700	  483.00	  505.61	-1793.36	  386.55
     39.6700	  469.00	  505.46	-1807.21	  386.39
     39.7700	  486.00	  505.33	-1790.08	  386.24
     39.8700	  514.00	  505.20	-1761.95	  386.09
     39.9700	  525.00	  505.09	-1750.84	  385.94
     40.0700	  485.00	  504.98	-1790.73	  385.79
     40.1700	  523.00	  504.89	-1752.64	  385.65
     40.2700	  509.00	  504.80	-1766.55	  385.50
     40.3700	  524.00	  504.73	-1751.48	  385.36
     40.4700	  463.00	  504.67	-1812.42	  385.22
     40.5700	  496.00	  504.63	-1779.38	  385.08
     40.6700	  468.00	  504.60	-1807.35	  384.94
     40.7700	  546.00	  504.60	-1729.35	  384.81
     40.8700	  484.00	  504.61	-1791.36	  384.68
     40.9700	  497.00	  504.65	-1778.40	  384.54
     41.0700	  486.00	  504.73	-1789.48	  384.41
     41.1700	  459.00	  504.84	-1816.59	  384.29
     41.2700	  481.00	  504.97	-1794.72	  384.16
     41.3700	  456.00	  505.20	-1819.95	  384.04
     41.4700	  530.00	  505.51	-1746.26	  383.91
     41.5700	  487.00	  506.36	-1790.11	  383.79
     41.6700	  523.00	  506.97	-1754.72	  383.67
     41.7700	  569.00	  507.87	-1709.62	  383.55
     41.8700	  505.00	  509.38	-1775.13	  383.44
     41.9700	  500.00	  512.19	-1782.94	  383.32
     42.0700	  516.00	  517.64	-1772.39	  383.21
     42.1700	  504.00	  527.91	-1794.66	  383.10
     42.2700	  503.00	  545.63	-1813.38	  382.99
     42.3700	  554.00	  572.19	-1788.94	  382.89
     42.4700	  585.00	  605.79	-1791.54	  382.78
     42.5700	  657.00	  639.20	-1752.95	  382.68
     42.6700	  558.00	  660.41	-1873.16	  382.58
     42.7700	  594.00	  658.46	-1835.21	  382.48
     42.8700	  627.00	  633.47	-1777.22	  382.38
     42.9700	  564.00	  598.06	-1804.81	  382.28
     43.0700	  555.00	  564.74	-1780.49	  382.19
     43.1700	  531.00	  539.74	-1779.49	  382.09
     43.2700	  525.00	  523.90	-1769.65	  382.00
     43.3700	  524.00	  515.09	-1761.84	  381.91
     43.4700	  500.00	  510.57	-1781.32	  381.83
     43.5700	  504.00	  508.25	-1775.00	  381.74
     43.6700	  488.00	  507.11	-1789.86	  381.66
     43.7700	  528.00	  506.27	-1749.02	  381.57
     43.8700	  486.00	  505.66	-1790.41	  381.49
     43.9700	  550.00	  505.20	-1725.95	  381.41
     44.0700	  461.00	  504.89	-1814.64	  381.34
     44.1700	  505.00	  504.62	-1770.37	  381.26
     44.2700	  525.00	  504.41	-1750.16	  381.19
     44.3700	  512.00	  504.25	-1763.00	  381.11
     44.4700	  488.00	  504.14	-1786.89	  381.04
     44.5700	  499.00	  504.06	-1775.81	  380.98
     44.6700	  488.00	  503.90	-1786.65	  380.91
     44.7700	  513.00	  503.88	-1761.63	  380.84
     44.8700	  492.00	  503.89	-1782.64	  380.78
     44.9700	  502.00	  503.93	-1772.68	  380.72
     45.0700	  481.00	  503.98	-1793.73	  380.66
     45.1700	  504.00	  504.25	-1771.00	  380.60
     45.2700	  519.00	  504.35	-1756.10	  380.54
     45.3700	  504.00	  504.48	-1771.23	  380.49
     45.4700	  542.00	  504.63	-1733.38	  380.44
     45.5700	  498.00	  504.80	-1777.55	  380.38
     45.6700	  508.00	  505.00	-1767.75	  380.34
     45.7700	  478.00	  505.22	-1797.97	  380.29
     45.8700	  527.00	  505.48	-1749.23	  380.24
     45.9700	  507.00	  505.76	-1769.51	  380.20
     46.0700	  485.00	  506.08	-1791.83	  380.15
     46.1700	  498.00	  506.45	-1779.20	  380.11
     46.2700	  520.00	  506.85	-1757.60	  380.07
     46.3700	  511.00	  507.31	-1767.06	  380.03
     46.4700	  508.00	  507.83	-1770.58	  380.00
     46.5700	  523.00	  508.42	-1756.17	  379.96
     46.6700	  531.00	  509.10	-1748.85	  379.93
     46.7700	  476.00	  509.90	-1804.65	  379.90
     46.8700	  514.00	  510.88	-1767.63	  379.87
     46.9700	  510.00	  512.16	-1772.91	  379.84
     47.0700	  495.00	  514.02	-1789.77	  379.81
     47.1700	  486.00	  517.05	-1801.80	  379.79
     47.2700	  549.00	  522.23	-1743.98	  379.77
     47.3700	  486.00	  530.79	-1815.54	  379.75
     47.4700	  523.00	  543.99	-1791.74	  379.73
     47.5700	  556.00	  562.09	-1776.84	  379.71
     47.6700	  562.00	  583.30	-1792.05	  379.69
     47.7700	  649.00	  603.17	-1724.92	  379.68
     47.8700	  645.00	  615.25	-1741.00	  379.66
     47.9700	  597.00	  614.49	-1788.24	  379.65
     48.0700	  634.00	  601.91	-1738.66	  379.64
     48.1700	  532.00	  583.94	-1822.69	  379.63
     48.2700	  557.00	  566.80	-1780.55	  379.62
     48.3700	  550.00	  554.13	-1774.88	  379.62
     48.4700	  536.00	  546.90	-1781.65	  379.61
     48.5700	  563.00	  544.45	-1752.20	  379.61
     48.6700	  544.00	  545.57	-1772.32	  379.61
     48.7700	  507.00	  549.20	-1812.95	  379.61
     48.8700	  525.00	  554.82	-1800.57	  379.61
     48.9700	  586.00	  562.48	-1747.23	  379.62
     49.0700	  556.00	  572.85	-1787.60	  379.62
     49.1700	  545.00	  587.64	-1813.39	  379.63
     49.2700	  590.00	  610.38	-1791.13	  379.64
     49.3700	  666.00	  647.80	-1752.55	  379.65
     49.4700	  702.00	  711.21	-1779.96	  379.66
     49.5700	  801.00	  817.04	-1786.79	  379.67
     49.6700	  874.00	  983.01	-1879.76	  379.69
     49.7700	 1155.00	 1223.07	-1838.82	  379.70
     49.8700	 1447.00	 1535.42	-1859.17	  379.72
     49.9700	 1892.00	 1891.19	-1769.94	  379.74
     50.0700	 2314.00	 2224.89	-1681.64	  379.76
     50.1700	 2510.00	 2439.05	-1699.80	  379.78
     50.2700	 2441.00	 2446.01	-1775.76	  379.80
     50.3700	 2360.00	 2240.38	-1651.13	  379.83
     50.4700	 1880.00	 1908.17	-1798.92	  379.85
     50.5700	 1368.00	 1552.36	-1955.11	  379.88
     50.6700	 1053.00	 1241.34	-1959.09	  379.91
     50.7700	  812.00	 1005.23	-1963.98	  379.94
     50.8700	  749.00	  845.90	-1867.65	  379.97
     50.9700	  671.00	  748.37	-1848.12	  380.01
     51.0700	  631.00	  691.78	-1831.53	  380.04
     51.1700	  622.00	  657.10	-1805.85	  380.08
     51.2700	  565.00	  631.73	-1837.48	  380.12
     51.3700	  592.00	  610.27	-1789.02	  380.15
     51.4700	  592.00	  591.82	-1770.57	  380.19
     51.5700	  575.00	  576.76	-1772.51	  380.24
     51.6700	  578.00	  565.32	-1758.07	  380.28
     51.7700	  534.00	  557.19	-1793.94	  380.32
     51.8700	  535.00	  551.67	-1787.42	  380.37
     51.9700	  562.00	  548.00	-1756.75	  380.42
     52.0700	  570.00	  545.58	-1746.33	  380.46
     52.1700	  516.00	  544.13	-1798.88	  380.51
     52.2700	  548.00	  543.76	-1766.51	  380.57
     52.3700	  559.00	  544.18	-1755.93	  380.62
     52.4700	  568.00	  545.99	-1748.74	  380.67
     52.5700	  545.00	  550.19	-1775.94	  380.73
     52.6700	  600.00	  558.86	-1729.61	  380.78
     52.7700	  587.00	  575.86	-1759.61	  380.84
     52.8700	  651.00	  607.20	-1726.95	  380.90
     52.9700	  727.00	  660.37	-1704.12	  380.96
     53.0700	  794.00	  741.76	-1718.51	  381.02
     53.1700	  948.00	  852.20	-1674.95	  381.08
     53.2700	 1048.00	  982.11	-1704.86	  381.15
     53.3700	 1114.00	 1108.42	-1765.17	  381.21
     53.4700	 1178.00	 1196.42	-1789.17	  381.28
     53.5700	 1131.00	 1212.89	-1852.64	  381.34
     53.6700	 1073.00	 1150.06	-1847.81	  381.41
     53.7700	  948.00	 1033.75	-1856.50	  381.48
     53.8700	  834.00	  901.36	-1838.11	  381.55
     53.9700	  795.00	  781.47	-1757.22	  381.63
     54.0700	  659.00	  688.68	-1800.43	  381.70
     54.1700	  644.00	  625.60	-1752.35	  381.77
     54.2700	  556.00	  587.26	-1802.01	  381.85
     54.3700	  557.00	  566.06	-1779.81	  381.93
     54.4700	  602.00	  555.17	-1723.92	  382.00
     54.5700	  553.00	  549.84	-1767.59	  382.08
     54.6700	  574.00	  547.43	-1744.18	  382.16
     54.7700	  578.00	  546.60	-1739.35	  382.24
     54.8700	  547.00	  546.77	-1770.52	  382.33
     54.9700	  528.00	  547.71	-1790.46	  382.41
     55.0700	  585.00	  549.37	-1735.12	  382.49
     55.1700	  571.00	  551.75	-1751.50	  382.58
     55.2700	  560.00	  554.94	-1765.69	  382.67
     55.3700	  549.00	  559.02	-1780.77	  382.75
     55.4700	  592.00	  564.22	-1742.97	  382.84
     55.5700	  594.00	  570.93	-1747.68	  382.93
     55.6700	  542.00	  579.93	-1808.68	  383.02
     55.7700	  600.00	  592.84	-1763.59	  383.12
     55.8700	  638.00	  612.92	-1745.67	  383.21
     55.9700	  641.00	  646.28	-1776.03	  383.30
     56.0700	  649.00	  703.20	-1824.95	  383.40
     56.1700	  736.00	  798.66	-1833.41	  383.49
     56.2700	  843.00	  950.67	-1878.42	  383.59
     56.3700	 1097.00	 1174.99	-1848.74	  383.69
     56.4700	 1406.00	 1476.75	-1841.50	  383.79
     56.5700	 1702.00	 1840.28	-1909.03	  383.89
     56.6700	 2143.00	 2221.41	-1849.16	  383.99
     56.7700	 2495.00	 2545.04	-1820.79	  384.09
     56.8700	 2654.00	 2718.69	-1835.44	  384.19
     56.9700	 2491.00	 2678.27	-1958.02	  384.29
     57.0700	 2417.00	 2439.38	-1793.13	  384.40
     57.1700	 2087.00	 2084.75	-1768.50	  384.50
     57.2700	 1714.00	 1704.98	-1761.73	  384.61
     57.3700	 1347.00	 1364.22	-1787.97	  384.72
     57.4700	 1028.00	 1095.03	-1837.78	  384.82
     57.5700	  905.00	  904.31	-1770.06	  384.93
     57.6700	  796.00	  782.09	-1756.84	  385.04
     57.7700	  776.00	  711.61	-1706.36	  385.15
     57.8700	  716.00	  676.94	-1731.69	  385.26
     57.9700	  672.00	  666.81	-1765.56	  385.38
     58.0700	  682.00	  675.25	-1764.00	  385.49
     58.1700	  692.00	  700.29	-1779.04	  385.60
     58.2700	  805.00	  742.04	-1707.79	  385.72
     58.3700	  866.00	  800.77	-1705.52	  385.83
     58.4700	  972.00	  875.17	-1673.92	  385.95
     58.5700	 1140.00	  960.80	-1591.55	  386.06
     58.6700	 1237.00	 1049.39	-1583.14	  386.18
     58.7700	 1423.00	 1131.20	-1478.95	  386.30
     58.8700	 1579.00	 1199.34	-1391.09	  386.42
     58.9700	 1582.00	 1249.98	-1438.73	  386.54
     59.0700	 1564.00	 1278.10	-1484.85	  386.66
     59.1700	 1568.00	 1278.95	-1481.70	  386.78
     59.2700	 1400.00	 1255.94	-1626.69	  386.90
     59.3700	 1459.00	 1221.34	-1533.09	  387.02
     59.4700	 1268.00	 1188.04	-1690.79	  387.14
     59.5700	 1200.00	 1164.65	-1735.40	  387.27
     59.6700	 1222.00	 1158.49	-1707.24	  387.39
     59.7700	 1157.00	 1178.11	-1791.86	  387.51
     59.8700	 1273.00	 1229.42	-1727.17	  387.64
     59.9700	 1313.00	 1309.08	-1766.83	  387.76
     60.0700	 1397.00	 1401.22	-1774.97	  387.89
     60.1700	 1545.00	 1478.09	-1703.84	  388.02
     60.2700	 1558.00	 1506.76	-1719.51	  388.15
     60.3700	 1559.00	 1466.16	-1677.91	  388.27
     60.4700	 1504.00	 1362.12	-1628.87	  388.40
     60.5700	 1351.00	 1221.11	-1640.86	  388.53
     60.6700	 1124.00	 1072.04	-1718.79	  388.66
     60.7700	  904.00	  936.23	-1802.98	  388.79
     60.8700	  789.00	  825.83	-1807.58	  388.92
     60.9700	  710.00	  745.11	-1805.86	  389.05
     61.0700	  700.00	  693.08	-1763.83	  389.19
     61.1700	  629.00	  666.47	-1808.22	  389.32
     61.2700	  620.00	  662.61	-1813.36	  389.45
     61.3700	  669.00	  681.00	-1782.75	  389.58
     61.4700	  715.00	  723.66	-1779.41	  389.72
     61.5700	  745.00	  793.81	-1819.56	  389.85
     61.6700	  893.00	  893.46	-1771.21	  389.98
     61.7700	  910.00	 1020.50	-1881.25	  390.12
     61.8700	 1096.00	 1165.82	-1840.57	  390.25
     61.9700	 1235.00	 1311.60	-1847.35	  390.39
     62.0700	 1353.00	 1431.29	-1849.04	  390.53
     62.1700	 1414.00	 1494.40	-1851.15	  390.66
     62.2700	 1366.00	 1480.48	-1885.23	  390.80
     62.3700	 1285.00	 1393.62	-1879.37	  390.94
     62.4700	 1162.00	 1259.39	-1868.14	  391.07
     62.5700	 1039.00	 1108.12	-1839.87	  391.21
     62.6700	  930.00	  963.72	-1804.47	  391.35
     62.7700	  735.00	  840.80	-1876.55	  391.49
     62.8700	  677.00	  745.52	-1839.27	  391.63
     62.9700	  608.00	  677.44	-1840.19	  391.76
     63.0700	  604.00	  632.18	-1798.93	  391.90
     63.1700	  570.00	  603.93	-1804.68	  392.04
     63.2700	  567.00	  587.27	-1791.02	  392.18
     63.3700	  596.00	  578.17	-1752.92	  392.32
     63.4700	  576.00	  574.23	-1768.98	  392.46
     63.5700	  598.00	  574.51	-1747.26	  392.60
     63.6700	  579.00	  579.39	-1771.14	  392.74
     63.7700	  632.00	  590.21	-1728.96	  392.88
     63.8700	  597.00	  609.02	-1782.77	  393.02
     63.9700	  657.00	  638.00	-1751.75	  393.17
     64.0700	  755.00	  678.65	-1694.40	  393.31
     64.1700	  819.00	  730.82	-1682.57	  393.45
     64.2700	  900.00	  791.71	-1662.46	  393.59
     64.3700	  917.00	  855.33	-1709.08	  393.73
     64.4700	  982.00	  912.39	-1701.14	  393.87
     64.5700	 1020.00	  951.90	-1702.65	  394.01
     64.6700	 1016.00	  964.64	-1719.39	  394.16
     64.7700	  992.00	  949.69	-1728.44	  394.30
     64.8700	  989.00	  911.66	-1693.41	  394.44
     64.9700	  933.00	  859.53	-1697.28	  394.58
     65.0700	  815.00	  802.95	-1758.70	  394.72
     65.1700	  796.00	  749.64	-1724.39	  394.87
     65.2700	  725.00	  703.98	-1749.73	  395.01
     65.3700	  705.00	  667.10	-1732.85	  395.15
     65.4700	  593.00	  638.18	-1815.93	  395.29
     65.5700	  630.00	  615.78	-1756.53	  395.43
     65.6700	  570.00	  598.63	-1799.38	  395.58
     65.7700	  566.00	  585.78	-1790.53	  395.72
     65.8700	  578.00	  576.44	-1769.19	  395.86
     65.9700	  548.00	  570.05	-1792.80	  396.00
     66.0700	  547.00	  566.12	-1789.87	  396.14
     66.1700	  544.00	  564.23	-1790.98	  396.29
     66.2700	  562.00	  564.02	-1772.77	  396.43
     66.3700	  574.00	  565.22	-1761.97	  396.57
     66.4700	  551.00	  567.67	-1787.42	  396.71
     66.5700	  529.00	  571.43	-1813.18	  396.85
     66.6700	  526.00	  576.99	-1821.74	  396.99
     66.7700	  594.00	  585.00	-1761.75	  397.14
     66.8700	  576.00	  597.21	-1791.96	  397.28
     66.9700	  573.00	  616.52	-1814.27	  397.42
     67.0700	  626.00	  647.54	-1792.29	  397.56
     67.1700	  686.00	  696.89	-1781.64	  397.70
     67.2700	  732.00	  773.02	-1811.77	  397.84
     67.3700	  881.00	  885.08	-1774.83	  397.98
     67.4700	 1038.00	 1040.82	-1773.57	  398.12
     67.5700	 1246.00	 1242.95	-1767.70	  398.26
     67.6700	 1549.00	 1486.28	-1708.03	  398.40
     67.7700	 1746.00	 1754.91	-1779.66	  398.54
     67.8700	 2072.00	 2020.13	-1718.88	  398.68
     67.9700	 2253.00	 2241.90	-1759.65	  398.82
     68.0700	 2363.00	 2374.98	-1782.73	  398.95
     68.1700	 2410.00	 2385.49	-1746.24	  399.09
     68.2700	 2218.00	 2270.45	-1823.20	  399.23
     68.3700	 2104.00	 2059.99	-1726.74	  399.37
     68.4700	 1809.00	 1798.99	-1760.74	  399.50
     68.5700	 1544.00	 1529.17	-1755.92	  399.64
     68.6700	 1295.00	 1280.77	-1756.52	  399.78
     68.7700	 1033.00	 1071.93	-1809.68	  399.91
     68.8700	  911.00	  909.51	-1769.26	  400.05
     68.9700	  776.00	  791.51	-1786.26	  400.18
     69.0700	  729.00	  710.85	-1752.60	  400.32
     69.1700	  651.00	  658.40	-1778.15	  400.45
     69.2700	  652.00	  625.50	-1744.25	  400.59
     69.3700	  624.00	  605.21	-1751.96	  400.72
     69.4700	  610.00	  592.63	-1753.38	  400.86
     69.5700	  641.00	  584.59	-1714.34	  400.99
     69.6700	  555.00	  579.24	-1794.99	  401.12
     69.7700	  589.00	  575.57	-1757.32	  401.25
     69.8700	  591.00	  573.04	-1752.79	  401.38
     69.9700	  560.00	  571.37	-1782.12	  401.52
     70.0700	  572.00	  570.44	-1769.19	  401.65
     70.1700	  586.00	  570.20	-1754.95	  401.78
     70.2700	  547.00	  570.67	-1794.42	  401.91
     70.3700	  554.00	  571.93	-1788.68	  402.03
     70.4700	  586.00	  574.21	-1758.96	  402.16
     70.5700	  606.00	  577.99	-1742.74	  402.29
     70.6700	  558.00	  584.10	-1796.85	  402.42
     70.7700	  540.00	  594.00	-1824.75	  402.54
     70.8700	  603.00	  610.09	-1777.84	  402.67
     70.9700	  623.00	  635.85	-1783.60	  402.80
     71.0700	  582.00	  676.06	-1864.81	  402.92
     71.1700	  700.00	  736.40	-1807.15	  403.05
     71.2700	  789.00	  822.70	-1804.45	  403.17
     71.3700	  951.00	  939.46	-1759.21	  403.29
     71.4700	 1091.00	 1088.77	-1768.52	  403.42
     71.5700	 1231.00	 1264.96	-1804.71	  403.54
     71.6700	 1450.00	 1458.21	-1778.96	  403.66
     71.7700	 1617.00	 1650.51	-1804.26	  403.78
     71.8700	 1758.00	 1817.09	-1829.84	  403.90
     71.9700	 1811.00	 1929.41	-1889.16	  404.02
     72.0700	 1919.00	 1963.42	-1815.17	  404.14
     72.1700	 1898.00	 1911.04	-1783.79	  404.25
     72.2700	 1771.00	 1785.04	-1784.79	  404.37
     72.3700	 1685.00	 1611.05	-1696.80	  404.49
     72.4700	 1502.00	 1418.03	-1686.78	  404.60
     72.5700	 1393.00	 1228.79	-1606.54	  404.72
     72.6700	 1194.00	 1059.41	-1636.16	  404.83
     72.7700	 1111.00	  918.59	-1578.34	  404.95
     72.8700	  931.00	  808.74	-1648.49	  405.06
     72.9700	  819.00	  727.69	-1679.44	  405.17
     73.0700	  802.00	  670.62	-1639.37	  405.28
     73.1700	  733.00	  631.91	-1669.66	  405.39
     73.2700	  704.00	  606.25	-1673.00	  405.50
     73.3700	  665.00	  589.39	-1695.14	  405.61
     73.4700	  635.00	  578.21	-1713.96	  405.72
     73.5700	  609.00	  570.66	-1732.41	  405.82
     73.6700	  612.00	  565.48	-1724.23	  405.93
     73.7700	  586.00	  561.90	-1746.65	  406.03
     73.8700	  590.00	  559.49	-1740.24	  406.14
     73.9700	  568.00	  557.99	-1760.74	  406.24
     74.0700	  572.00	  557.21	-1755.96	  406.35
     74.1700	  614.00	  556.99	-1713.74	  406.45
     74.2700	  601.00	  557.16	-1726.91	  406.55
     74.3700	  635.00	  557.51	-1693.26	  406.65
     74.4700	  636.00	  557.80	-1692.55	  406.75
     74.5700	  636.00	  557.79	-1692.54	  406.84
     74.6700	  628.00	  557.31	-1700.06	  406.94
     74.7700	  632.00	  556.29	-1695.04	  407.04
     74.8700	  614.00	  554.85	-1711.60	  407.13
     74.9700	  600.00	  553.23	-1723.98	  407.23
     75.0700	  607.00	  551.71	-1715.46	  407.32
     75.1700	  611.00	  550.58	-1710.33	  407.41
     75.2700	  606.00	  550.06	-1714.81	  407.50
     75.3700	  605.00	  550.70	-1716.45	  407.59
     75.4700	  542.00	  552.82	-1781.57	  407.68
     75.5700	  553.00	  556.90	-1774.65	  407.77
     75.6700	  575.00	  563.36	-1759.11	  407.86
     75.7700	  542.00	  572.86	-1801.61	  407.94
     75.8700	  576.00	  585.63	-1780.38	  408.03
     75.9700	  615.00	  601.65	-1757.40	  408.11
     76.0700	  630.00	  620.45	-1761.20	  408.19
     76.1700	  669.00	  640.99	-1742.74	  408.28
     76.2700	  694.00	  661.59	-1738.34	  408.36
     76.3700	  715.00	  679.98	-1735.73	  408.44
     76.4700	  713.00	  693.55	-1751.30	  408.51
     76.5700	  652.00	  699.89	-1818.64	  408.59
     76.6700	  663.00	  697.69	-1805.44	  408.67
     76.7700	  674.00	  687.38	-1784.13	  408.74
     76.8700	  638.00	  670.92	-1803.67	  408.82
     76.9700	  603.00	  650.93	-1818.68	  408.89
     77.0700	  606.00	  629.68	-1794.43	  408.96
     77.1700	  588.00	  609.53	-1792.28	  409.03
     77.2700	  572.00	  591.64	-1790.39	  409.10
     77.3700	  542.00	  576.77	-1805.52	  409.17
     77.4700	  526.00	  565.09	-1809.84	  409.24
     77.5700	  559.00	  556.40	-1768.15	  409.30
     77.6700	  534.00	  550.23	-1786.98	  409.37
     77.7700	  497.00	  546.03	-1819.78	  409.43
     77.8700	  525.00	  543.26	-1789.01	  409.49
     77.9700	  521.00	  541.50	-1791.25	  409.55
     78.0700	  545.00	  540.38	-1766.13	  409.61
     78.1700	  529.00	  539.68	-1781.43	  409.67
     78.2700	  472.00	  539.24	-1837.99	  409.73
     78.3700	  588.00	  538.98	-1721.73	  409.79
     78.4700	  539.00	  538.84	-1770.59	  409.84
     78.5700	  520.00	  538.80	-1789.55	  409.89
     78.6700	  487.00	  538.85	-1822.60	  409.95
     78.7700	  519.00	  539.01	-1790.76	  410.00
     78.8700	  538.00	  539.29	-1772.04	  410.05
     78.9700	  544.00	  539.73	-1766.48	  410.10
     79.0700	  552.00	  540.37	-1759.12	  410.14
     79.1700	  482.00	  541.26	-1830.01	  410.19
     79.2700	  483.00	  542.46	-1830.21	  410.23
     79.3700	  513.00	  543.85	-1801.60	  410.28
     79.4700	  505.00	  545.85	-1811.60	  410.32
     79.5700	  556.00	  548.35	-1763.10	  410.36
     79.6700	  555.00	  551.42	-1767.17	  410.40
     79.7700	  549.00	  555.15	-1776.90	  410.44
     79.8700	  557.00	  559.67	-1773.42	  410.47
     79.9700	  563.00	  565.14	-1772.89	  410.51
     80.0700	  533.00	  571.78	-1809.53	  410.54
     80.1700	  526.00	  579.88	-1824.63	  410.57
     80.2700	  609.00	  589.76	-1751.51	  410.61
     80.3700	  597.00	  601.73	-1775.48	  410.64
     80.4700	  626.00	  615.93	-1760.68	  410.66
     80.5700	  612.00	  632.24	-1790.99	  410.69
     80.6700	  599.00	  650.19	-1821.94	  410.72
     80.7700	  626.00	  668.95	-1813.70	  410.74
     80.8700	  681.00	  687.30	-1777.05	  410.76
     80.9700	  704.00	  703.83	-1770.58	  410.78
     81.0700	  714.00	  717.17	-1773.92	  410.80
     81.1700	  748.00	  726.24	-1748.99	  410.82
     81.2700	  718.00	  730.30	-1783.05	  410.84
     81.3700	  736.00	  729.04	-1763.79	  410.85
     81.4700	  729.00	  722.66	-1764.41	  410.87
     81.5700	  744.00	  711.81	-1738.56	  410.88
     81.6700	  739.00	  697.44	-1729.19	  410.89
     81.7700	  735.00	  680.60	-1716.35	  410.90
     81.8700	  733.00	  662.40	-1700.15	  410.91
     81.9700	  715.00	  643.95	-1699.70	  410.92
     82.0700	  676.00	  626.21	-1720.96	  410.92
     82.1700	  635.00	  610.05	-1745.80	  410.93
     82.2700	  628.00	  595.86	-1738.61	  410.93
     82.3700	  681.00	  583.88	-1673.63	  410.93
     82.4700	  613.00	  574.12	-1731.87	  410.93
     82.5700	  615.00	  566.50	-1722.25	  410.93
     82.6700	  534.00	  560.87	-1797.62	  410.92
     82.7700	  578.00	  557.08	-1749.83	  410.92
     82.8700	  534.00	  554.98	-1791.73	  410.91
     82.9700	  573.00	  554.41	-1752.16	  410.90
     83.0700	  550.00	  555.28	-1776.03	  410.89
     83.1700	  533.00	  557.49	-1795.24	  410.88
     83.2700	  571.00	  560.93	-1760.68	  410.87
     83.3700	  554.00	  565.44	-1782.19	  410.86
     83.4700	  524.00	  570.77	-1817.52	  410.84
     83.5700	  550.00	  576.58	-1797.33	  410.82
     83.6700	  596.00	  582.44	-1757.19	  410.80
     83.7700	  565.00	  587.78	-1793.53	  410.78
     83.8700	  551.00	  592.01	-1811.76	  410.76
     83.9700	  551.00	  594.51	-1814.26	  410.74
     84.0700	  583.00	  594.88	-1782.63	  410.71
     84.1700	  542.00	  593.01	-1821.76	  410.69
     84.2700	  567.00	  589.17	-1792.92	  410.66
     84.3700	  571.00	  583.87	-1783.62	  410.63
     84.4700	  570.00	  577.73	-1778.48	  410.60
     84.5700	  549.00	  571.30	-1793.05	  410.56
     84.6700	  556.00	  565.05	-1779.80	  410.53
     84.7700	  542.00	  559.31	-1788.06	  410.49
     84.8700	  536.00	  554.30	-1789.05	  410.46
     84.9700	  512.00	  550.14	-1808.89	  410.42
     85.0700	  510.00	  546.84	-1807.59	  410.38
     85.1700	  521.00	  544.35	-1794.10	  410.33
     85.2700	  466.00	  542.57	-1847.32	  410.29
     85.3700	  541.00	  541.40	-1771.15	  410.24
     85.4700	  511.00	  540.72	-1800.47	  410.20
     85.5700	  468.00	  540.45	-1843.20	  410.15
     85.6700	  567.00	  540.53	-1744.28	  410.10
     85.7700	  554.00	  540.93	-1757.68	  410.05
     85.8700	  508.00	  541.66	-1804.41	  409.99
     85.9700	  527.00	  542.74	-1786.49	  409.94
     86.0700	  552.00	  544.24	-1762.99	  409.88
     86.1700	  537.00	  546.28	-1780.03	  409.82
     86.2700	  558.00	  548.96	-1761.71	  409.76
     86.3700	  508.00	  552.44	-1815.19	  409.70
     86.4700	  587.00	  556.85	-1740.60	  409.64
     86.5700	  531.00	  562.30	-1802.05	  409.57
     86.6700	  555.00	  568.84	-1784.59	  409.51
     86.7700	  560.00	  576.40	-1787.15	  409.44
     86.8700	  575.00	  584.49	-1780.24	  409.37
     86.9700	  585.00	  593.34	-1779.09	  409.30
     87.0700	  619.00	  602.13	-1753.88	  409.22
     87.1700	  648.00	  610.21	-1732.96	  409.15
     87.2700	  659.00	  616.81	-1728.56	  409.07
     87.3700	  635.00	  621.21	-1756.96	  409.00
     87.4700	  680.00	  622.81	-1713.56	  408.92
     87.5700	  641.00	  621.40	-1751.15	  408.83
     87.6700	  658.00	  617.21	-1729.96	  408.75
     87.7700	  691.00	  610.84	-1690.59	  408.67
     87.8700	  654.00	  603.10	-1719.85	  408.58
     87.9700	  582.00	  594.82	-1783.57	  408.49
     88.0700	  574.00	  586.80	-1783.55	  408.40
     88.1700	  597.00	  579.67	-1753.42	  408.31
     88.2700	  612.00	  573.95	-1732.70	  408.22
     88.3700	  552.00	  569.95	-1788.70	  408.13
     88.4700	  606.00	  567.86	-1732.61	  408.03
     88.5700	  595.00	  567.67	-1743.42	  407.93
     88.6700	  623.00	  569.23	-1716.98	  407.84
     88.7700	  532.00	  572.29	-1811.04	  407.73
     88.8700	  588.00	  576.46	-1759.21	  407.63
     88.9700	  594.00	  581.30	-1758.05	  407.53
     89.0700	  664.00	  586.27	-1693.02	  407.42
     89.1700	  618.00	  590.82	-1743.57	  407.32
     89.2700	  603.00	  594.37	-1762.12	  407.21
     89.3700	  600.00	  596.41	-1767.16	  407.10
     89.4700	  619.00	  596.62	-1748.37	  406.99
     89.5700	  549.00	  594.91	-1816.66	  406.87
     89.6700	  598.00	  591.49	-1764.24	  406.76
     89.7700	  569.00	  586.74	-1788.49	  406.64
     89.8700	  547.00	  581.13	-1804.88	  406.52
     89.9700	  574.00	  575.12	-1771.87	  406.40
     90.0700	  541.00	  569.12	-1798.88	  406.28
     90.1700	  496.00	  563.46	-1838.21	  406.16
     90.2700	  515.00	  558.35	-1814.10	  406.03
     90.3700	  556.00	  553.95	-1768.70	  405.91
     90.4700	  491.00	  550.32	-1830.07	  405.78
     90.5700	  570.00	  547.45	-1748.20	  405.65
     90.6700	  525.00	  545.28	-1791.03	  405.52
     90.7700	  520.00	  543.75	-1794.50	  405.38
     90.8700	  531.00	  542.76	-1782.51	  405.25
     90.9700	  497.00	  542.23	-1815.98	  405.11
     91.0700	  508.00	  542.11	-1804.86	  404.98
     91.1700	  557.00	  542.36	-1756.11	  404.84
     91.2700	  555.00	  543.00	-1758.75	  404.70
     91.3700	  541.00	  544.05	-1773.80	  404.55
     91.4700	  508.00	  545.60	-1808.35	  404.41
     91.5700	  555.00	  547.78	-1763.53	  404.27
     91.6700	  529.00	  550.75	-1792.50	  404.12
     91.7700	  509.00	  554.69	-1816.44	  403.97
     91.8700	  539.00	  559.81	-1791.56	  403.82
     91.9700	  523.00	  566.10	-1813.85	  403.67
     92.0700	  562.00	  574.16	-1782.91	  403.52
     92.1700	  534.00	  583.92	-1820.67	  403.36
     92.2700	  561.00	  595.41	-1805.16	  403.20
     92.3700	  571.00	  608.58	-1808.33	  403.05
     92.4700	  656.00	  623.24	-1737.99	  402.89
     92.5700	  595.00	  639.07	-1814.82	  402.73
     92.6700	  707.00	  655.63	-1719.38	  402.56
     92.7700	  700.00	  672.34	-1743.09	  402.40
     92.8700	  693.00	  688.51	-1766.26	  402.24
     92.9700	  720.00	  703.45	-1754.20	  402.07
     93.0700	  788.00	  716.59	-1699.34	  401.90
     93.1700	  776.00	  727.63	-1722.38	  401.73
     93.2700	  789.00	  736.67	-1718.42	  401.56
     93.3700	  790.00	  744.18	-1724.93	  401.39
     93.4700	  773.00	  750.84	-1748.59	  401.21
     93.5700	  864.00	  757.38	-1664.13	  401.04
     93.6700	  870.00	  764.49	-1665.24	  400.86
     93.7700	  868.00	  772.77	-1675.52	  400.68
     93.8700	  864.00	  782.70	-1689.45	  400.50
     93.9700	  853.00	  794.72	-1712.47	  400.32
     94.0700	  909.00	  809.14	-1670.89	  400.14
     94.1700	  854.00	  826.02	-1742.77	  399.95
     94.2700	  925.00	  845.02	-1690.77	  399.77
     94.3700	  878.00	  865.38	-1758.13	  399.58
     94.4700	  884.00	  885.88	-1772.63	  399.39
     94.5700	  894.00	  904.90	-1781.65	  399.20
     94.6700	  953.00	  920.49	-1738.24	  399.01
     94.7700	  951.00	  930.66	-1750.41	  398.82
     94.8700	  901.00	  933.71	-1803.46	  398.62
     94.9700	  893.00	  928.67	-1806.42	  398.43
     95.0700	  868.00	  915.57	-1818.32	  398.23
     95.1700	  888.00	  895.43	-1778.18	  398.03
     95.2700	  855.00	  869.98	-1785.73	  397.83
     95.3700	  851.00	  841.29	-1761.04	  397.63
     95.4700	  788.00	  811.51	-1794.26	  397.43
     95.5700	  733.00	  782.67	-1820.42	  397.23
     95.6700	  785.00	  756.65	-1742.40	  397.02
     95.7700	  720.00	  735.15	-1785.90	  396.82
     95.8700	  702.00	  719.65	-1788.40	  396.61
     95.9700	  706.00	  711.48	-1776.23	  396.40
     96.0700	  658.00	  711.76	-1824.51	  396.19
     96.1700	  667.00	  721.43	-1825.18	  395.98
     96.2700	  725.00	  741.22	-1786.97	  395.77
     96.3700	  731.00	  771.60	-1811.35	  395.55
     96.4700	  757.00	  812.66	-1826.41	  395.34
     96.5700	  832.00	  864.10	-1802.85	  395.12
     96.6700	  938.00	  925.05	-1757.80	  394.90
     96.7700	  952.00	  994.01	-1812.76	  394.68
     96.8700	 1012.00	 1068.79	-1827.54	  394.46
     96.9700	 1137.00	 1146.45	-1780.20	  394.24
     97.0700	 1173.00	 1223.42	-1821.17	  394.02
     97.1700	 1311.00	 1295.52	-1755.27	  393.80
     97.2700	 1394.00	 1358.19	-1734.94	  393.57
     97.3700	 1438.00	 1406.86	-1739.61	  393.35
     97.4700	 1486.00	 1437.57	-1722.32	  393.12
     97.5700	 1425.00	 1447.75	-1793.50	  392.89
     97.6700	 1428.00	 1436.76	-1779.51	  392.66
     97.7700	 1453.00	 1406.08	-1723.83	  392.43
     97.8700	 1326.00	 1358.84	-1803.59	  392.20
     97.9700	 1263.00	 1299.18	-1806.93	  391.97
     98.0700	 1242.00	 1231.52	-1760.27	  391.74
     98.1700	 1138.00	 1160.27	-1793.02	  391.50
     98.2700	 1063.00	 1089.39	-1797.14	  391.27
     98.3700	 1072.00	 1022.33	-1721.08	  391.03
     98.4700	  937.00	  962.01	-1795.76	  390.79
     98.5700	  891.00	  910.71	-1790.46	  390.55
     98.6700	  862.00	  870.23	-1778.98	  390.31
     98.7700	  764.00	  841.89	-1848.64	  390.07
     98.8700	  764.00	  826.65	-1833.40	  389.83
     98.9700	  798.00	  825.14	-1797.89	  389.59
     99.0700	  767.00	  837.79	-1841.54	  389.34
     99.1700	  811.00	  864.77	-1824.52	  389.10
     99.2700	  847.00	  906.13	-1829.88	  388.85
     99.3700	  908.00	  961.64	-1824.39	  388.61
     99.4700	  959.00	 1030.80	-1842.55	  388.36
     99.5700	 1090.00	 1112.71	-1793.46	  388.11
     99.6700	 1138.00	 1205.98	-1838.73	  387.86
     99.7700	 1286.00	 1308.64	-1793.39	  387.61
     99.8700	 1410.00	 1418.08	-1778.83	  387.36
     99.9700	 1506.00	 1530.90	-1795.65	  387.11
    100.0700	 1691.00	 1643.05	-1722.80	  386.86
    100.1700	 1754.00	 1749.99	-1766.74	  386.61
    100.2700	 1857.00	 1847.13	-1760.88	  386.35
    100.3700	 1958.00	 1930.31	-1743.06	  386.10
    100.4700	 2157.00	 1996.21	-1609.96	  385.84
    100.5700	 2073.00	 2042.51	-1740.26	  385.59
    100.6700	 2098.00	 2067.78	-1740.53	  385.33
    100.7700	 2021.00	 2071.22	-1820.97	  385.07
    100.8700	 2078.00	 2052.64	-1745.39	  384.81
    100.9700	 2124.00	 2012.68	-1659.43	  384.55
    101.0700	 2019.00	 1953.19	-1704.94	  384.30
    101.1700	 1933.00	 1877.43	-1715.18	  384.03
    101.2700	 1849.00	 1789.79	-1711.54	  383.77
    101.3700	 1657.00	 1695.37	-1809.12	  383.51
    101.4700	 1568.00	 1599.27	-1802.02	  383.25
    101.5700	 1574.00	 1506.11	-1702.86	  382.99
    101.6700	 1437.00	 1419.66	-1753.41	  382.72
    101.7700	 1378.00	 1342.64	-1735.39	  382.46
    101.8700	 1249.00	 1276.70	-1798.45	  382.20
    101.9700	 1191.00	 1222.42	-1802.17	  381.93
    102.0700	 1181.00	 1179.37	-1769.12	  381.67
    102.1700	 1113.00	 1146.26	-1804.01	  381.40
    102.2700	 1087.00	 1121.02	-1804.77	  381.14
    102.3700	 1161.00	 1101.11	-1710.86	  380.87
    102.4700	 1139.00	 1083.75	-1715.50	  380.60
    102.5700	 1063.00	 1066.30	-1774.05	  380.33
    102.6700	 1005.00	 1046.54	-1812.29	  380.07
    102.7700	 1020.00	 1023.00	-1773.75	  379.80
    102.8700	 1029.00	  995.05	-1736.80	  379.53
    102.9700	  941.00	  962.89	-1792.64	  379.26
    103.0700	  872.00	  927.24	-1825.99	  378.99
    103.1700	  897.00	  889.22	-1762.97	  378.72
    103.2700	  828.00	  850.03	-1792.78	  378.45
    103.3700	  787.00	  810.90	-1794.65	  378.18
    103.4700	  741.00	  772.95	-1802.70	  377.91
    103.5700	  797.00	  737.12	-1710.87	  377.64
    103.6700	  681.00	  704.15	-1793.90	  377.37
    103.7700	  692.00	  674.58	-1753.33	  377.10
    103.8700	  647.00	  648.68	-1772.43	  376.83
    103.9700	  606.00	  626.56	-1791.31	  376.56
    104.0700	  647.00	  608.13	-1731.88	  376.29
    104.1700	  608.00	  593.17	-1755.92	  376.02
    104.2700	  573.00	  581.37	-1779.12	  375.75
    104.3700	  565.00	  572.35	-1778.10	  375.47
    104.4700	  528.00	  565.74	-1808.49	  375.20
    104.5700	  533.00	  561.15	-1798.90	  374.93
    104.6700	  537.00	  558.22	-1791.97	  374.66
    104.7700	  584.00	  556.64	-1743.39	  374.39
    104.8700	  571.00	  556.13	-1755.88	  374.12
    104.9700	  544.00	  556.44	-1783.19	  373.85
    105.0700	  510.00	  557.41	-1818.16	  373.57
    105.1700	  543.00	  558.88	-1786.63	  373.30
    105.2700	  532.00	  560.76	-1799.51	  373.03
    105.3700	  541.00	  562.95	-1792.70	  372.76
    105.4700	  556.00	  565.47	-1780.22	  372.49
    105.5700	  563.00	  568.34	-1776.09	  372.22
    105.6700	  542.00	  571.61	-1800.36	  371.95
    105.7700	  497.00	  575.40	-1849.15	  371.68
    105.8700	  573.00	  579.82	-1777.57	  371.41
    105.9700	  566.00	  585.00	-1789.75	  371.14
    106.0700	  570.00	  591.03	-1791.78	  370.87
    106.1700	  610.00	  597.96	-1758.71	  370.61
    106.2700	  631.00	  605.78	-1745.53	  370.34
    106.3700	  572.00	  614.43	-1813.18	  370.07
    106.4700	  601.00	  623.75	-1793.50	  369.80
    106.5700	  630.00	  633.53	-1774.28	  369.54
    106.6700	  634.00	  643.48	-1780.23	  369.27
    106.7700	  614.00	  653.25	-1810.00	  369.01
    106.8700	  653.00	  662.47	-1780.22	  368.74
    106.9700	  648.00	  670.72	-1793.47	  368.48
    107.0700	  680.00	  677.63	-1768.38	  368.21
    107.1700	  661.00	  682.89	-1792.64	  367.95
    107.2700	  675.00	  686.31	-1782.06	  367.68
    107.3700	  681.00	  687.89	-1777.64	  367.42
    107.4700	  700.00	  687.78	-1758.53	  367.16
    107.5700	  680.00	  686.30	-1777.05	  366.90
    107.6700	  661.00	  683.88	-1793.63	  366.64
    107.7700	  647.00	  680.95	-1804.70	  366.38
    107.8700	  686.00	  677.96	-1762.71	  366.12
    107.9700	  697.00	  675.26	-1749.01	  365.87
    108.0700	  645.00	  673.12	-1798.87	  365.61
    108.1700	  682.00	  671.71	-1760.46	  365.35
    108.2700	  667.00	  671.07	-1774.82	  365.10
    108.3700	  677.00	  671.13	-1764.88	  364.84
    108.4700	  626.00	  671.71	-1816.46	  364.59
    108.5700	  650.00	  672.53	-1793.28	  364.34
    108.6700	  663.00	  673.24	-1780.99	  364.09
    108.7700	  719.00	  673.46	-1725.21	  363.84
    108.8700	  648.00	  672.78	-1795.53	  363.59
    108.9700	  693.00	  670.89	-1748.64	  363.34
    109.0700	  715.00	  667.56	-1723.31	  363.09
    109.1700	  660.00	  662.70	-1773.45	  362.85
    109.2700	  669.00	  656.37	-1758.12	  362.60
    109.3700	  652.00	  648.74	-1767.49	  362.36
    109.4700	  678.00	  640.05	-1732.80	  362.12
    109.5700	  616.00	  630.63	-1785.38	  361.88
    109.6700	  613.00	  620.78	-1778.53	  361.64
    109.7700	  585.00	  610.83	-1796.58	  361.40
    109.8700	  612.00	  601.06	-1759.81	  361.16
    109.9700	  581.00	  591.72	-1781.47	  360.93
    110.0700	  553.00	  583.02	-1800.77	  360.70
    110.1700	  558.00	  575.13	-1787.88	  360.46
    110.2700	  579.00	  568.14	-1759.89	  360.23
    110.3700	  557.00	  562.11	-1775.86	  360.00
    110.4700	  554.00	  557.07	-1773.82	  359.78
    110.5700	  579.00	  552.99	-1744.74	  359.55
    110.6700	  565.00	  549.82	-1755.57	  359.33
    110.7700	  573.00	  547.49	-1745.24	  359.10
    110.8700	  575.00	  545.92	-1741.67	  358.88
    110.9700	  549.00	  545.02	-1766.77	  358.66
    111.0700	  582.00	  544.70	-1733.45	  358.44
    111.1700	  542.00	  544.89	-1773.64	  358.23
    111.2700	  501.00	  545.51	-1815.26	  358.01
    111.3700	  574.00	  546.50	-1743.25	  357.80
    111.4700	  529.00	  547.81	-1789.56	  357.59
    111.5700	  553.00	  549.38	-1767.13	  357.38
    111.6700	  529.00	  551.21	-1792.96	  357.18
    111.7700	  523.00	  553.25	-1801.00	  356.97
    111.8700	  550.00	  555.51	-1776.26	  356.77
    111.9700	  529.00	  557.98	-1799.73	  356.57
    112.0700	  577.00	  560.66	-1754.41	  356.37
    112.1700	  580.00	  563.56	-1754.31	  356.18
    112.2700	  552.00	  566.71	-1785.46	  355.98
    112.3700	  575.00	  570.14	-1765.89	  355.79
    112.4700	  621.00	  573.88	-1723.63	  355.60
    112.5700	  595.00	  577.98	-1753.73	  355.41
    112.6700	  635.00	  582.52	-1718.27	  355.23
    112.7700	  620.00	  587.57	-1738.32	  355.04
    112.8700	  691.00	  593.25	-1673.00	  354.86
    112.9700	  680.00	  599.71	-1690.46	  354.69
    113.0700	  689.00	  607.14	-1688.89	  354.51
    113.1700	  708.00	  615.77	-1678.52	  354.34
    113.2700	  731.00	  625.94	-1665.69	  354.17
    113.3700	  714.00	  638.05	-1694.80	  354.00
    113.4700	  796.00	  652.61	-1627.36	  353.84
    113.5700	  838.00	  670.26	-1603.01	  353.67
    113.6700	  890.00	  691.81	-1572.56	  353.51
    113.7700	  905.00	  718.20	-1583.95	  353.36
    113.8700	  921.00	  750.62	-1600.37	  353.20
    113.9700	  957.00	  790.40	-1604.15	  353.05
    114.0700	 1076.00	  839.15	-1533.90	  352.90
    114.1700	 1167.00	  898.67	-1502.42	  352.75
    114.2700	 1150.00	  970.95	-1591.70	  352.61
    114.3700	 1246.00	 1058.17	-1582.92	  352.47
    114.4700	 1296.00	 1162.60	-1637.35	  352.33
    114.5700	 1452.00	 1286.59	-1605.34	  352.20
    114.6700	 1570.00	 1432.45	-1633.20	  352.07
    114.7700	 1740.00	 1602.32	-1633.07	  351.94
    114.8700	 1928.00	 1798.02	-1640.77	  351.82
    114.9700	 2105.00	 2020.93	-1686.68	  351.70
    115.0700	 2307.00	 2271.88	-1735.63	  351.58
    115.1700	 2599.00	 2550.94	-1722.69	  351.46
    115.2700	 2904.00	 2857.24	-1723.99	  351.35
    115.3700	 3146.00	 3188.90	-1813.65	  351.24
    115.4700	 3362.00	 3542.83	-1951.58	  351.14
    115.5700	 3626.00	 3914.89	-2059.64	  351.04
    115.6700	 4024.00	 4299.69	-2046.44	  350.94
    115.7700	 4497.00	 4690.50	-1964.25	  350.84
    115.8700	 4776.00	 5079.49	-2074.24	  350.75
    115.9700	 5182.00	 5457.65	-2046.40	  350.66
    116.0700	 5587.00	 5815.17	-1998.92	  350.58
    116.1700	 6061.00	 6141.56	-1851.31	  350.50
    116.2700	 6311.00	 6425.94	-1885.69	  350.42
    116.3700	 6650.00	 6657.80	-1778.55	  350.35
    116.4700	 6754.00	 6827.73	-1844.48	  350.28
    116.5700	 6887.00	 6928.39	-1812.14	  350.22
    116.6700	 6968.00	 6955.23	-1757.98	  350.16
    116.7700	 7083.00	 6907.17	-1594.92	  350.10
    116.8700	 6968.00	 6786.75	-1589.50	  350.05
    116.9700	 6698.00	 6599.79	-1672.54	  350.00
    117.0700	 6492.00	 6354.58	-1633.33	  349.95
    117.1700	 6043.00	 6060.96	-1788.71	  349.91
    117.2700	 5728.00	 5729.65	-1772.40	  349.88
    117.3700	 5281.00	 5371.32	-1861.07	  349.84
    117.4700	 4972.00	 4996.24	-1794.99	  349.82
    117.5700	 4716.00	 4613.75	-1668.50	  349.79
    117.6700	 4347.00	 4232.14	-1655.89	  349.77
    117.7700	 4093.00	 3858.69	-1536.44	  349.76
    117.8700	 3706.00	 3499.39	-1564.14	  349.75
    117.9700	 3327.00	 3159.07	-1602.82	  349.74
    118.0700	 2923.00	 2841.21	-1688.96	  349.74
    118.1700	 2580.00	 2548.20	-1738.95	  349.74
    118.2700	 2315.00	 2281.47	-1737.22	  349.75
    118.3700	 1938.00	 2041.48	-1874.23	  349.76
    118.4700	 1772.00	 1827.93	-1826.68	  349.78
    118.5700	 1495.00	 1639.86	-1915.61	  349.80
    118.6700	 1413.00	 1475.78	-1833.53	  349.83
    118.7700	 1236.00	 1333.93	-1868.68	  349.86
    118.8700	 1091.00	 1212.31	-1892.06	  349.90
    118.9700	  957.00	 1108.78	-1922.53	  349.94
    119.0700	  947.00	 1021.21	-1844.96	  349.98
    119.1700	  863.00	  947.51	-1855.26	  350.04
    119.2700	  838.00	  885.77	-1818.52	  350.09
    119.3700	  797.00	  834.21	-1807.96	  350.16
    119.4700	  661.00	  791.24	-1900.99	  350.22
    119.5700	  697.00	  755.47	-1829.22	  350.30
    119.6700	  683.00	  725.69	-1813.44	  350.37
    119.7700	  662.00	  700.89	-1809.64	  350.46
    119.8700	  620.00	  680.21	-1830.96	  350.55
    119.9700	  589.00	  662.94	-1844.69	  350.64
    120.0700	  600.00	  648.49	-1819.24	  350.74
    120.1700	  586.00	  636.39	-1821.14	  350.84
    120.2700	  591.00	  626.25	-1806.00	  350.96
    120.3700	  557.00	  617.78	-1831.53	  351.07
    120.4700	  557.00	  610.71	-1824.46	  351.19
    120.5700	  590.00	  604.87	-1785.62	  351.32
    120.6700	  553.00	  600.09	-1817.84	  351.46
    120.7700	  559.00	  596.26	-1808.01	  351.60
    120.8700	  562.00	  593.28	-1802.03	  351.74
    120.9700	  567.00	  591.08	-1794.83	  351.90
    121.0700	  556.00	  589.59	-1804.34	  352.05
    121.1700	  599.00	  588.78	-1760.53	  352.22
    121.2700	  618.00	  588.58	-1741.33	  352.39
    121.3700	  579.00	  588.97	-1780.72	  352.56
    121.4700	  581.00	  589.89	-1779.64	  352.75
    121.5700	  582.00	  591.30	-1780.05	  352.94
    121.6700	  556.00	  593.14	-1807.89	  353.13
    121.7700	  597.00	  595.35	-1769.10	  353.33
    121.8700	  586.00	  597.85	-1782.60	  353.54
    121.9700	  606.00	  600.59	-1765.34	  353.76
    122.0700	  619.00	  603.47	-1755.22	  353.98
    122.1700	  624.00	  606.41	-1753.16	  354.21
    122.2700	  549.00	  609.30	-1831.05	  354.44
    122.3700	  623.00	  612.04	-1759.79	  354.68
    122.4700	  555.00	  614.53	-1830.28	  354.93
    122.5700	  651.00	  616.69	-1736.44	  355.19
    122.6700	  647.00	  618.41	-1742.16	  355.45
    122.7700	  631.00	  619.63	-1759.38	  355.72
    122.8700	  599.00	  620.29	-1792.04	  356.00
    122.9700	  597.00	  620.36	-1794.11	  356.28
    123.0700	  656.00	  619.85	-1734.60	  356.57
    123.1700	  654.00	  618.78	-1735.53	  356.87
    123.2700	  641.00	  617.17	-1746.92	  357.18
    123.3700	  654.00	  615.10	-1731.85	  357.49
    123.4700	  597.00	  612.63	-1786.38	  357.81
    123.5700	  582.00	  609.82	-1798.57	  358.14
    123.6700	  638.00	  606.75	-1739.50	  358.47
    123.7700	  635.00	  603.50	-1739.25	  358.82
    123.8700	  617.00	  600.13	-1753.88	  359.17
    123.9700	  619.00	  596.70	-1748.45	  359.53
    124.0700	  608.00	  593.26	-1756.01	  359.89
    124.1700	  602.00	  589.89	-1758.64	  360.27
    124.2700	  591.00	  586.60	-1766.35	  360.65
    124.3700	  630.00	  583.44	-1724.19	  361.04
    124.4700	  600.00	  580.44	-1751.19	  361.44
    124.5700	  549.00	  577.61	-1799.36	  361.84
    124.6700	  623.00	  574.98	-1722.73	  362.26
    124.7700	  581.00	  572.55	-1762.30	  362.68
    124.8700	  614.00	  570.33	-1727.08	  363.11
    124.9700	  587.00	  480.13	-1663.88	  363.55
    125.0700	  574.00	  480.58	-1770.75	  364.00
    125.1700	  577.00	  481.03	-1770.75	  364.45
    125.2700	  595.00	  481.50	-1770.75	  364.92
    125.3700	  577.00	  481.97	-1770.75	  365.39
    125.4700	  568.00	  482.45	-1770.75	  365.87
    125.5700	  556.00	  482.95	-1770.75	  366.37
    125.6700	  557.00	  483.44	-1770.75	  366.87
    125.7700	  542.00	  483.95	-1770.75	  367.37
    125.8700	  541.00	  484.47	-1770.75	  367.89
    125.9700	  548.00	  485.00	-1770.75	  368.42
    126.0700	  603.00	  485.53	-1770.75	  368.95
    126.1700	  609.00	  486.08	-1770.75	  369.50
    126.2700	  567.00	  486.63	-1770.75	  370.05
    126.3700	  571.00	  487.19	-1770.75	  370.61
    126.4700	  582.00	  487.77	-1770.75	  371.19
    126.5700	  558.00	  488.35	-1770.75	  371.77
    126.6700	  585.00	  488.94	-1770.75	  372.36
    126.7700	  642.00	  489.54	-1770.75	  372.96
    126.8700	  609.00	  490.15	-1770.75	  373.57
    126.9700	  620.00	  490.77	-1770.75	  374.19
    127.0700	  635.00	  491.40	-1770.75	  374.82
    127.1700	  631.00	  492.04	-1770.75	  375.46
    127.2700	  688.00	  492.69	-1770.75	  376.11
    127.3700	  689.00	  493.35	-1770.75	  376.77
    127.4700	  654.00	  494.02	-1770.75	  377.44
    127.5700	  712.00	  494.70	-1770.75	  378.12
    127.6700	  720.00	  495.39	-1770.75	  378.81
    127.7700	  729.00	  496.09	-1770.75	  379.51
    127.8700	  745.00	  496.80	-1770.75	  380.22
    127.9700	  714.00	  497.52	-1770.75	  380.94
    128.0700	  804.00	  498.25	-1770.75	  381.67
    128.1700	  770.00	  498.99	-1770.75	  382.41
    128.2700	  796.00	  499.74	-1770.75	  383.16
    128.3700	  801.00	  500.50	-1770.75	  383.93
    128.4700	  798.00	  501.28	-1770.75	  384.70
    128.5700	    0.00	  502.06	-1770.75	  385.48
    128.6700	    0.00	  502.86	-1770.75	  386.28
     12.3078	        	        	        	        	       0	(  0  0  2)	  0  1
     24.8894	        	        	        	        	       0	(  0  0  4)	  0  1
     28.3335	        	        	        	        	       0	(  1  0  0)	  0  1
     29.0306	        	        	        	        	       0	(  1  0  1)	  0  1
     31.0364	        	        	        	        	       0	(  1  0  2)	  0  1
     34.1441	        	        	        	        	       0	(  1  0  3)	  0  1
     37.7869	        	        	        	        	       0	(  0  0  6)	  0  1
     38.1204	        	        	        	        	       0	(  1  0  4)	  0  1
     42.7696	        	        	        	        	       0	(  1  0  5)	  0  1
     47.9526	        	        	        	        	       0	(  1  0  6)	  0  1
     50.2698	        	        	        	        	       0	(  1  1  0)	  0  1
     51.2063	        	        	        	        	       0	(  0  0  8)	  0  1
     51.9924	        	        	        	        	       0	(  1  1  2)	  0  1
     53.5820	        	        	        	        	       0	(  1  0  7)	  0  1
     56.9392	        	        	        	        	       0	(  1  1  4)	  0  1
     58.7665	        	        	        	        	       0	(  2  0  0)	  0  1
     59.1580	        	        	        	        	       0	(  2  0  1)	  0  1
     59.6112	        	        	        	        	       0	(  1  0  8)	  0  1
     60.3231	        	        	        	        	       0	(  2  0  2)	  0  1
     62.2359	        	        	        	        	       0	(  2  0  3)	  0  1
     64.6321	        	        	        	        	       0	(  1  1  6)	  0  1
     64.8594	        	        	        	        	       0	(  2  0  4)	  0  1
     65.4326	        	        	        	        	       0	(  0  0 10)	  0  1
     66.0261	        	        	        	        	       0	(  1  0  9)	  0  1
     68.1528	        	        	        	        	       0	(  2  0  5)	  0  1
     72.0794	        	        	        	        	       0	(  2  0  6)	  0  1
     72.8407	        	        	        	        	       0	(  1  0 10)	  0  1
     74.6675	        	        	        	        	       0	(  1  1  8)	  0  1
     76.6124	        	        	        	        	       0	(  2  0  7)	  0  1
     80.0965	        	        	        	        	       0	(  1  0 11)	  0  1
     80.9093	        	        	        	        	       0	(  0  0 12)	  0  1
     81.0069	        	        	        	        	       0	(  2  1  0)	  0  1
     81.3466	        	        	        	        	       0	(  2  1  1)	  0  1
     81.7413	        	        	        	        	       0	(  2  0  8)	  0  1
     82.3642	        	        	        	        	       0	(  2  1  2)	  0  1
     84.0551	        	        	        	        	       0	(  2  1  3)	  0  1
     86.4141	        	        	        	        	       0	(  2  1  4)	  0  1
     86.9357	        	        	        	        	       0	(  1  1 10)	  0  1
     87.4778	        	        	        	        	       0	(  2  0  9)	  0  1
     87.8686	        	        	        	        	       0	(  1  0 12)	  0  1
     89.4391	        	        	        	        	       0	(  2  1  5)	  0  1
     93.1355	        	        	        	        	       0	(  2  1  6)	  0  1
     93.8634	        	        	        	        	       0	(  2  0 10)	  0  1
     94.8951	        	        	        	        	       0	(  3  0  0)	  0  1
     95.2323	        	        	        	        	       0	(  3  0  1)	  0  1
     96.2453	        	        	        	        	       0	(  3  0  2)	  0  1
     96.2793	        	        	        	        	       0	(  1  0 13)	  0  1
     97.5228	        	        	        	        	       0	(  2  1  7)	  0  1
     97.9381	        	        	        	        	       0	(  3  0  3)	  0  1
     98.4433	        	        	        	        	       0	(  0  0 14)	  0  1
    100.3204	        	        	        	        	       0	(  3  0  4)	  0  1
    100.9830	        	        	        	        	       0	(  2  0 11)	  0  1
    101.8014	        	        	        	        	       0	(  1  1 12)	  0  1
    102.6437	        	        	        	        	       0	(  2  1  8)	  0  1
    103.4111	        	        	        	        	       0	(  3  0  5)	  0  1
    105.5285	        	        	        	        	       0	(  1  0 14)	  0  1
    107.2450	        	        	        	        	       0	(  3  0  6)	  0  1
    108.5785	        	        	        	        	       0	(  2  1  9)	  0  1
    108.9913	        	        	        	        	       0	(  2  0 12)	  0  1
    111.8838	        	        	        	        	       0	(  3  0  7)	  0  1
    115.4728	        	        	        	        	       0	(  2  1 10)	  0  1
    115.9674	        	        	        	        	       0	(  1  0 15)	  0  1
    116.6188	        	        	        	        	       0	(  2  2  0)	  0  1
    117.4352	        	        	        	        	       0	(  3  0  8)	  0  1
    118.1335	        	        	        	        	       0	(  2  2  2)	  0  1
    118.1718	        	        	        	        	       0	(  2  0 13)	  0  1
    119.9222	        	        	        	        	       0	(  0  0 16)	  0  1
    120.6377	        	        	        	        	       0	(  1  1 14)	  0  1
    122.8174	        	        	        	        	       0	(  2  2  4)	  0  1
    123.5964	        	        	        	        	       0	(  2  1 11)	  0  1
    124.0924	        	        	        	        	       0	(  3  0  9)	  0  1
    124.6834	        	        	        	        	       0	(  3  1  0)	  0  1
    125.0935	        	        	        	        	       0	(  3  1  1)	  0  1
    126.3365	        	        	        	        	       0	(  3  1  2)	  0  1
    128.3041	        	        	        	        	       0	(  1  0 16)	  0  1
    128.4539	        	        	        	        	       0	(  3  1  3)	  0  1
    129.0962	        	        	        	        	       0	(  2  0 14)	  0  1
    131.2540	        	        	        	        	       0	(  2  2  6)	  0  1
    131.5287	        	        	        	        	       0	(  3  1  4)	  0  1
    132.2294	        	        	        	        	       0	(  3  0 10)	  0  1
    133.5037	        	        	        	        	       0	(  2  1 12)	  0  1
    135.7140	        	        	        	        	       0	(  3  1  5)	  0  1
    141.3069	        	        	        	        	       0	(  3  1  6)	  0  1
    142.7023	        	        	        	        	       0	(  3  0 11)	  0  1
    143.2268	        	        	        	        	       0	(  2  0 15)	  0  1
    144.4617	        	        	        	        	       0	(  1  0 17)	  0  1
    145.4812	        	        	        	        	       0	(  2  2  8)	  0  1
    146.6509	        	        	        	        	       0	(  2  1 13)	  0  1
    148.9761	        	        	        	        	       0	(  3  1  7)	  0  1
    149.5537	        	        	        	        	       0	(  1  1 16)	  0  1
    153.9457	        	        	        	        	       0	(  0  0 18)	  0  1
    158.5676	        	        	        	        	       0	(  3  0 12)	  0  1
    158.8345	        	        	        	        	       0	(  4  0  0)	  0  1
    159.7908	        	        	        	        	       0	(  4  0  1)	  0  1
    160.9607	        	        	        	        	       0	(  3  1  8)	  0  1
    162.9673	        	        	        	        	       0	(  4  0  2)	  0  1
    169.6240	        	        	        	        	       0	(  2  0 16)	  0  1
    170.3052	        	        	        	        	       0	(  4  0  3)	  0  1
    174.0333	        	        	        	        	       0	(  2  1 14)	  0  1
