MSG Master    CELL:    5.89576   5.89576  23.16459   90.0000   90.0000  120.0000   SPGR: P 63/m m c             TEMP:    723.05
  2   1280     2.52000     0.00000    -0.11691     0.00000     0.00000    0
    96    96     0     0     2
       0.00000      10.00000
     125.00000     130.00000
 2Theta	Yobs	Ycal	Yobs-Ycal	Backg	Posr	(hkl)	K
      0.7700	    0.00	  551.47	-1811.25	  435.45
      0.8700	    0.00	  552.97	-1811.25	  436.96
      0.9700	   40.00	  554.46	-1811.25	  438.44
      1.0700	   43.00	  555.93	-1811.25	  439.91
      1.1700	   47.00	  557.38	-1811.25	  441.36
      1.2700	   46.00	  558.81	-1811.25	  442.80
      1.3700	   54.00	  560.23	-1811.25	  444.21
      1.4700	   92.00	  561.63	-1811.25	  445.61
      1.5700	  285.00	  563.01	-1811.25	  447.00
      1.6700	  473.00	  564.38	-1811.25	  448.36
      1.7700	  573.00	  565.73	-1811.25	  449.71
      1.8700	  667.00	  567.06	-1811.25	  451.05
      1.9700	  712.00	  568.38	-1811.25	  452.36
      2.0700	  752.00	  569.68	-1811.25	  453.66
      2.1700	  784.00	  570.96	-1811.25	  454.95
      2.2700	  792.00	  572.23	-1811.25	  456.21
      2.3700	  701.00	  573.48	-1811.25	  457.46
      2.4700	  716.00	  574.72	-1811.25	  458.70
      2.5700	  674.00	  575.94	-1811.25	  459.92
      2.6700	  649.00	  577.14	-1811.25	  461.12
      2.7700	  591.00	  578.33	-1811.25	  462.31
      2.8700	  632.00	  579.50	-1811.25	  463.48
      2.9700	  644.00	  580.66	-1811.25	  464.64
      3.0700	  609.00	  581.80	-1811.25	  465.78
      3.1700	  609.00	  582.93	-1811.25	  466.91
      3.2700	  723.00	  584.04	-1811.25	  468.02
      3.3700	  948.00	  585.13	-1811.25	  469.12
      3.4700	 1022.00	  586.22	-1811.25	  470.20
      3.5700	 1140.00	  587.28	-1811.25	  471.27
      3.6700	 1267.00	  588.33	-1811.25	  472.32
      3.7700	 1428.00	  589.37	-1811.25	  473.35
      3.8700	 1401.00	  590.39	-1811.25	  474.38
      3.9700	 1477.00	  591.40	-1811.25	  475.38
      4.0700	 1542.00	  592.39	-1811.25	  476.38
      4.1700	 1529.00	  593.37	-1811.25	  477.36
      4.2700	 1595.00	  594.34	-1811.25	  478.32
      4.3700	 1530.00	  595.29	-1811.25	  479.27
      4.4700	 1446.00	  596.22	-1811.25	  480.21
      4.5700	 1427.00	  597.15	-1811.25	  481.13
      4.6700	 1412.00	  598.06	-1811.25	  482.04
      4.7700	 1393.00	  598.95	-1811.25	  482.93
      4.8700	 1328.00	  599.83	-1811.25	  483.81
      4.9700	 1264.00	  600.70	-1811.25	  484.68
      5.0700	 1276.00	  601.55	-1811.25	  485.54
      5.1700	 1176.00	  602.39	-1811.25	  486.38
      5.2700	 1228.00	  603.22	-1811.25	  487.20
      5.3700	 1159.00	  604.04	-1811.25	  488.02
      5.4700	 1102.00	  604.84	-1811.25	  488.82
      5.5700	 1057.00	  605.63	-1811.25	  489.61
      5.6700	 1063.00	  606.40	-1811.25	  490.38
      5.7700	 1085.00	  607.16	-1811.25	  491.15
      5.8700	 1003.00	  607.91	-1811.25	  491.90
      5.9700	 1003.00	  608.65	-1811.25	  492.63
      6.0700	 1007.00	  609.37	-1811.25	  493.36
      6.1700	 1034.00	  610.09	-1811.25	  494.07
      6.2700	  914.00	  610.79	-1811.25	  494.77
      6.3700	  953.00	  611.47	-1811.25	  495.46
      6.4700	  897.00	  612.15	-1811.25	  496.13
      6.5700	  849.00	  612.81	-1811.25	  496.79
      6.6700	  876.00	  613.46	-1811.25	  497.44
      6.7700	  863.00	  614.10	-1811.25	  498.08
      6.8700	  882.00	  614.73	-1811.25	  498.71
      6.9700	  816.00	  615.34	-1811.25	  499.33
      7.0700	  860.00	  615.95	-1811.25	  499.93
      7.1700	  762.00	  616.54	-1811.25	  500.52
      7.2700	  790.00	  617.12	-1811.25	  501.10
      7.3700	  780.00	  617.69	-1811.25	  501.67
      7.4700	  823.00	  618.25	-1811.25	  502.23
      7.5700	  807.00	  618.79	-1811.25	  502.77
      7.6700	  738.00	  619.33	-1811.25	  503.31
      7.7700	  747.00	  619.85	-1811.25	  503.83
      7.8700	  749.00	  620.36	-1811.25	  504.35
      7.9700	  706.00	  620.86	-1811.25	  504.85
      8.0700	  793.00	  621.36	-1811.25	  505.34
      8.1700	  732.00	  621.84	-1811.25	  505.82
      8.2700	  803.00	  622.31	-1811.25	  506.29
      8.3700	  768.00	  622.76	-1811.25	  506.75
      8.4700	  731.00	  623.21	-1811.25	  507.20
      8.5700	  708.00	  623.65	-1811.25	  507.63
      8.6700	  706.00	  624.08	-1811.25	  508.06
      8.7700	  688.00	  624.49	-1811.25	  508.48
      8.8700	  711.00	  624.90	-1811.25	  508.88
      8.9700	  732.00	  625.30	-1811.25	  509.28
      9.0700	  692.00	  625.68	-1811.25	  509.67
      9.1700	  673.00	  626.06	-1811.25	  510.04
      9.2700	  669.00	  626.43	-1811.25	  510.41
      9.3700	  703.00	  626.79	-1811.25	  510.77
      9.4700	  694.00	  627.13	-1811.25	  511.12
      9.5700	  715.00	  627.47	-1811.25	  511.45
      9.6700	  634.00	  627.80	-1811.25	  511.78
      9.7700	  658.00	  628.12	-1811.25	  512.10
      9.8700	  734.00	  628.42	-1811.25	  512.41
      9.9700	  685.00	  628.72	-1811.25	  512.71
     10.0700	  692.00	  631.31	-1750.56	  513.00
     10.1700	  685.00	  631.85	-1758.10	  513.28
     10.2700	  705.00	  632.45	-1738.70	  513.55
     10.3700	  674.00	  633.11	-1770.36	  513.81
     10.4700	  692.00	  633.88	-1753.13	  514.07
     10.5700	  643.00	  634.80	-1803.05	  514.31
     10.6700	  659.00	  635.98	-1788.23	  514.55
     10.7700	  648.00	  637.49	-1800.74	  514.77
     10.8700	  624.00	  639.45	-1826.70	  514.99
     10.9700	  627.00	  641.91	-1826.16	  515.20
     11.0700	  673.00	  644.90	-1783.15	  515.40
     11.1700	  693.00	  648.43	-1766.68	  515.60
     11.2700	  680.00	  652.54	-1783.79	  515.78
     11.3700	  670.00	  657.31	-1798.56	  515.96
     11.4700	  648.00	  662.87	-1826.12	  516.12
     11.5700	  676.00	  669.44	-1804.69	  516.28
     11.6700	  670.00	  677.30	-1818.55	  516.44
     11.7700	  701.00	  686.81	-1797.06	  516.58
     11.8700	  704.00	  698.18	-1805.43	  516.71
     11.9700	  787.00	  711.17	-1735.42	  516.84
     12.0700	  739.00	  724.48	-1796.73	  516.96
     12.1700	  782.00	  735.15	-1764.40	  517.07
     12.2700	  772.00	  738.27	-1777.52	  517.18
     12.3700	  770.00	  729.31	-1770.56	  517.27
     12.4700	  728.00	  710.27	-1793.52	  517.36
     12.5700	  707.00	  689.24	-1793.49	  517.44
     12.6700	  688.00	  671.95	-1795.20	  517.52
     12.7700	  653.00	  659.75	-1818.00	  517.58
     12.8700	  651.00	  651.89	-1812.14	  517.64
     12.9700	  669.00	  647.01	-1789.26	  517.70
     13.0700	  642.00	  643.97	-1813.22	  517.74
     13.1700	  586.00	  641.98	-1867.23	  517.78
     13.2700	  631.00	  640.59	-1820.84	  517.81
     13.3700	  622.00	  639.56	-1828.81	  517.83
     13.4700	  562.00	  638.76	-1888.01	  517.85
     13.5700	  644.00	  638.12	-1805.37	  517.86
     13.6700	  639.00	  637.60	-1809.85	  517.86
     13.7700	  644.00	  637.17	-1804.42	  517.86
     13.8700	  637.00	  636.80	-1811.05	  517.85
     13.9700	  637.00	  636.48	-1810.73	  517.83
     14.0700	  591.00	  636.21	-1856.46	  517.81
     14.1700	  611.00	  635.96	-1836.21	  517.78
     14.2700	  614.00	  635.74	-1832.99	  517.74
     14.3700	  626.00	  635.54	-1820.79	  517.70
     14.4700	  622.00	  635.35	-1824.60	  517.65
     14.5700	  619.00	  635.17	-1827.42	  517.60
     14.6700	  618.00	  635.00	-1828.25	  517.53
     14.7700	  608.00	  634.83	-1838.08	  517.47
     14.8700	  608.00	  634.67	-1837.92	  517.39
     14.9700	  586.00	  634.52	-1859.77	  517.31
     15.0700	  610.00	  634.36	-1835.61	  517.23
     15.1700	  590.00	  634.21	-1855.46	  517.14
     15.2700	  629.00	  634.06	-1816.31	  517.04
     15.3700	  649.00	  633.90	-1796.15	  516.94
     15.4700	  579.00	  633.75	-1866.00	  516.83
     15.5700	  636.00	  633.59	-1808.84	  516.72
     15.6700	  609.00	  633.44	-1835.69	  516.60
     15.7700	  633.00	  633.28	-1811.53	  516.47
     15.8700	  634.00	  633.11	-1810.36	  516.34
     15.9700	  623.00	  632.95	-1821.20	  516.21
     16.0700	  592.00	  632.78	-1852.03	  516.06
     16.1700	  607.00	  632.61	-1836.86	  515.92
     16.2700	  647.00	  632.43	-1796.68	  515.77
     16.3700	  639.00	  632.26	-1804.51	  515.61
     16.4700	  629.00	  632.07	-1814.32	  515.45
     16.5700	  608.00	  631.89	-1835.14	  515.28
     16.6700	  622.00	  631.70	-1820.95	  515.11
     16.7700	  622.00	  631.51	-1820.76	  514.93
     16.8700	  598.00	  631.31	-1844.56	  514.75
     16.9700	  630.00	  631.11	-1812.36	  514.57
     17.0700	  601.00	  630.91	-1841.16	  514.38
     17.1700	  599.00	  630.70	-1842.95	  514.18
     17.2700	  611.00	  630.49	-1830.74	  513.98
     17.3700	  622.00	  630.28	-1819.53	  513.77
     17.4700	  603.00	  630.06	-1838.31	  513.56
     17.5700	  632.00	  629.84	-1809.09	  513.35
     17.6700	  630.00	  630.02	-1811.27	  513.13
     17.7700	  630.00	  629.80	-1811.05	  512.91
     17.8700	  596.00	  629.87	-1845.12	  512.68
     17.9700	  595.00	  629.65	-1845.90	  512.45
     18.0700	  598.00	  629.42	-1842.67	  512.22
     18.1700	  603.00	  629.19	-1837.44	  511.98
     18.2700	  620.00	  628.96	-1820.21	  511.73
     18.3700	  617.00	  628.72	-1822.97	  511.48
     18.4700	  603.00	  628.48	-1836.73	  511.23
     18.5700	  599.00	  628.24	-1840.49	  510.98
     18.6700	  620.00	  628.00	-1819.25	  510.72
     18.7700	  568.00	  627.75	-1871.00	  510.45
     18.8700	  599.00	  627.50	-1839.75	  510.18
     18.9700	  605.00	  627.24	-1833.49	  509.91
     19.0700	  603.00	  626.99	-1835.24	  509.64
     19.1700	  548.00	  626.73	-1889.98	  509.36
     19.2700	  598.00	  626.46	-1839.71	  509.08
     19.3700	  574.00	  626.26	-1863.51	  508.79
     19.4700	  613.00	  626.00	-1824.25	  508.50
     19.5700	  623.00	  625.73	-1813.98	  508.21
     19.6700	  621.00	  625.46	-1815.71	  507.91
     19.7700	  618.00	  625.19	-1818.44	  507.61
     19.8700	  638.00	  624.91	-1798.16	  507.31
     19.9700	  592.00	  624.64	-1843.89	  507.01
     20.0700	  606.00	  624.36	-1829.61	  506.70
     20.1700	  604.00	  624.08	-1831.33	  506.38
     20.2700	  627.00	  623.80	-1808.05	  506.07
     20.3700	  607.00	  623.52	-1827.77	  505.75
     20.4700	  609.00	  623.24	-1825.49	  505.43
     20.5700	  598.00	  622.95	-1836.20	  505.10
     20.6700	  627.00	  622.67	-1806.92	  504.78
     20.7700	  611.00	  622.38	-1822.63	  504.44
     20.8700	  595.00	  622.10	-1838.35	  504.11
     20.9700	  612.00	  621.81	-1821.06	  503.77
     21.0700	  588.00	  621.52	-1844.77	  503.44
     21.1700	  607.00	  621.24	-1825.49	  503.09
     21.2700	  614.00	  620.95	-1818.20	  502.75
     21.3700	  614.00	  620.67	-1817.92	  502.40
     21.4700	  580.00	  620.38	-1851.63	  502.05
     21.5700	  630.00	  620.10	-1801.35	  501.70
     21.6700	  623.00	  619.82	-1808.07	  501.35
     21.7700	  616.00	  619.71	-1814.96	  500.99
     21.8700	  591.00	  619.44	-1839.69	  500.63
     21.9700	  624.00	  619.17	-1806.42	  500.27
     22.0700	  619.00	  618.91	-1811.16	  499.90
     22.1700	  607.00	  618.65	-1822.90	  499.54
     22.2700	  620.00	  618.39	-1809.64	  499.17
     22.3700	  606.00	  618.14	-1823.39	  498.80
     22.4700	  598.00	  617.90	-1831.15	  498.42
     22.5700	  606.00	  617.67	-1822.92	  498.05
     22.6700	  603.00	  617.45	-1825.70	  497.67
     22.7700	  597.00	  617.25	-1831.50	  497.29
     22.8700	  668.00	  617.06	-1760.31	  496.91
     22.9700	  608.00	  616.88	-1820.13	  496.53
     23.0700	  627.00	  616.73	-1800.98	  496.14
     23.1700	  604.00	  616.61	-1823.86	  495.75
     23.2700	  650.00	  616.52	-1777.77	  495.36
     23.3700	  617.00	  616.47	-1810.72	  494.97
     23.4700	  643.00	  616.48	-1784.73	  494.58
     23.5700	  614.00	  616.56	-1813.81	  494.19
     23.6700	  625.00	  616.73	-1802.98	  493.79
     23.7700	  626.00	  616.97	-1802.22	  493.39
     23.8700	  625.00	  617.49	-1803.74	  492.99
     23.9700	  623.00	  618.33	-1806.58	  492.59
     24.0700	  661.00	  619.68	-1769.93	  492.19
     24.1700	  586.00	  621.84	-1847.09	  491.78
     24.2700	  633.00	  625.21	-1803.46	  491.38
     24.3700	  641.00	  630.24	-1800.49	  490.97
     24.4700	  607.00	  637.29	-1841.54	  490.56
     24.5700	  695.00	  646.35	-1762.60	  490.15
     24.6700	  700.00	  656.84	-1768.09	  489.74
     24.7700	  715.00	  667.16	-1763.41	  489.33
     24.8700	  673.00	  674.39	-1812.64	  488.92
     24.9700	  767.00	  674.78	-1719.03	  488.50
     25.0700	  735.00	  666.85	-1743.10	  488.08
     25.1700	  717.00	  654.28	-1748.53	  487.67
     25.2700	  668.00	  642.02	-1785.27	  487.25
     25.3700	  643.00	  632.47	-1800.72	  486.83
     25.4700	  650.00	  625.92	-1787.17	  486.41
     25.5700	  653.00	  621.80	-1780.05	  485.99
     25.6700	  628.00	  619.38	-1802.63	  485.57
     25.7700	  692.00	  618.01	-1737.26	  485.14
     25.8700	  609.00	  617.30	-1819.55	  484.72
     25.9700	  664.00	  617.00	-1764.25	  484.29
     26.0700	  680.00	  617.02	-1748.27	  483.87
     26.1700	  673.00	  617.29	-1755.54	  483.44
     26.2700	  673.00	  617.82	-1756.07	  483.01
     26.3700	  652.00	  618.59	-1777.84	  482.58
     26.4700	  722.00	  619.65	-1708.90	  482.15
     26.5700	  697.00	  621.01	-1735.26	  481.72
     26.6700	  656.00	  622.74	-1777.99	  481.29
     26.7700	  716.00	  624.91	-1720.16	  480.86
     26.8700	  682.00	  627.62	-1756.87	  480.43
     26.9700	  705.00	  631.02	-1737.27	  480.00
     27.0700	  710.00	  635.31	-1736.56	  479.57
     27.1700	  705.00	  640.79	-1747.04	  479.13
     27.2700	  700.00	  647.96	-1759.21	  478.70
     27.3700	  693.00	  657.76	-1776.01	  478.27
     27.4700	  709.00	  671.94	-1774.19	  477.83
     27.5700	  738.00	  693.85	-1767.10	  477.40
     27.6700	  735.00	  729.39	-1805.64	  476.96
     27.7700	  797.00	  787.90	-1802.15	  476.52
     27.8700	  896.00	  881.58	-1796.83	  476.09
     27.9700	  882.00	 1021.50	-1950.75	  475.65
     28.0700	 1122.00	 1209.52	-1898.77	  475.22
     28.1700	 1373.00	 1428.26	-1866.51	  474.78
     28.2700	 1697.00	 1631.89	-1746.14	  474.34
     28.3700	 1926.00	 1745.61	-1630.86	  473.90
     28.4700	 1817.00	 1706.33	-1700.58	  473.47
     28.5700	 1554.00	 1554.79	-1812.04	  473.03
     28.6700	 1334.00	 1409.96	-1887.21	  472.59
     28.7700	 1203.00	 1344.65	-1952.90	  472.16
     28.8700	 1274.00	 1361.38	-1898.63	  471.72
     28.9700	 1363.00	 1415.49	-1863.74	  471.28
     29.0700	 1416.00	 1435.52	-1830.77	  470.84
     29.1700	 1354.00	 1360.40	-1817.65	  470.41
     29.2700	 1260.00	 1201.15	-1752.40	  469.97
     29.3700	 1014.00	 1026.16	-1823.41	  469.53
     29.4700	  928.00	  883.13	-1766.39	  469.09
     29.5700	  837.00	  784.03	-1758.28	  468.66
     29.6700	  799.00	  722.37	-1734.62	  468.22
     29.7700	  759.00	  686.15	-1738.40	  467.78
     29.8700	  748.00	  664.76	-1728.01	  467.35
     29.9700	  781.00	  651.40	-1681.65	  466.91
     30.0700	  763.00	  642.55	-1690.80	  466.48
     30.1700	  699.00	  636.71	-1748.96	  466.04
     30.2700	  663.00	  633.47	-1781.72	  465.61
     30.3700	  720.00	  633.12	-1724.37	  465.17
     30.4700	  678.00	  636.57	-1769.82	  464.74
     30.5700	  691.00	  645.21	-1765.46	  464.30
     30.6700	  680.00	  660.39	-1791.64	  463.87
     30.7700	  684.00	  682.29	-1809.54	  463.44
     30.8700	  709.00	  708.59	-1810.84	  463.00
     30.9700	  714.00	  733.43	-1830.68	  462.57
     31.0700	  743.00	  747.22	-1815.47	  462.14
     31.1700	  731.00	  740.53	-1820.78	  461.71
     31.2700	  735.00	  714.36	-1790.61	  461.28
     31.3700	  675.00	  681.20	-1817.45	  460.85
     31.4700	  636.00	  651.75	-1827.00	  460.42
     31.5700	  673.00	  629.94	-1768.19	  459.99
     31.6700	  607.00	  615.50	-1819.75	  459.56
     31.7700	  688.00	  606.58	-1729.83	  459.13
     31.8700	  611.00	  601.15	-1801.40	  458.71
     31.9700	  621.00	  597.72	-1787.97	  458.28
     32.0700	  611.00	  595.40	-1795.65	  457.86
     32.1700	  567.00	  593.75	-1838.00	  457.43
     32.2700	  597.00	  592.55	-1806.80	  457.01
     32.3700	  625.00	  591.71	-1777.96	  456.58
     32.4700	  587.00	  591.20	-1815.45	  456.16
     32.5700	  612.00	  591.02	-1790.27	  455.74
     32.6700	  545.00	  591.13	-1857.38	  455.32
     32.7700	  610.00	  591.59	-1792.84	  454.90
     32.8700	  605.00	  592.46	-1798.71	  454.48
     32.9700	  635.00	  593.84	-1770.09	  454.06
     33.0700	  647.00	  595.89	-1760.14	  453.64
     33.1700	  586.00	  598.91	-1824.16	  453.23
     33.2700	  607.00	  603.48	-1807.73	  452.81
     33.3700	  614.00	  610.66	-1807.91	  452.40
     33.4700	  565.00	  622.38	-1868.63	  451.99
     33.5700	  639.00	  641.77	-1814.02	  451.57
     33.6700	  660.00	  673.08	-1824.33	  451.16
     33.7700	  700.00	  720.72	-1831.97	  450.75
     33.8700	  797.00	  786.68	-1800.93	  450.34
     33.9700	  886.00	  866.68	-1791.93	  449.93
     34.0700	  991.00	  946.82	-1767.07	  449.53
     34.1700	 1119.00	 1002.67	-1694.92	  449.12
     34.2700	 1072.00	 1006.61	-1745.86	  448.72
     34.3700	  979.00	  951.78	-1784.03	  448.31
     34.4700	  887.00	  865.01	-1789.26	  447.91
     34.5700	  728.00	  778.94	-1862.19	  447.51
     34.6700	  715.00	  710.02	-1806.27	  447.11
     34.7700	  668.00	  661.54	-1804.79	  446.71
     34.8700	  602.00	  630.30	-1839.55	  446.31
     34.9700	  677.00	  611.15	-1745.40	  445.92
     35.0700	  597.00	  599.38	-1813.63	  445.52
     35.1700	  628.00	  591.77	-1775.02	  445.13
     35.2700	  587.00	  586.43	-1810.68	  444.73
     35.3700	  521.00	  582.40	-1872.65	  444.34
     35.4700	  591.00	  579.20	-1799.45	  443.95
     35.5700	  535.00	  576.59	-1852.84	  443.56
     35.6700	  558.00	  574.88	-1828.13	  443.18
     35.7700	  543.00	  573.02	-1841.27	  442.79
     35.8700	  537.00	  571.43	-1845.68	  442.40
     35.9700	  545.00	  570.04	-1836.29	  442.02
     36.0700	  515.00	  568.82	-1865.07	  441.64
     36.1700	  519.00	  567.75	-1860.00	  441.26
     36.2700	  554.00	  566.79	-1824.04	  440.88
     36.3700	  592.00	  565.94	-1785.19	  440.50
     36.4700	  562.00	  565.18	-1814.43	  440.12
     36.5700	  577.00	  564.52	-1798.77	  439.75
     36.6700	  557.00	  563.95	-1818.20	  439.38
     36.7700	  567.00	  563.66	-1807.91	  439.00
     36.8700	  528.00	  563.26	-1846.51	  438.63
     36.9700	  567.00	  563.02	-1807.27	  438.26
     37.0700	  593.00	  562.99	-1781.24	  437.90
     37.1700	  552.00	  563.24	-1822.49	  437.53
     37.2700	  556.00	  563.94	-1819.19	  437.17
     37.3700	  560.00	  565.29	-1816.54	  436.80
     37.4700	  524.00	  567.53	-1854.78	  436.44
     37.5700	  584.00	  570.92	-1798.17	  436.08
     37.6700	  591.00	  575.56	-1795.81	  435.72
     37.7700	  587.00	  581.25	-1805.50	  435.37
     37.8700	  598.00	  587.34	-1800.59	  435.01
     37.9700	  564.00	  592.80	-1840.05	  434.66
     38.0700	  575.00	  596.59	-1832.84	  434.31
     38.1700	  544.00	  597.77	-1865.02	  433.95
     38.2700	  581.00	  595.31	-1825.56	  433.61
     38.3700	  581.00	  589.06	-1819.31	  433.26
     38.4700	  538.00	  580.92	-1854.17	  432.91
     38.5700	  572.00	  573.04	-1812.29	  432.57
     38.6700	  579.00	  566.58	-1798.83	  432.23
     38.7700	  549.00	  561.79	-1824.04	  431.89
     38.8700	  535.00	  558.46	-1834.71	  431.55
     38.9700	  507.00	  556.21	-1860.46	  431.21
     39.0700	  541.00	  554.68	-1824.93	  430.88
     39.1700	  575.00	  553.57	-1789.82	  430.54
     39.2700	  525.00	  552.71	-1838.96	  430.21
     39.3700	  501.00	  551.61	-1861.86	  429.88
     39.4700	  544.00	  551.00	-1818.25	  429.55
     39.5700	  544.00	  550.46	-1817.71	  429.22
     39.6700	  541.00	  549.97	-1820.22	  428.90
     39.7700	  555.00	  549.52	-1805.77	  428.57
     39.8700	  564.00	  549.11	-1796.36	  428.25
     39.9700	  522.00	  549.29	-1838.54	  427.93
     40.0700	  540.00	  548.95	-1820.20	  427.62
     40.1700	  539.00	  548.63	-1820.88	  427.30
     40.2700	  514.00	  548.33	-1845.58	  426.98
     40.3700	  527.00	  548.06	-1832.31	  426.67
     40.4700	  537.00	  547.52	-1821.77	  426.36
     40.5700	  513.00	  547.30	-1845.55	  426.05
     40.6700	  513.00	  547.10	-1845.35	  425.74
     40.7700	  559.00	  546.94	-1799.19	  425.44
     40.8700	  505.00	  546.80	-1853.05	  425.14
     40.9700	  515.00	  546.70	-1842.95	  424.83
     41.0700	  525.00	  546.64	-1832.89	  424.53
     41.1700	  536.00	  546.68	-1821.93	  424.24
     41.2700	  547.00	  546.72	-1810.97	  423.94
     41.3700	  502.00	  546.83	-1856.08	  423.64
     41.4700	  575.00	  547.02	-1783.27	  423.35
     41.5700	  509.00	  547.33	-1849.58	  423.06
     41.6700	  516.00	  547.78	-1843.03	  422.77
     41.7700	  531.00	  548.45	-1828.70	  422.48
     41.8700	  570.00	  549.46	-1790.71	  422.20
     41.9700	  593.00	  551.03	-1769.28	  421.92
     42.0700	  525.00	  553.62	-1839.87	  421.63
     42.1700	  524.00	  557.83	-1845.08	  421.35
     42.2700	  565.00	  564.37	-1810.62	  421.08
     42.3700	  560.00	  574.31	-1825.56	  420.80
     42.4700	  587.00	  588.36	-1812.61	  420.53
     42.5700	  520.00	  606.46	-1897.71	  420.26
     42.6700	  639.00	  627.03	-1799.28	  419.99
     42.7700	  657.00	  646.46	-1800.71	  419.72
     42.8700	  612.00	  658.38	-1857.63	  419.45
     42.9700	  626.00	  657.56	-1842.81	  419.19
     43.0700	  604.00	  644.05	-1851.30	  418.92
     43.1700	  583.00	  623.53	-1851.78	  418.66
     43.2700	  626.00	  602.36	-1787.61	  418.40
     43.3700	  587.00	  584.20	-1808.45	  418.15
     43.4700	  553.00	  570.32	-1828.57	  417.89
     43.5700	  548.00	  560.57	-1823.82	  417.64
     43.6700	  531.00	  554.12	-1834.37	  417.39
     43.7700	  526.00	  549.98	-1835.23	  417.14
     43.8700	  476.00	  547.31	-1882.56	  416.89
     43.9700	  566.00	  545.72	-1790.97	  416.65
     44.0700	  581.00	  544.43	-1774.68	  416.40
     44.1700	  551.00	  543.44	-1803.69	  416.16
     44.2700	  537.00	  542.66	-1816.91	  415.92
     44.3700	  547.00	  542.01	-1806.26	  415.69
     44.4700	  537.00	  541.48	-1815.73	  415.45
     44.5700	  577.00	  541.04	-1775.29	  415.22
     44.6700	  586.00	  540.66	-1765.91	  414.98
     44.7700	  557.00	  540.35	-1794.60	  414.75
     44.8700	  536.00	  540.08	-1815.33	  414.53
     44.9700	  551.00	  539.87	-1800.12	  414.30
     45.0700	  572.00	  539.71	-1778.96	  414.08
     45.1700	  557.00	  539.66	-1793.91	  413.85
     45.2700	  581.00	  539.56	-1769.81	  413.63
     45.3700	  553.00	  539.49	-1797.74	  413.42
     45.4700	  567.00	  539.46	-1783.71	  413.20
     45.5700	  548.00	  539.46	-1802.71	  412.99
     45.6700	  531.00	  539.55	-1819.80	  412.77
     45.7700	  515.00	  539.62	-1835.87	  412.56
     45.8700	  581.00	  539.73	-1769.98	  412.35
     45.9700	  567.00	  539.88	-1784.13	  412.15
     46.0700	  511.00	  540.08	-1840.33	  411.94
     46.1700	  515.00	  540.32	-1836.57	  411.74
     46.2700	  566.00	  540.62	-1785.87	  411.54
     46.3700	  528.00	  540.98	-1824.23	  411.34
     46.4700	  545.00	  541.41	-1807.66	  411.14
     46.5700	  548.00	  541.93	-1805.18	  410.95
     46.6700	  504.00	  542.37	-1849.62	  410.76
     46.7700	  528.00	  543.12	-1826.37	  410.56
     46.8700	  556.00	  544.03	-1799.28	  410.37
     46.9700	  523.00	  545.17	-1833.42	  410.19
     47.0700	  560.00	  546.66	-1797.91	  410.00
     47.1700	  529.00	  548.70	-1830.95	  409.82
     47.2700	  548.00	  551.63	-1814.88	  409.64
     47.3700	  562.00	  555.94	-1805.19	  409.46
     47.4700	  585.00	  562.24	-1788.49	  409.28
     47.5700	  596.00	  571.15	-1786.40	  409.10
     47.6700	  594.00	  583.09	-1800.34	  408.93
     47.7700	  597.00	  598.41	-1812.66	  408.76
     47.8700	  612.00	  615.10	-1814.35	  408.59
     47.9700	  649.00	  631.16	-1793.41	  408.42
     48.0700	  592.00	  642.71	-1861.96	  408.25
     48.1700	  613.00	  645.92	-1844.17	  408.09
     48.2700	  650.00	  639.98	-1801.23	  407.93
     48.3700	  635.00	  628.06	-1804.31	  407.76
     48.4700	  575.00	  614.56	-1850.81	  407.61
     48.5700	  592.00	  602.62	-1821.87	  407.45
     48.6700	  575.00	  593.79	-1830.04	  407.29
     48.7700	  596.00	  588.53	-1803.78	  407.14
     48.8700	  571.00	  586.70	-1826.95	  406.99
     48.9700	  587.00	  587.87	-1812.12	  406.84
     49.0700	  621.00	  591.70	-1781.95	  406.69
     49.1700	  555.00	  598.12	-1854.37	  406.55
     49.2700	  583.00	  607.58	-1835.83	  406.40
     49.3700	  619.00	  621.49	-1813.74	  406.26
     49.4700	  592.00	  642.86	-1862.11	  406.12
     49.5700	  619.00	  677.35	-1869.60	  405.98
     49.6700	  705.00	  734.26	-1840.51	  405.84
     49.7700	  764.00	  826.60	-1873.85	  405.71
     49.8700	  850.00	  969.18	-1930.43	  405.58
     49.9700	 1045.00	 1173.50	-1939.75	  405.44
     50.0700	 1465.00	 1439.82	-1786.07	  405.32
     50.1700	 1908.00	 1748.17	-1651.42	  405.19
     50.2700	 2052.00	 2049.95	-1809.20	  405.06
     50.3700	 2459.00	 2266.26	-1618.51	  404.94
     50.4700	 2438.00	 2316.54	-1689.79	  404.82
     50.5700	 2393.00	 2177.09	-1595.34	  404.70
     50.6700	 1942.00	 1907.27	-1776.52	  404.58
     50.7700	 1575.00	 1596.44	-1832.69	  404.46
     50.8700	 1171.00	 1310.51	-1950.76	  404.34
     50.9700	  984.00	 1082.47	-1909.72	  404.23
     51.0700	  862.00	  920.19	-1869.44	  404.12
     51.1700	  753.00	  815.48	-1873.73	  404.01
     51.2700	  777.00	  752.77	-1787.02	  403.90
     51.3700	  704.00	  715.61	-1822.86	  403.79
     51.4700	  681.00	  691.10	-1821.35	  403.69
     51.5700	  698.00	  671.83	-1785.08	  403.59
     51.6700	  652.00	  655.37	-1814.62	  403.49
     51.7700	  622.00	  641.64	-1830.89	  403.39
     51.8700	  664.00	  630.92	-1778.17	  403.29
     51.9700	  628.00	  623.08	-1806.33	  403.19
     52.0700	  623.00	  617.45	-1805.70	  403.10
     52.1700	  642.00	  613.00	-1782.25	  403.01
     52.2700	  633.00	  608.98	-1787.23	  402.91
     52.3700	  607.00	  605.39	-1809.64	  402.82
     52.4700	  642.00	  602.88	-1772.13	  402.74
     52.5700	  613.00	  602.28	-1800.53	  402.65
     52.6700	  628.00	  604.54	-1787.79	  402.57
     52.7700	  655.00	  610.89	-1767.14	  402.48
     52.8700	  572.00	  623.11	-1862.36	  402.40
     52.9700	  647.00	  643.69	-1807.94	  402.32
     53.0700	  733.00	  675.75	-1754.00	  402.24
     53.1700	  800.00	  722.40	-1733.65	  402.17
     53.2700	  806.00	  786.02	-1791.27	  402.09
     53.3700	  913.00	  866.68	-1764.93	  402.02
     53.4700	  993.00	  960.48	-1778.73	  401.95
     53.5700	 1169.00	 1057.61	-1699.86	  401.88
     53.6700	 1203.00	 1140.73	-1748.98	  401.81
     53.7700	 1238.00	 1187.34	-1760.59	  401.74
     53.8700	 1285.00	 1180.74	-1706.99	  401.68
     53.9700	 1102.00	 1123.26	-1832.51	  401.61
     54.0700	 1043.00	 1034.62	-1802.87	  401.55
     54.1700	  963.00	  937.17	-1785.43	  401.49
     54.2700	  868.00	  846.46	-1789.71	  401.43
     54.3700	  733.00	  770.49	-1848.74	  401.37
     54.4700	  682.00	  711.87	-1841.12	  401.32
     54.5700	  668.00	  669.69	-1812.94	  401.26
     54.6700	  662.00	  641.15	-1790.40	  401.21
     54.7700	  626.00	  622.86	-1808.11	  401.16
     54.8700	  690.00	  611.71	-1732.96	  401.11
     54.9700	  599.00	  605.31	-1817.56	  401.06
     55.0700	  629.00	  602.05	-1784.30	  401.01
     55.1700	  639.00	  600.94	-1773.19	  400.97
     55.2700	  641.00	  601.48	-1771.73	  400.92
     55.3700	  602.00	  603.43	-1812.68	  400.88
     55.4700	  635.00	  606.74	-1782.99	  400.84
     55.5700	  575.00	  611.52	-1847.77	  400.80
     55.6700	  606.00	  618.01	-1823.26	  400.76
     55.7700	  665.00	  626.72	-1772.97	  400.72
     55.8700	  683.00	  638.59	-1766.84	  400.69
     55.9700	  704.00	  655.35	-1762.60	  400.65
     56.0700	  685.00	  680.04	-1806.29	  400.62
     56.1700	  735.00	  717.52	-1793.77	  400.59
     56.2700	  776.00	  775.16	-1810.41	  400.56
     56.3700	  817.00	  862.64	-1856.89	  400.53
     56.4700	  976.00	  990.85	-1826.10	  400.50
     56.5700	 1104.00	 1169.30	-1876.55	  400.47
     56.6700	 1346.00	 1402.15	-1867.40	  400.45
     56.7700	 1610.00	 1683.54	-1884.79	  400.42
     56.8700	 2062.00	 1992.37	-1741.62	  400.40
     56.9700	 2245.00	 2287.37	-1853.62	  400.38
     57.0700	 2501.00	 2506.91	-1817.16	  400.36
     57.1700	 2594.00	 2586.04	-1803.29	  400.34
     57.2700	 2433.00	 2496.40	-1874.65	  400.32
     57.3700	 2270.00	 2270.00	-1811.25	  400.31
     57.4700	 2051.00	 1973.58	-1733.83	  400.29
     57.5700	 1610.00	 1668.23	-1869.48	  400.28
     57.6700	 1312.00	 1393.60	-1892.85	  400.27
     57.7700	 1066.00	 1169.29	-1914.54	  400.25
     57.8700	  920.00	 1000.53	-1891.78	  400.24
     57.9700	  869.00	  883.07	-1825.32	  400.23
     58.0700	  798.00	  808.09	-1821.34	  400.23
     58.1700	  773.00	  766.23	-1804.48	  400.22
     58.2700	  735.00	  749.92	-1826.17	  400.21
     58.3700	  753.00	  754.41	-1812.66	  400.21
     58.4700	  757.00	  777.26	-1831.51	  400.21
     58.5700	  839.00	  817.26	-1789.51	  400.20
     58.6700	  876.00	  873.01	-1808.26	  400.20
     58.7700	  898.00	  941.40	-1854.65	  400.20
     58.8700	 1017.00	 1016.38	-1810.63	  400.20
     58.9700	 1062.00	 1089.23	-1838.48	  400.21
     59.0700	 1116.00	 1151.73	-1846.98	  400.21
     59.1700	 1208.00	 1199.49	-1802.74	  400.21
     59.2700	 1264.00	 1230.02	-1777.27	  400.22
     59.3700	 1225.00	 1240.01	-1826.26	  400.22
     59.4700	 1248.00	 1228.70	-1791.95	  400.23
     59.5700	 1214.00	 1203.35	-1800.60	  400.24
     59.6700	 1237.00	 1176.98	-1751.23	  400.25
     59.7700	 1183.00	 1161.12	-1789.37	  400.26
     59.8700	 1168.00	 1162.90	-1806.15	  400.27
     59.9700	 1181.00	 1186.67	-1816.92	  400.28
     60.0700	 1196.00	 1235.38	-1850.63	  400.30
     60.1700	 1312.00	 1308.63	-1807.88	  400.31
     60.2700	 1422.00	 1398.64	-1787.89	  400.33
     60.3700	 1492.00	 1488.04	-1807.29	  400.34
     60.4700	 1560.00	 1550.77	-1802.02	  400.36
     60.5700	 1625.00	 1560.00	-1746.25	  400.38
     60.6700	 1462.00	 1503.90	-1853.15	  400.39
     60.7700	 1438.00	 1394.29	-1767.54	  400.41
     60.8700	 1296.00	 1256.98	-1772.23	  400.43
     60.9700	 1135.00	 1116.49	-1792.74	  400.46
     61.0700	 1039.00	  989.77	-1762.02	  400.48
     61.1700	  870.00	  886.16	-1827.41	  400.50
     61.2700	  799.00	  809.27	-1821.52	  400.52
     61.3700	  740.00	  758.89	-1830.14	  400.55
     61.4700	  739.00	  733.15	-1805.40	  400.57
     61.5700	  728.00	  730.18	-1813.43	  400.60
     61.6700	  808.00	  749.16	-1752.41	  400.63
     61.7700	  802.00	  790.37	-1799.62	  400.65
     61.8700	  860.00	  854.32	-1805.57	  400.68
     61.9700	  957.00	  940.33	-1794.58	  400.71
     62.0700	 1002.00	 1044.77	-1854.02	  400.74
     62.1700	 1196.00	 1159.52	-1774.77	  400.77
     62.2700	 1308.00	 1270.56	-1773.81	  400.80
     62.3700	 1346.00	 1357.75	-1823.00	  400.83
     62.4700	 1338.00	 1398.93	-1872.18	  400.87
     62.5700	 1351.00	 1380.94	-1841.19	  400.90
     62.6700	 1264.00	 1308.84	-1856.09	  400.93
     62.7700	 1161.00	 1202.26	-1852.51	  400.97
     62.8700	 1037.00	 1083.19	-1857.44	  401.00
     62.9700	  925.00	  968.36	-1854.61	  401.04
     63.0700	  823.00	  868.07	-1856.32	  401.08
     63.1700	  729.00	  787.09	-1869.34	  401.11
     63.2700	  680.00	  726.09	-1857.34	  401.15
     63.3700	  677.00	  683.03	-1817.28	  401.19
     63.4700	  678.00	  654.57	-1787.82	  401.23
     63.5700	  655.00	  637.24	-1793.49	  401.27
     63.6700	  637.00	  628.31	-1802.56	  401.30
     63.7700	  638.00	  626.00	-1799.25	  401.35
     63.8700	  659.00	  629.70	-1781.95	  401.39
     63.9700	  668.00	  639.79	-1783.04	  401.43
     64.0700	  676.00	  657.42	-1792.67	  401.47
     64.1700	  698.00	  684.18	-1797.43	  401.51
     64.2700	  715.00	  721.68	-1817.93	  401.55
     64.3700	  785.00	  770.76	-1797.01	  401.60
     64.4700	  870.00	  831.29	-1772.54	  401.64
     64.5700	  936.00	  900.61	-1775.86	  401.68
     64.6700	  989.00	  973.84	-1796.09	  401.73
     64.7700	 1052.00	 1042.76	-1802.01	  401.77
     64.8700	 1090.00	 1096.81	-1818.06	  401.82
     64.9700	 1141.00	 1126.11	-1796.36	  401.86
     65.0700	 1116.00	 1125.57	-1820.82	  401.91
     65.1700	 1142.00	 1096.73	-1765.98	  401.96
     65.2700	 1038.00	 1046.81	-1820.06	  402.00
     65.3700	  958.00	  984.76	-1838.01	  402.05
     65.4700	  962.00	  920.94	-1770.19	  402.10
     65.5700	  831.00	  861.27	-1841.52	  402.14
     65.6700	  808.00	  808.87	-1812.12	  402.19
     65.7700	  752.00	  764.47	-1823.72	  402.24
     65.8700	  670.00	  727.60	-1868.85	  402.29
     65.9700	  638.00	  697.60	-1870.85	  402.34
     66.0700	  676.00	  673.95	-1809.20	  402.38
     66.1700	  635.00	  655.68	-1831.93	  402.43
     66.2700	  574.00	  642.17	-1879.42	  402.48
     66.3700	  640.00	  632.65	-1803.90	  402.53
     66.4700	  639.00	  626.40	-1798.65	  402.58
     66.5700	  609.00	  623.06	-1825.31	  402.63
     66.6700	  585.00	  622.39	-1848.64	  402.68
     66.7700	  583.00	  624.28	-1852.53	  402.73
     66.8700	  612.00	  628.92	-1828.17	  402.78
     66.9700	  661.00	  636.86	-1787.11	  402.83
     67.0700	  637.00	  649.22	-1823.47	  402.88
     67.1700	  680.00	  667.93	-1799.18	  402.93
     67.2700	  655.00	  695.98	-1852.23	  402.98
     67.3700	  713.00	  737.60	-1835.85	  403.03
     67.4700	  778.00	  798.15	-1831.40	  403.09
     67.5700	  807.00	  883.75	-1888.00	  403.14
     67.6700	  996.00	 1000.29	-1815.54	  403.19
     67.7700	 1133.00	 1151.97	-1830.22	  403.24
     67.8700	 1413.00	 1339.61	-1737.86	  403.29
     67.9700	 1585.00	 1558.69	-1784.94	  403.34
     68.0700	 1791.00	 1797.57	-1817.82	  403.39
     68.1700	 2068.00	 2035.89	-1779.14	  403.44
     68.2700	 2327.00	 2243.70	-1727.95	  403.49
     68.3700	 2379.00	 2384.44	-1816.69	  403.54
     68.4700	 2316.00	 2425.95	-1921.20	  403.60
     68.5700	 2336.00	 2357.35	-1832.60	  403.65
     68.6700	 2195.00	 2196.24	-1812.49	  403.70
     68.7700	 1976.00	 1977.50	-1812.75	  403.75
     68.8700	 1711.00	 1736.69	-1836.94	  403.80
     68.9700	 1535.00	 1501.42	-1777.67	  403.85
     69.0700	 1236.00	 1289.68	-1864.93	  403.90
     69.1700	 1019.00	 1111.17	-1903.42	  403.95
     69.2700	  959.00	  968.83	-1821.08	  404.00
     69.3700	  873.00	  860.81	-1799.06	  404.05
     69.4700	  766.00	  782.29	-1827.54	  404.10
     69.5700	  759.00	  727.19	-1779.44	  404.15
     69.6700	  665.00	  689.49	-1835.74	  404.20
     69.7700	  641.00	  664.02	-1834.27	  404.25
     69.8700	  665.00	  646.82	-1793.07	  404.30
     69.9700	  617.00	  635.10	-1829.35	  404.34
     70.0700	  666.00	  626.99	-1772.24	  404.39
     70.1700	  657.00	  621.36	-1775.61	  404.44
     70.2700	  667.00	  617.54	-1761.79	  404.49
     70.3700	  641.00	  615.18	-1785.43	  404.54
     70.4700	  611.00	  614.10	-1814.35	  404.58
     70.5700	  662.00	  614.10	-1763.35	  404.63
     70.6700	  636.00	  615.69	-1790.94	  404.68
     70.7700	  628.00	  619.00	-1802.25	  404.72
     70.8700	  637.00	  625.51	-1799.76	  404.77
     70.9700	  621.00	  634.30	-1824.55	  404.82
     71.0700	  685.00	  647.71	-1773.96	  404.86
     71.1700	  632.00	  667.80	-1847.05	  404.91
     71.2700	  696.00	  697.32	-1812.57	  404.95
     71.3700	  668.00	  739.60	-1882.85	  405.00
     71.4700	  830.00	  798.36	-1779.61	  405.04
     71.5700	  902.00	  877.08	-1786.33	  405.08
     71.6700	  951.00	  978.30	-1838.55	  405.13
     71.7700	 1074.00	 1102.67	-1839.92	  405.17
     71.8700	 1208.00	 1247.97	-1851.22	  405.21
     71.9700	 1362.00	 1408.13	-1857.38	  405.25
     72.0700	 1559.00	 1572.47	-1824.72	  405.29
     72.1700	 1737.00	 1725.03	-1799.28	  405.33
     72.2700	 1791.00	 1845.15	-1865.40	  405.37
     72.3700	 1912.00	 1911.23	-1810.48	  405.41
     72.4700	 1891.00	 1908.80	-1829.05	  405.45
     72.5700	 1785.00	 1838.35	-1864.60	  405.49
     72.6700	 1715.00	 1715.07	-1811.32	  405.53
     72.7700	 1591.00	 1560.69	-1780.94	  405.57
     72.8700	 1426.00	 1395.63	-1780.88	  405.60
     72.9700	 1266.00	 1235.47	-1780.72	  405.64
     73.0700	 1096.00	 1090.54	-1805.79	  405.68
     73.1700	  986.00	  966.57	-1791.82	  405.71
     73.2700	  890.00	  865.54	-1786.79	  405.75
     73.3700	  790.00	  786.66	-1807.91	  405.78
     73.4700	  800.00	  727.33	-1738.58	  405.81
     73.5700	  758.00	  684.09	-1737.34	  405.85
     73.6700	  688.00	  653.30	-1776.55	  405.88
     73.7700	  682.00	  631.70	-1760.95	  405.91
     73.8700	  632.00	  616.63	-1795.88	  405.94
     73.9700	  624.00	  606.13	-1793.38	  405.97
     74.0700	  654.00	  598.81	-1756.06	  406.00
     74.1700	  637.00	  593.78	-1768.03	  406.03
     74.2700	  612.00	  590.46	-1789.71	  406.06
     74.3700	  623.00	  587.88	-1776.14	  406.09
     74.4700	  657.00	  586.91	-1741.16	  406.11
     74.5700	  676.00	  586.73	-1721.98	  406.14
     74.6700	  664.00	  587.06	-1734.31	  406.16
     74.7700	  678.00	  587.61	-1720.86	  406.19
     74.8700	  643.00	  588.02	-1756.27	  406.21
     74.9700	  678.00	  587.94	-1721.19	  406.23
     75.0700	  657.00	  587.12	-1741.37	  406.26
     75.1700	  613.00	  585.53	-1783.78	  406.28
     75.2700	  651.00	  583.42	-1743.67	  406.30
     75.3700	  668.00	  581.18	-1724.43	  406.32
     75.4700	  642.00	  579.30	-1748.55	  406.34
     75.5700	  629.00	  578.26	-1760.51	  406.35
     75.6700	  649.00	  578.56	-1740.81	  406.37
     75.7700	  595.00	  580.71	-1796.96	  406.39
     75.8700	  621.00	  585.24	-1775.49	  406.40
     75.9700	  612.00	  592.66	-1791.91	  406.42
     76.0700	  612.00	  603.36	-1802.61	  406.43
     76.1700	  691.00	  617.75	-1738.00	  406.44
     76.2700	  707.00	  635.81	-1740.06	  406.46
     76.3700	  672.00	  657.25	-1796.50	  406.47
     76.4700	  725.00	  681.31	-1767.56	  406.48
     76.5700	  685.00	  706.68	-1832.93	  406.49
     76.6700	  756.00	  731.43	-1786.68	  406.49
     76.7700	  789.00	  752.91	-1775.16	  406.50
     76.8700	  726.00	  768.34	-1853.59	  406.51
     76.9700	  767.00	  774.93	-1819.18	  406.51
     77.0700	  795.00	  771.33	-1787.58	  406.52
     77.1700	  723.00	  758.17	-1846.42	  406.52
     77.2700	  729.00	  737.77	-1820.02	  406.52
     77.3700	  692.00	  713.08	-1832.33	  406.52
     77.4700	  671.00	  686.84	-1827.09	  406.52
     77.5700	  643.00	  661.19	-1829.44	  406.52
     77.6700	  616.00	  637.60	-1832.85	  406.52
     77.7700	  649.00	  616.99	-1779.24	  406.52
     77.8700	  602.00	  599.74	-1808.99	  406.52
     77.9700	  569.00	  585.87	-1828.12	  406.51
     78.0700	  568.00	  575.11	-1818.36	  406.51
     78.1700	  577.00	  567.02	-1801.27	  406.50
     78.2700	  526.00	  561.10	-1846.35	  406.49
     78.3700	  535.00	  556.79	-1833.04	  406.48
     78.4700	  549.00	  553.56	-1815.81	  406.47
     78.5700	  565.00	  551.45	-1797.70	  406.46
     78.6700	  529.00	  549.98	-1832.23	  406.45
     78.7700	  552.00	  548.96	-1808.21	  406.43
     78.8700	  494.00	  548.28	-1865.53	  406.42
     78.9700	  553.00	  547.85	-1806.10	  406.40
     79.0700	  564.00	  547.64	-1794.89	  406.39
     79.1700	  566.00	  547.63	-1792.88	  406.37
     79.2700	  568.00	  547.83	-1791.08	  406.35
     79.3700	  532.00	  548.25	-1827.50	  406.33
     79.4700	  538.00	  548.93	-1822.18	  406.31
     79.5700	  555.00	  549.90	-1806.15	  406.28
     79.6700	  544.00	  551.23	-1818.48	  406.26
     79.7700	  514.00	  553.00	-1850.25	  406.24
     79.8700	  595.00	  555.34	-1771.59	  406.21
     79.9700	  577.00	  558.41	-1792.66	  406.18
     80.0700	  584.00	  562.43	-1789.68	  406.15
     80.1700	  560.00	  567.65	-1818.90	  406.12
     80.2700	  629.00	  574.43	-1756.68	  406.09
     80.3700	  591.00	  583.13	-1803.38	  406.06
     80.4700	  602.00	  594.15	-1803.40	  406.03
     80.5700	  635.00	  607.89	-1784.14	  405.99
     80.6700	  678.00	  624.71	-1757.96	  405.96
     80.7700	  705.00	  644.85	-1751.10	  405.92
     80.8700	  621.00	  668.30	-1858.55	  405.88
     80.9700	  678.00	  694.71	-1827.96	  405.84
     81.0700	  724.00	  723.06	-1810.31	  405.80
     81.1700	  744.00	  752.46	-1819.71	  405.76
     81.2700	  797.00	  780.98	-1795.23	  405.71
     81.3700	  756.00	  806.69	-1861.94	  405.67
     81.4700	  854.00	  827.89	-1785.14	  405.62
     81.5700	  805.00	  843.43	-1849.68	  405.57
     81.6700	  848.00	  852.72	-1815.97	  405.52
     81.7700	  815.00	  855.69	-1851.94	  405.47
     81.8700	  820.00	  852.69	-1843.94	  405.42
     81.9700	  859.00	  844.43	-1796.68	  405.37
     82.0700	  807.00	  831.67	-1835.92	  405.32
     82.1700	  818.00	  815.20	-1808.45	  405.26
     82.2700	  783.00	  795.89	-1824.14	  405.20
     82.3700	  760.00	  774.77	-1826.02	  405.15
     82.4700	  767.00	  752.93	-1797.18	  405.09
     82.5700	  692.00	  731.19	-1850.44	  405.03
     82.6700	  654.00	  710.01	-1867.26	  404.96
     82.7700	  633.00	  689.59	-1867.84	  404.90
     82.8700	  568.00	  670.09	-1913.34	  404.84
     82.9700	  595.00	  651.81	-1868.06	  404.77
     83.0700	  610.00	  635.11	-1836.36	  404.70
     83.1700	  619.00	  620.40	-1812.65	  404.63
     83.2700	  612.00	  607.94	-1807.19	  404.56
     83.3700	  576.00	  597.93	-1833.18	  404.49
     83.4700	  549.00	  590.40	-1852.65	  404.42
     83.5700	  555.00	  585.30	-1841.55	  404.34
     83.6700	  561.00	  582.48	-1832.73	  404.27
     83.7700	  566.00	  581.69	-1826.94	  404.19
     83.8700	  563.00	  582.59	-1830.84	  404.11
     83.9700	  596.00	  584.75	-1800.00	  404.03
     84.0700	  539.00	  587.66	-1859.91	  403.95
     84.1700	  577.00	  590.74	-1824.99	  403.87
     84.2700	  600.00	  593.37	-1804.62	  403.78
     84.3700	  626.00	  594.95	-1780.20	  403.70
     84.4700	  597.00	  594.99	-1809.24	  403.61
     84.5700	  594.00	  593.14	-1810.39	  403.52
     84.6700	  606.00	  589.82	-1795.07	  403.43
     84.7700	  608.00	  585.25	-1788.50	  403.34
     84.8700	  587.00	  579.89	-1804.14	  403.25
     84.9700	  578.00	  574.21	-1807.46	  403.15
     85.0700	  534.00	  568.62	-1845.87	  403.06
     85.1700	  591.00	  563.42	-1783.67	  402.96
     85.2700	  561.00	  558.83	-1809.08	  402.86
     85.3700	  529.00	  554.99	-1837.24	  402.76
     85.4700	  571.00	  551.99	-1792.24	  402.66
     85.5700	  508.00	  549.83	-1853.08	  402.56
     85.6700	  536.00	  548.52	-1823.77	  402.45
     85.7700	  574.00	  548.02	-1785.27	  402.35
     85.8700	  535.00	  548.28	-1824.53	  402.24
     85.9700	  544.00	  549.26	-1816.51	  402.13
     86.0700	  582.00	  550.95	-1780.20	  402.02
     86.1700	  582.00	  553.30	-1782.55	  401.91
     86.2700	  548.00	  556.34	-1819.59	  401.80
     86.3700	  575.00	  560.07	-1796.32	  401.68
     86.4700	  560.00	  564.48	-1815.73	  401.56
     86.5700	  561.00	  569.61	-1819.86	  401.45
     86.6700	  590.00	  575.44	-1796.69	  401.33
     86.7700	  569.00	  581.99	-1824.24	  401.21
     86.8700	  525.00	  589.27	-1875.52	  401.09
     86.9700	  636.00	  597.34	-1772.59	  400.96
     87.0700	  603.00	  606.28	-1814.53	  400.84
     87.1700	  615.00	  616.14	-1812.39	  400.71
     87.2700	  664.00	  626.90	-1774.15	  400.59
     87.3700	  657.00	  638.37	-1792.62	  400.46
     87.4700	  629.00	  650.18	-1832.43	  400.33
     87.5700	  630.00	  661.72	-1842.97	  400.19
     87.6700	  658.00	  672.17	-1825.42	  400.06
     87.7700	  625.00	  680.57	-1866.82	  399.93
     87.8700	  660.00	  685.92	-1837.17	  399.79
     87.9700	  647.00	  687.49	-1851.74	  399.65
     88.0700	  661.00	  685.00	-1835.25	  399.51
     88.1700	  676.00	  678.75	-1814.00	  399.37
     88.2700	  658.00	  669.50	-1822.75	  399.23
     88.3700	  697.00	  658.24	-1772.49	  399.09
     88.4700	  636.00	  645.96	-1821.21	  398.94
     88.5700	  592.00	  633.59	-1852.84	  398.80
     88.6700	  600.00	  621.90	-1833.15	  398.65
     88.7700	  629.00	  611.49	-1793.74	  398.50
     88.8700	  565.00	  602.79	-1849.04	  398.35
     88.9700	  601.00	  596.06	-1806.31	  398.20
     89.0700	  602.00	  590.91	-1800.16	  398.04
     89.1700	  568.00	  588.19	-1831.44	  397.89
     89.2700	  618.00	  587.22	-1780.47	  397.73
     89.3700	  602.00	  587.66	-1796.91	  397.57
     89.4700	  644.00	  589.10	-1756.35	  397.42
     89.5700	  566.00	  591.05	-1836.30	  397.26
     89.6700	  639.00	  592.97	-1765.22	  397.09
     89.7700	  621.00	  594.32	-1784.57	  396.93
     89.8700	  642.00	  594.65	-1763.90	  396.77
     89.9700	  635.00	  593.68	-1769.93	  396.60
     90.0700	  603.00	  591.34	-1799.59	  396.43
     90.1700	  582.00	  587.79	-1817.04	  396.26
     90.2700	  619.00	  583.34	-1775.59	  396.09
     90.3700	  611.00	  578.34	-1778.59	  395.92
     90.4700	  636.00	  573.13	-1748.38	  395.75
     90.5700	  575.00	  568.00	-1804.25	  395.57
     90.6700	  535.00	  563.18	-1839.43	  395.40
     90.7700	  553.00	  558.83	-1817.08	  395.22
     90.8700	  549.00	  555.06	-1817.31	  395.04
     90.9700	  546.00	  551.92	-1817.17	  394.86
     91.0700	  574.00	  549.44	-1786.69	  394.68
     91.1700	  516.00	  547.59	-1842.84	  394.50
     91.2700	  505.00	  546.34	-1852.59	  394.32
     91.3700	  528.00	  545.65	-1828.90	  394.13
     91.4700	  565.00	  545.50	-1791.75	  393.94
     91.5700	  569.00	  545.86	-1788.11	  393.76
     91.6700	  539.00	  546.75	-1819.00	  393.57
     91.7700	  551.00	  548.22	-1808.47	  393.38
     91.8700	  477.00	  550.35	-1884.60	  393.19
     91.9700	  556.00	  553.25	-1808.50	  392.99
     92.0700	  554.00	  557.09	-1814.34	  392.80
     92.1700	  569.00	  562.03	-1804.28	  392.60
     92.2700	  567.00	  568.28	-1812.53	  392.41
     92.3700	  529.00	  576.06	-1858.31	  392.21
     92.4700	  617.00	  585.54	-1779.79	  392.01
     92.5700	  570.00	  596.90	-1838.15	  391.81
     92.6700	  632.00	  610.23	-1789.48	  391.61
     92.7700	  583.00	  625.55	-1853.80	  391.40
     92.8700	  598.00	  642.80	-1856.05	  391.20
     92.9700	  663.00	  661.78	-1810.03	  390.99
     93.0700	  660.00	  682.15	-1833.40	  390.79
     93.1700	  671.00	  703.45	-1843.70	  390.58
     93.2700	  640.00	  725.03	-1896.28	  390.37
     93.3700	  717.00	  746.15	-1840.40	  390.16
     93.4700	  660.00	  766.00	-1917.25	  389.95
     93.5700	  713.00	  783.89	-1882.14	  389.74
     93.6700	  751.00	  799.44	-1859.69	  389.52
     93.7700	  783.00	  812.67	-1840.92	  389.31
     93.8700	  846.00	  823.96	-1789.21	  389.09
     93.9700	  802.00	  833.91	-1843.16	  388.88
     94.0700	  834.00	  843.06	-1820.31	  388.66
     94.1700	  814.00	  851.85	-1849.10	  388.44
     94.2700	  878.00	  860.46	-1793.71	  388.22
     94.3700	  857.00	  868.96	-1823.21	  388.00
     94.4700	  894.00	  877.11	-1794.36	  387.77
     94.5700	  880.00	  885.69	-1816.94	  387.55
     94.6700	  930.00	  894.54	-1775.79	  387.33
     94.7700	  887.00	  903.75	-1828.00	  387.10
     94.8700	  915.00	  913.15	-1809.40	  386.87
     94.9700	  983.00	  922.25	-1750.50	  386.65
     95.0700	  934.00	  930.14	-1807.39	  386.42
     95.1700	  914.00	  935.62	-1832.87	  386.19
     95.2700	  952.00	  937.34	-1796.59	  385.96
     95.3700	  951.00	  934.14	-1794.39	  385.72
     95.4700	  963.00	  925.30	-1773.55	  385.49
     95.5700	  892.00	  910.89	-1830.14	  385.26
     95.6700	  942.00	  891.70	-1760.95	  385.02
     95.7700	  866.00	  869.09	-1814.34	  384.79
     95.8700	  890.00	  844.70	-1765.95	  384.55
     95.9700	  809.00	  820.26	-1822.51	  384.31
     96.0700	  821.00	  797.44	-1787.69	  384.08
     96.1700	  790.00	  777.77	-1799.02	  383.84
     96.2700	  790.00	  762.66	-1783.91	  383.60
     96.3700	  793.00	  753.32	-1771.57	  383.36
     96.4700	  703.00	  750.84	-1859.09	  383.12
     96.5700	  772.00	  756.10	-1795.35	  382.87
     96.6700	  729.00	  769.83	-1852.08	  382.63
     96.7700	  752.00	  792.54	-1851.79	  382.39
     96.8700	  818.00	  824.51	-1817.76	  382.14
     96.9700	  867.00	  865.74	-1809.99	  381.89
     97.0700	  867.00	  915.95	-1860.20	  381.65
     97.1700	 1018.00	  974.44	-1767.69	  381.40
     97.2700	  982.00	 1040.07	-1869.32	  381.15
     97.3700	 1055.00	 1111.22	-1867.47	  380.91
     97.4700	 1197.00	 1185.67	-1799.92	  380.66
     97.5700	 1187.00	 1260.67	-1884.92	  380.41
     97.6700	 1325.00	 1332.90	-1819.15	  380.16
     97.7700	 1345.00	 1398.49	-1864.74	  379.90
     97.8700	 1437.00	 1453.31	-1827.56	  379.65
     97.9700	 1472.00	 1493.41	-1832.66	  379.40
     98.0700	 1484.00	 1515.66	-1842.91	  379.15
     98.1700	 1497.00	 1518.42	-1832.67	  378.89
     98.2700	 1466.00	 1501.93	-1847.18	  378.64
     98.3700	 1448.00	 1468.21	-1831.46	  378.39
     98.4700	 1437.00	 1420.55	-1794.80	  378.13
     98.5700	 1315.00	 1362.84	-1859.09	  377.87
     98.6700	 1277.00	 1299.04	-1833.29	  377.62
     98.7700	 1215.00	 1232.91	-1829.16	  377.36
     98.8700	 1143.00	 1167.78	-1836.03	  377.10
     98.9700	 1099.00	 1106.55	-1818.80	  376.85
     99.0700	 1090.00	 1051.62	-1772.87	  376.59
     99.1700	 1047.00	 1004.97	-1769.22	  376.33
     99.2700	  932.00	  968.21	-1847.46	  376.07
     99.3700	  945.00	  942.60	-1808.85	  375.81
     99.4700	  974.00	  929.09	-1766.34	  375.55
     99.5700	  918.00	  928.29	-1821.54	  375.29
     99.6700	  897.00	  940.55	-1854.80	  375.03
     99.7700	  960.00	  965.95	-1817.20	  374.77
     99.8700	  988.00	 1004.30	-1827.55	  374.51
     99.9700	 1037.00	 1055.10	-1829.35	  374.25
    100.0700	 1091.00	 1117.55	-1837.80	  373.99
    100.1700	 1153.00	 1190.48	-1848.73	  373.73
    100.2700	 1292.00	 1272.33	-1791.58	  373.47
    100.3700	 1348.00	 1361.06	-1824.31	  373.21
    100.4700	 1453.00	 1454.14	-1812.39	  372.94
    100.5700	 1572.00	 1548.55	-1787.80	  372.68
    100.6700	 1664.00	 1640.91	-1788.16	  372.42
    100.7700	 1707.00	 1727.61	-1831.86	  372.16
    100.8700	 1875.00	 1805.46	-1741.71	  371.90
    100.9700	 1837.00	 1871.67	-1845.92	  371.63
    101.0700	 2002.00	 1924.32	-1733.57	  371.37
    101.1700	 1961.00	 1962.24	-1812.49	  371.11
    101.2700	 2103.00	 1984.70	-1692.95	  370.85
    101.3700	 2064.00	 1991.19	-1738.44	  370.59
    101.4700	 2018.00	 1981.40	-1774.65	  370.32
    101.5700	 2015.00	 1955.50	-1751.75	  370.06
    101.6700	 1959.00	 1914.41	-1766.66	  369.80
    101.7700	 1891.00	 1860.12	-1780.37	  369.54
    101.8700	 1846.00	 1795.67	-1760.92	  369.28
    101.9700	 1777.00	 1724.74	-1758.99	  369.02
    102.0700	 1634.00	 1651.19	-1828.44	  368.75
    102.1700	 1570.00	 1578.51	-1819.76	  368.49
    102.2700	 1437.00	 1509.59	-1883.84	  368.23
    102.3700	 1534.00	 1446.55	-1723.80	  367.97
    102.4700	 1379.00	 1390.69	-1822.94	  367.71
    102.5700	 1375.00	 1342.54	-1778.79	  367.45
    102.6700	 1342.00	 1301.90	-1771.15	  367.19
    102.7700	 1220.00	 1267.96	-1859.21	  366.93
    102.8700	 1238.00	 1239.37	-1812.62	  366.68
    102.9700	 1204.00	 1214.33	-1821.58	  366.42
    103.0700	 1170.00	 1190.84	-1832.09	  366.16
    103.1700	 1171.00	 1166.89	-1807.14	  365.90
    103.2700	 1097.00	 1140.82	-1855.07	  365.65
    103.3700	 1084.00	 1111.51	-1838.76	  365.39
    103.4700	 1067.00	 1078.55	-1822.80	  365.14
    103.5700	 1063.00	 1042.17	-1790.42	  364.88
    103.6700	  981.00	 1003.05	-1833.30	  364.63
    103.7700	  944.00	  962.16	-1829.41	  364.37
    103.8700	  931.00	  920.54	-1800.79	  364.12
    103.9700	  932.00	  879.17	-1758.42	  363.87
    104.0700	  860.00	  838.93	-1790.18	  363.62
    104.1700	  798.00	  800.58	-1813.83	  363.37
    104.2700	  792.00	  764.71	-1783.96	  363.12
    104.3700	  727.00	  731.76	-1816.01	  362.87
    104.4700	  713.00	  702.01	-1800.26	  362.62
    104.5700	  710.00	  675.61	-1776.86	  362.37
    104.6700	  701.00	  652.56	-1762.81	  362.13
    104.7700	  648.00	  632.78	-1796.03	  361.88
    104.8700	  647.00	  616.07	-1780.32	  361.64
    104.9700	  672.00	  602.19	-1741.44	  361.39
    105.0700	  619.00	  590.86	-1783.11	  361.15
    105.1700	  582.00	  581.77	-1811.02	  360.91
    105.2700	  597.00	  574.66	-1788.91	  360.67
    105.3700	  618.00	  569.25	-1762.50	  360.43
    105.4700	  645.00	  565.32	-1731.57	  360.19
    105.5700	  538.00	  562.67	-1835.92	  359.96
    105.6700	  580.00	  561.17	-1792.42	  359.72
    105.7700	  578.00	  560.71	-1793.96	  359.49
    105.8700	  562.00	  561.22	-1810.47	  359.25
    105.9700	  581.00	  562.67	-1792.92	  359.02
    106.0700	  577.00	  565.04	-1799.29	  358.79
    106.1700	  585.00	  568.39	-1794.64	  358.56
    106.2700	  621.00	  572.74	-1762.99	  358.33
    106.3700	  588.00	  578.14	-1801.39	  358.11
    106.4700	  590.00	  584.63	-1805.88	  357.88
    106.5700	  591.00	  592.25	-1812.50	  357.66
    106.6700	  664.00	  600.97	-1748.22	  357.44
    106.7700	  674.00	  610.82	-1748.07	  357.22
    106.8700	  618.00	  621.70	-1814.95	  357.00
    106.9700	  660.00	  633.49	-1784.74	  356.79
    107.0700	  631.00	  646.01	-1826.26	  356.57
    107.1700	  728.00	  659.02	-1742.27	  356.36
    107.2700	  683.00	  672.23	-1800.48	  356.15
    107.3700	  641.00	  685.29	-1855.54	  355.94
    107.4700	  722.00	  697.80	-1787.05	  355.73
    107.5700	  697.00	  709.34	-1823.59	  355.52
    107.6700	  714.00	  719.48	-1816.73	  355.32
    107.7700	  737.00	  727.84	-1802.09	  355.12
    107.8700	  699.00	  734.16	-1846.41	  354.92
    107.9700	  707.00	  738.30	-1842.55	  354.72
    108.0700	  713.00	  740.34	-1838.59	  354.52
    108.1700	  714.00	  740.57	-1837.82	  354.33
    108.2700	  700.00	  739.37	-1850.62	  354.14
    108.3700	  706.00	  737.22	-1842.47	  353.95
    108.4700	  716.00	  734.59	-1829.84	  353.76
    108.5700	  730.00	  731.90	-1813.15	  353.57
    108.6700	  711.00	  729.52	-1829.77	  353.39
    108.7700	  724.00	  727.70	-1814.95	  353.21
    108.8700	  706.00	  726.58	-1831.83	  353.03
    108.9700	  727.00	  726.21	-1810.46	  352.86
    109.0700	  675.00	  726.50	-1862.75	  352.68
    109.1700	  753.00	  727.27	-1785.52	  352.51
    109.2700	  721.00	  728.24	-1818.49	  352.34
    109.3700	  704.00	  729.05	-1836.30	  352.18
    109.4700	  760.00	  729.30	-1780.55	  352.01
    109.5700	  729.00	  728.55	-1810.80	  351.85
    109.6700	  701.00	  726.46	-1836.71	  351.69
    109.7700	  722.00	  722.77	-1812.02	  351.54
    109.8700	  724.00	  717.36	-1804.61	  351.39
    109.9700	  708.00	  710.26	-1813.51	  351.24
    110.0700	  709.00	  701.66	-1803.91	  351.09
    110.1700	  673.00	  691.83	-1830.08	  350.95
    110.2700	  654.00	  681.10	-1838.35	  350.80
    110.3700	  664.00	  669.80	-1817.05	  350.67
    110.4700	  651.00	  658.28	-1818.53	  350.53
    110.5700	  666.00	  646.84	-1792.09	  350.40
    110.6700	  675.00	  635.73	-1771.98	  350.27
    110.7700	  620.00	  625.18	-1816.43	  350.14
    110.8700	  620.00	  615.36	-1806.61	  350.02
    110.9700	  665.00	  606.43	-1752.68	  349.90
    111.0700	  611.00	  598.49	-1798.74	  349.79
    111.1700	  585.00	  591.58	-1817.83	  349.67
    111.2700	  600.00	  585.74	-1796.99	  349.56
    111.3700	  586.00	  580.96	-1806.21	  349.46
    111.4700	  576.00	  577.20	-1812.45	  349.36
    111.5700	  611.00	  574.41	-1774.66	  349.26
    111.6700	  548.00	  572.52	-1835.77	  349.16
    111.7700	  549.00	  571.44	-1833.69	  349.07
    111.8700	  617.00	  571.08	-1765.33	  348.98
    111.9700	  520.00	  571.36	-1862.61	  348.90
    112.0700	  603.00	  572.18	-1780.43	  348.82
    112.1700	  565.00	  573.45	-1819.70	  348.74
    112.2700	  551.00	  575.10	-1835.35	  348.66
    112.3700	  600.00	  577.05	-1788.30	  348.60
    112.4700	  608.00	  579.25	-1782.50	  348.53
    112.5700	  616.00	  581.65	-1776.90	  348.47
    112.6700	  578.00	  584.22	-1817.47	  348.41
    112.7700	  579.00	  586.95	-1819.20	  348.36
    112.8700	  570.00	  589.86	-1831.11	  348.31
    112.9700	  570.00	  592.98	-1834.23	  348.26
    113.0700	  589.00	  596.35	-1818.60	  348.22
    113.1700	  570.00	  600.02	-1841.27	  348.19
    113.2700	  579.00	  604.07	-1836.32	  348.15
    113.3700	  577.00	  608.60	-1842.85	  348.13
    113.4700	  568.00	  613.71	-1856.96	  348.10
    113.5700	  628.00	  619.54	-1802.79	  348.08
    113.6700	  625.00	  626.27	-1812.52	  348.07
    113.7700	  642.00	  634.09	-1803.34	  348.06
    113.8700	  634.00	  643.29	-1820.54	  348.05
    113.9700	  637.00	  654.20	-1828.45	  348.05
    114.0700	  701.00	  667.24	-1777.49	  348.06
    114.1700	  665.00	  682.94	-1829.19	  348.06
    114.2700	  697.00	  701.93	-1816.18	  348.08
    114.3700	  710.00	  725.02	-1826.27	  348.10
    114.4700	  707.00	  753.15	-1857.40	  348.12
    114.5700	  786.00	  787.46	-1812.71	  348.15
    114.6700	  830.00	  829.25	-1810.50	  348.18
    114.7700	  852.00	  880.06	-1839.31	  348.22
    114.8700	  905.00	  941.60	-1847.85	  348.26
    114.9700	  959.00	 1015.76	-1868.01	  348.31
    115.0700	 1094.00	 1104.60	-1821.85	  348.37
    115.1700	 1223.00	 1210.23	-1798.48	  348.43
    115.2700	 1425.00	 1334.87	-1721.12	  348.49
    115.3700	 1543.00	 1480.67	-1748.92	  348.56
    115.4700	 1644.00	 1649.64	-1816.89	  348.64
    115.5700	 1947.00	 1843.50	-1707.75	  348.72
    115.6700	 2100.00	 2063.57	-1774.82	  348.81
    115.7700	 2498.00	 2310.71	-1623.96	  348.90
    115.8700	 2679.00	 2585.09	-1717.34	  349.00
    115.9700	 2944.00	 2886.07	-1753.32	  349.10
    116.0700	 3208.00	 3212.06	-1815.31	  349.21
    116.1700	 3627.00	 3560.47	-1744.72	  349.33
    116.2700	 3929.00	 3927.69	-1809.94	  349.45
    116.3700	 4338.00	 4309.01	-1782.26	  349.58
    116.4700	 4700.00	 4698.45	-1809.70	  349.71
    116.5700	 5099.00	 5089.04	-1801.29	  349.85
    116.6700	 5509.00	 5472.61	-1774.86	  350.00
    116.7700	 5765.00	 5840.16	-1886.41	  350.15
    116.8700	 6298.00	 6181.94	-1695.19	  350.31
    116.9700	 6431.00	 6487.57	-1867.82	  350.47
    117.0700	 6636.00	 6746.77	-1922.02	  350.65
    117.1700	 6875.00	 6949.87	-1886.12	  350.82
    117.2700	 7245.00	 7088.75	-1655.00	  351.01
    117.3700	 7086.00	 7157.57	-1882.82	  351.20
    117.4700	 7049.00	 7153.50	-1915.75	  351.40
    117.5700	 6845.00	 7077.15	-2043.40	  351.60
    117.6700	 6953.00	 6932.47	-1790.72	  351.81
    117.7700	 6598.00	 6726.15	-1939.40	  352.03
    117.8700	 6384.00	 6466.87	-1894.12	  352.26
    117.9700	 6028.00	 6164.51	-1947.76	  352.49
    118.0700	 5845.00	 5829.28	-1795.53	  352.73
    118.1700	 5472.00	 5471.27	-1810.52	  352.97
    118.2700	 4989.00	 5099.81	-1922.06	  353.23
    118.3700	 4741.00	 4723.35	-1793.60	  353.49
    118.4700	 4382.00	 4349.44	-1778.69	  353.76
    118.5700	 3988.00	 3984.47	-1807.72	  354.03
    118.6700	 3759.00	 3633.75	-1686.00	  354.31
    118.7700	 3465.00	 3301.36	-1647.61	  354.60
    118.8700	 3060.00	 2990.29	-1741.54	  354.90
    118.9700	 2773.00	 2702.65	-1740.90	  355.21
    119.0700	 2417.00	 2439.58	-1833.83	  355.52
    119.1700	 2175.00	 2201.48	-1837.73	  355.84
    119.2700	 2058.00	 1987.99	-1741.24	  356.17
    119.3700	 1832.00	 1798.25	-1777.50	  356.51
    119.4700	 1691.00	 1631.03	-1751.28	  356.85
    119.5700	 1492.00	 1484.77	-1804.02	  357.20
    119.6700	 1389.00	 1357.73	-1779.98	  357.56
    119.7700	 1317.00	 1248.00	-1742.25	  357.93
    119.8700	 1220.00	 1153.70	-1744.95	  358.31
    119.9700	 1132.00	 1072.98	-1752.23	  358.70
    120.0700	 1069.00	 1004.10	-1746.35	  359.09
    120.1700	  941.00	  945.44	-1815.69	  359.49
    120.2700	  903.00	  895.52	-1803.77	  359.90
    120.3700	  838.00	  853.05	-1826.30	  360.32
    120.4700	  861.00	  816.90	-1767.15	  360.75
    120.5700	  764.00	  786.12	-1833.37	  361.19
    120.6700	  765.00	  759.89	-1806.14	  361.63
    120.7700	  727.00	  737.51	-1821.76	  362.09
    120.8700	  765.00	  718.42	-1764.67	  362.55
    120.9700	  737.00	  702.15	-1776.40	  363.02
    121.0700	  672.00	  688.33	-1827.58	  363.50
    121.1700	  652.00	  676.63	-1835.88	  363.99
    121.2700	  627.00	  666.79	-1851.04	  364.49
    121.3700	  632.00	  658.61	-1837.86	  365.00
    121.4700	  634.00	  651.91	-1829.16	  365.52
    121.5700	  639.00	  646.54	-1818.79	  366.05
    121.6700	  622.00	  642.39	-1831.64	  366.59
    121.7700	  648.00	  639.35	-1802.60	  367.13
    121.8700	  633.00	  637.32	-1815.57	  367.69
    121.9700	  622.00	  636.22	-1825.47	  368.26
    122.0700	  652.00	  635.98	-1795.23	  368.83
    122.1700	  649.00	  636.52	-1798.77	  369.42
    122.2700	  605.00	  637.78	-1844.03	  370.01
    122.3700	  649.00	  639.67	-1801.92	  370.62
    122.4700	  589.00	  642.13	-1864.38	  371.24
    122.5700	  618.00	  645.09	-1838.34	  371.86
    122.6700	  683.00	  648.45	-1776.70	  372.50
    122.7700	  634.00	  652.13	-1829.38	  373.15
    122.8700	  654.00	  656.04	-1813.29	  373.81
    122.9700	  690.00	  660.08	-1781.33	  374.47
    123.0700	  695.00	  664.14	-1780.39	  375.15
    123.1700	  668.00	  668.13	-1811.38	  375.84
    123.2700	  734.00	  671.92	-1749.17	  376.54
    123.3700	  666.00	  675.42	-1820.67	  377.25
    123.4700	  702.00	  678.53	-1787.78	  377.97
    123.5700	  694.00	  681.15	-1798.40	  378.71
    123.6700	  668.00	  683.24	-1826.49	  379.45
    123.7700	  718.00	  684.73	-1777.98	  380.21
    123.8700	  696.00	  685.62	-1800.87	  380.97
    123.9700	  692.00	  685.92	-1805.17	  381.75
    124.0700	  680.00	  685.66	-1816.91	  382.54
    124.1700	  635.00	  684.89	-1861.14	  383.34
    124.2700	  708.00	  683.68	-1786.93	  384.15
    124.3700	  672.00	  682.09	-1821.34	  384.98
    124.4700	  612.00	  680.21	-1879.46	  385.81
    124.5700	  647.00	  678.09	-1842.34	  386.66
    124.6700	  654.00	  675.76	-1833.01	  387.52
    124.7700	  678.00	  673.36	-1806.61	  388.39
    124.8700	  657.00	  670.90	-1825.15	  389.27
    124.9700	  676.00	  506.19	-1641.44	  390.17
    125.0700	  661.00	  507.09	-1811.25	  391.08
    125.1700	  611.00	  508.01	-1811.25	  392.00
    125.2700	  632.00	  508.95	-1811.25	  392.93
    125.3700	  609.00	  509.89	-1811.25	  393.87
    125.4700	  639.00	  510.85	-1811.25	  394.83
    125.5700	  594.00	  511.82	-1811.25	  395.80
    125.6700	  616.00	  512.80	-1811.25	  396.78
    125.7700	  592.00	  513.80	-1811.25	  397.78
    125.8700	  566.00	  514.81	-1811.25	  398.79
    125.9700	  630.00	  515.83	-1811.25	  399.81
    126.0700	  641.00	  516.86	-1811.25	  400.84
    126.1700	  627.00	  517.91	-1811.25	  401.89
    126.2700	  646.00	  518.97	-1811.25	  402.95
    126.3700	  574.00	  520.05	-1811.25	  404.03
    126.4700	  593.00	  521.13	-1811.25	  405.12
    126.5700	  584.00	  522.24	-1811.25	  406.22
    126.6700	  604.00	  523.35	-1811.25	  407.33
    126.7700	  629.00	  524.48	-1811.25	  408.46
    126.8700	  588.00	  525.62	-1811.25	  409.61
    126.9700	  564.00	  526.78	-1811.25	  410.76
    127.0700	  593.00	  527.95	-1811.25	  411.93
    127.1700	  645.00	  529.14	-1811.25	  413.12
    127.2700	  594.00	  530.33	-1811.25	  414.32
    127.3700	  600.00	  531.55	-1811.25	  415.53
    127.4700	  604.00	  532.78	-1811.25	  416.76
    127.5700	  537.00	  534.02	-1811.25	  418.00
    127.6700	  599.00	  535.27	-1811.25	  419.26
    127.7700	  585.00	  536.55	-1811.25	  420.53
    127.8700	  612.00	  537.83	-1811.25	  421.81
    127.9700	  568.00	  539.13	-1811.25	  423.12
    128.0700	  625.00	  540.45	-1811.25	  424.43
    128.1700	  660.00	  541.78	-1811.25	  425.76
    128.2700	  633.00	  543.13	-1811.25	  427.11
    128.3700	  673.00	  544.49	-1811.25	  428.47
    128.4700	  703.00	  545.86	-1811.25	  429.85
    128.5700	    0.00	  547.26	-1811.25	  431.24
    128.6700	    0.00	  548.66	-1811.25	  432.65
     12.3738	        	        	        	        	       0	(  0  0  2)	  0  1
     12.3738	        	        	        	        	    -452	(  0  0  2)	  0  1
     25.0161	        	        	        	        	       0	(  0  0  4)	  0  1
     25.0161	        	        	        	        	    -452	(  0  0  4)	  0  1
     28.4565	        	        	        	        	       0	(  1  0  0)	  0  1
     28.4565	        	        	        	        	    -452	(  1  0  0)	  0  1
     29.1575	        	        	        	        	       0	(  1  0  1)	  0  1
     29.1575	        	        	        	        	    -452	(  1  0  1)	  0  1
     31.1746	        	        	        	        	       0	(  1  0  2)	  0  1
     31.1746	        	        	        	        	    -452	(  1  0  2)	  0  1
     34.2997	        	        	        	        	       0	(  1  0  3)	  0  1
     34.2997	        	        	        	        	    -452	(  1  0  3)	  0  1
     37.9790	        	        	        	        	       0	(  0  0  6)	  0  1
     37.9790	        	        	        	        	    -452	(  0  0  6)	  0  1
     38.2983	        	        	        	        	       0	(  1  0  4)	  0  1
     38.2983	        	        	        	        	    -452	(  1  0  4)	  0  1
     42.9738	        	        	        	        	       0	(  1  0  5)	  0  1
     42.9738	        	        	        	        	    -452	(  1  0  5)	  0  1
     48.1867	        	        	        	        	       0	(  1  0  6)	  0  1
     48.1867	        	        	        	        	    -452	(  1  0  6)	  0  1
     50.4917	        	        	        	        	       0	(  1  1  0)	  0  1
     50.4917	        	        	        	        	    -452	(  1  1  0)	  0  1
     51.4723	        	        	        	        	       0	(  0  0  8)	  0  1
     51.4723	        	        	        	        	    -452	(  0  0  8)	  0  1
     52.2252	        	        	        	        	       0	(  1  1  2)	  0  1
     52.2252	        	        	        	        	    -452	(  1  1  2)	  0  1
     53.8495	        	        	        	        	       0	(  1  0  7)	  0  1
     53.8495	        	        	        	        	    -452	(  1  0  7)	  0  1
     57.2036	        	        	        	        	       0	(  1  1  4)	  0  1
     57.2036	        	        	        	        	    -452	(  1  1  4)	  0  1
     59.0313	        	        	        	        	       0	(  2  0  0)	  0  1
     59.0313	        	        	        	        	    -452	(  2  0  0)	  0  1
     59.4254	        	        	        	        	       0	(  2  0  1)	  0  1
     59.4254	        	        	        	        	    -452	(  2  0  1)	  0  1
     59.9161	        	        	        	        	       0	(  1  0  8)	  0  1
     59.9161	        	        	        	        	    -452	(  1  0  8)	  0  1
     60.5983	        	        	        	        	       0	(  2  0  2)	  0  1
     60.5983	        	        	        	        	    -452	(  2  0  2)	  0  1
     62.5241	        	        	        	        	       0	(  2  0  3)	  0  1
     62.5241	        	        	        	        	    -452	(  2  0  3)	  0  1
     64.9479	        	        	        	        	       0	(  1  1  6)	  0  1
     64.9479	        	        	        	        	    -452	(  1  1  6)	  0  1
     65.1656	        	        	        	        	       0	(  2  0  4)	  0  1
     65.1656	        	        	        	        	    -452	(  2  0  4)	  0  1
     65.7866	        	        	        	        	       0	(  0  0 10)	  0  1
     65.7866	        	        	        	        	    -452	(  0  0 10)	  0  1
     66.3732	        	        	        	        	       0	(  1  0  9)	  0  1
     66.3732	        	        	        	        	    -452	(  1  0  9)	  0  1
     68.4824	        	        	        	        	       0	(  2  0  5)	  0  1
     68.4824	        	        	        	        	    -452	(  2  0  5)	  0  1
     72.4376	        	        	        	        	       0	(  2  0  6)	  0  1
     72.4376	        	        	        	        	    -452	(  2  0  6)	  0  1
     73.2358	        	        	        	        	       0	(  1  0 10)	  0  1
     73.2358	        	        	        	        	    -452	(  1  0 10)	  0  1
     75.0555	        	        	        	        	       0	(  1  1  8)	  0  1
     75.0555	        	        	        	        	    -452	(  1  1  8)	  0  1
     77.0052	        	        	        	        	       0	(  2  0  7)	  0  1
     77.0052	        	        	        	        	    -452	(  2  0  7)	  0  1
     80.5475	        	        	        	        	       0	(  1  0 11)	  0  1
     80.5475	        	        	        	        	    -452	(  1  0 11)	  0  1
     81.3770	        	        	        	        	       0	(  0  0 12)	  0  1
     81.3770	        	        	        	        	    -452	(  0  0 12)	  0  1
     81.4048	        	        	        	        	       0	(  2  1  0)	  0  1
     81.4048	        	        	        	        	    -452	(  2  1  0)	  0  1
     81.7475	        	        	        	        	       0	(  2  1  1)	  0  1
     81.7475	        	        	        	        	    -452	(  2  1  1)	  0  1
     82.1756	        	        	        	        	       0	(  2  0  8)	  0  1
     82.1756	        	        	        	        	    -452	(  2  0  8)	  0  1
     82.7736	        	        	        	        	       0	(  2  1  2)	  0  1
     82.7736	        	        	        	        	    -452	(  2  1  2)	  0  1
     84.4790	        	        	        	        	       0	(  2  1  3)	  0  1
     84.4790	        	        	        	        	    -452	(  2  1  3)	  0  1
     86.8589	        	        	        	        	       0	(  2  1  4)	  0  1
     86.8589	        	        	        	        	    -452	(  2  1  4)	  0  1
     87.4250	        	        	        	        	       0	(  1  1 10)	  0  1
     87.4250	        	        	        	        	    -452	(  1  1 10)	  0  1
     87.9621	        	        	        	        	       0	(  2  0  9)	  0  1
     87.9621	        	        	        	        	    -452	(  2  0  9)	  0  1
     88.3863	        	        	        	        	       0	(  1  0 12)	  0  1
     88.3863	        	        	        	        	    -452	(  1  0 12)	  0  1
     89.9116	        	        	        	        	       0	(  2  1  5)	  0  1
     89.9116	        	        	        	        	    -452	(  2  1  5)	  0  1
     93.6436	        	        	        	        	       0	(  2  1  6)	  0  1
     93.6436	        	        	        	        	    -452	(  2  1  6)	  0  1
     94.4088	        	        	        	        	       0	(  2  0 10)	  0  1
     94.4088	        	        	        	        	    -452	(  2  0 10)	  0  1
     95.4009	        	        	        	        	       0	(  3  0  0)	  0  1
     95.4009	        	        	        	        	    -452	(  3  0  0)	  0  1
     95.7416	        	        	        	        	       0	(  3  0  1)	  0  1
     95.7416	        	        	        	        	    -452	(  3  0  1)	  0  1
     96.7651	        	        	        	        	       0	(  3  0  2)	  0  1
     96.7651	        	        	        	        	    -452	(  3  0  2)	  0  1
     96.8797	        	        	        	        	       0	(  1  0 13)	  0  1
     96.8797	        	        	        	        	    -452	(  1  0 13)	  0  1
     98.0763	        	        	        	        	       0	(  2  1  7)	  0  1
     98.0763	        	        	        	        	    -452	(  2  1  7)	  0  1
     98.4759	        	        	        	        	       0	(  3  0  3)	  0  1
     98.4759	        	        	        	        	    -452	(  3  0  3)	  0  1
     99.0773	        	        	        	        	       0	(  0  0 14)	  0  1
     99.0773	        	        	        	        	    -452	(  0  0 14)	  0  1
    100.8844	        	        	        	        	       0	(  3  0  4)	  0  1
    100.8844	        	        	        	        	    -452	(  3  0  4)	  0  1
    101.6054	        	        	        	        	       0	(  2  0 11)	  0  1
    101.6054	        	        	        	        	    -452	(  2  0 11)	  0  1
    102.4436	        	        	        	        	       0	(  1  1 12)	  0  1
    102.4436	        	        	        	        	    -452	(  1  1 12)	  0  1
    103.2549	        	        	        	        	       0	(  2  1  8)	  0  1
    103.2549	        	        	        	        	    -452	(  2  1  8)	  0  1
    104.0110	        	        	        	        	       0	(  3  0  5)	  0  1
    104.0110	        	        	        	        	    -452	(  3  0  5)	  0  1
    106.2374	        	        	        	        	       0	(  1  0 14)	  0  1
    106.2374	        	        	        	        	    -452	(  1  0 14)	  0  1
    107.8927	        	        	        	        	       0	(  3  0  6)	  0  1
    107.8927	        	        	        	        	    -452	(  3  0  6)	  0  1
    109.2650	        	        	        	        	       0	(  2  1  9)	  0  1
    109.2650	        	        	        	        	    -452	(  2  1  9)	  0  1
    109.7152	        	        	        	        	       0	(  2  0 12)	  0  1
    109.7152	        	        	        	        	    -452	(  2  0 12)	  0  1
    112.5952	        	        	        	        	       0	(  3  0  7)	  0  1
    112.5952	        	        	        	        	    -452	(  3  0  7)	  0  1
    116.2611	        	        	        	        	       0	(  2  1 10)	  0  1
    116.2611	        	        	        	        	    -452	(  2  1 10)	  0  1
    116.8308	        	        	        	        	       0	(  1  0 15)	  0  1
    116.8308	        	        	        	        	    -452	(  1  0 15)	  0  1
    117.3697	        	        	        	        	       0	(  2  2  0)	  0  1
    117.3697	        	        	        	        	    -452	(  2  2  0)	  0  1
    118.2333	        	        	        	        	       0	(  3  0  8)	  0  1
    118.2333	        	        	        	        	    -452	(  3  0  8)	  0  1
    118.9093	        	        	        	        	       0	(  2  2  2)	  0  1
    118.9093	        	        	        	        	    -452	(  2  2  2)	  0  1
    119.0396	        	        	        	        	       0	(  2  0 13)	  0  1
    119.0396	        	        	        	        	    -452	(  2  0 13)	  0  1
    120.8683	        	        	        	        	       0	(  0  0 16)	  0  1
    120.8683	        	        	        	        	    -452	(  0  0 16)	  0  1
    121.5626	        	        	        	        	       0	(  1  1 14)	  0  1
    121.5626	        	        	        	        	    -452	(  1  1 14)	  0  1
    123.6777	        	        	        	        	       0	(  2  2  4)	  0  1
    123.6777	        	        	        	        	    -452	(  2  2  4)	  0  1
    124.5325	        	        	        	        	       0	(  2  1 11)	  0  1
    124.5325	        	        	        	        	    -452	(  2  1 11)	  0  1
    125.0145	        	        	        	        	       0	(  3  0  9)	  0  1
    125.0145	        	        	        	        	    -452	(  3  0  9)	  0  1
    125.5686	        	        	        	        	       0	(  3  1  0)	  0  1
    125.5686	        	        	        	        	    -452	(  3  1  0)	  0  1
    125.9871	        	        	        	        	       0	(  3  1  1)	  0  1
    125.9871	        	        	        	        	    -452	(  3  1  1)	  0  1
    127.2564	        	        	        	        	       0	(  3  1  2)	  0  1
    127.2564	        	        	        	        	    -452	(  3  1  2)	  0  1
    129.4228	        	        	        	        	       0	(  1  0 16)	  0  1
    129.4228	        	        	        	        	    -452	(  1  0 16)	  0  1
    129.4212	        	        	        	        	       0	(  3  1  3)	  0  1
    129.4212	        	        	        	        	    -452	(  3  1  3)	  0  1
    130.1961	        	        	        	        	       0	(  2  0 14)	  0  1
    130.1961	        	        	        	        	    -452	(  2  0 14)	  0  1
    132.3033	        	        	        	        	       0	(  2  2  6)	  0  1
    132.3033	        	        	        	        	    -452	(  2  2  6)	  0  1
    132.5716	        	        	        	        	       0	(  3  1  4)	  0  1
    132.5716	        	        	        	        	    -452	(  3  1  4)	  0  1
    133.3457	        	        	        	        	       0	(  3  0 10)	  0  1
    133.3457	        	        	        	        	    -452	(  3  0 10)	  0  1
    134.6844	        	        	        	        	       0	(  2  1 12)	  0  1
    134.6844	        	        	        	        	    -452	(  2  1 12)	  0  1
    136.8759	        	        	        	        	       0	(  3  1  5)	  0  1
    136.8759	        	        	        	        	    -452	(  3  1  5)	  0  1
    142.6667	        	        	        	        	       0	(  3  1  6)	  0  1
    142.6667	        	        	        	        	    -452	(  3  1  6)	  0  1
    144.1890	        	        	        	        	       0	(  3  0 11)	  0  1
    144.1890	        	        	        	        	    -452	(  3  0 11)	  0  1
    144.8243	        	        	        	        	       0	(  2  0 15)	  0  1
    144.8243	        	        	        	        	    -452	(  2  0 15)	  0  1
    146.1756	        	        	        	        	       0	(  1  0 17)	  0  1
    146.1756	        	        	        	        	    -452	(  1  0 17)	  0  1
    147.0491	        	        	        	        	       0	(  2  2  8)	  0  1
    147.0491	        	        	        	        	    -452	(  2  2  8)	  0  1
    148.3767	        	        	        	        	       0	(  2  1 13)	  0  1
    148.3767	        	        	        	        	    -452	(  2  1 13)	  0  1
    150.7254	        	        	        	        	       0	(  3  1  7)	  0  1
    150.7254	        	        	        	        	    -452	(  3  1  7)	  0  1
    151.5499	        	        	        	        	       0	(  1  1 16)	  0  1
    151.5499	        	        	        	        	    -452	(  1  1 16)	  0  1
    156.4019	        	        	        	        	       0	(  0  0 18)	  0  1
    156.4019	        	        	        	        	    -452	(  0  0 18)	  0  1
    161.3681	        	        	        	        	       0	(  3  0 12)	  0  1
    161.3681	        	        	        	        	    -452	(  3  0 12)	  0  1
    161.4551	        	        	        	        	       0	(  4  0  0)	  0  1
    161.4551	        	        	        	        	    -452	(  4  0  0)	  0  1
    162.5596	        	        	        	        	       0	(  4  0  1)	  0  1
    162.5596	        	        	        	        	    -452	(  4  0  1)	  0  1
    164.0458	        	        	        	        	       0	(  3  1  8)	  0  1
    164.0458	        	        	        	        	    -452	(  3  1  8)	  0  1
    166.3882	        	        	        	        	       0	(  4  0  2)	  0  1
    166.3882	        	        	        	        	    -452	(  4  0  2)	  0  1
