MSG Master    CELL:    5.90303   5.90303  23.18221   90.0000   90.0000  120.0000   SPGR: P 63/m m c             TEMP:    821.25
  1   1280     2.52000     0.00000    -0.12957     0.00000     0.00000    0
    98     0     2
       0.00000      10.00000
     125.00000     130.00000
 2Theta	Yobs	Ycal	Yobs-Ycal	Backg	Posr	(hkl)	K
      0.7700	    0.00	  480.38	-1752.75	  372.07
      0.8700	    0.00	  482.09	-1752.75	  373.78
      0.9700	   46.00	  483.78	-1752.75	  375.47
      1.0700	   47.00	  485.45	-1752.75	  377.14
      1.1700	   25.00	  487.10	-1752.75	  378.79
      1.2700	   45.00	  488.74	-1752.75	  380.43
      1.3700	   45.00	  490.35	-1752.75	  382.04
      1.4700	   94.00	  491.95	-1752.75	  383.64
      1.5700	  295.00	  493.53	-1752.75	  385.22
      1.6700	  462.00	  495.09	-1752.75	  386.78
      1.7700	  586.00	  496.64	-1752.75	  388.32
      1.8700	  627.00	  498.16	-1752.75	  389.85
      1.9700	  753.00	  499.67	-1752.75	  391.35
      2.0700	  782.00	  501.16	-1752.75	  392.84
      2.1700	  767.00	  502.63	-1752.75	  394.32
      2.2700	  757.00	  504.09	-1752.75	  395.77
      2.3700	  731.00	  505.52	-1752.75	  397.21
      2.4700	  683.00	  506.94	-1752.75	  398.63
      2.5700	  700.00	  508.35	-1752.75	  400.03
      2.6700	  679.00	  509.73	-1752.75	  401.42
      2.7700	  646.00	  511.10	-1752.75	  402.79
      2.8700	  592.00	  512.45	-1752.75	  404.14
      2.9700	  609.00	  513.79	-1752.75	  405.47
      3.0700	  629.00	  515.11	-1752.75	  406.79
      3.1700	  622.00	  516.41	-1752.75	  408.10
      3.2700	  668.00	  517.70	-1752.75	  409.38
      3.3700	  758.00	  518.97	-1752.75	  410.65
      3.4700	  957.00	  520.22	-1752.75	  411.90
      3.5700	 1053.00	  521.46	-1752.75	  413.14
      3.6700	 1138.00	  522.68	-1752.75	  414.36
      3.7700	 1267.00	  523.88	-1752.75	  415.57
      3.8700	 1311.00	  525.07	-1752.75	  416.76
      3.9700	 1327.00	  526.25	-1752.75	  417.93
      4.0700	 1339.00	  527.41	-1752.75	  419.09
      4.1700	 1377.00	  528.55	-1752.75	  420.23
      4.2700	 1374.00	  529.68	-1752.75	  421.36
      4.3700	 1410.00	  530.79	-1752.75	  422.48
      4.4700	 1343.00	  531.89	-1752.75	  423.57
      4.5700	 1253.00	  532.97	-1752.75	  424.65
      4.6700	 1273.00	  534.04	-1752.75	  425.72
      4.7700	 1169.00	  535.09	-1752.75	  426.77
      4.8700	 1206.00	  536.13	-1752.75	  427.81
      4.9700	 1118.00	  537.15	-1752.75	  428.84
      5.0700	 1093.00	  538.16	-1752.75	  429.84
      5.1700	 1040.00	  539.15	-1752.75	  430.84
      5.2700	 1046.00	  540.13	-1752.75	  431.82
      5.3700	 1019.00	  541.10	-1752.75	  432.78
      5.4700	  995.00	  542.05	-1752.75	  433.73
      5.5700	  931.00	  542.98	-1752.75	  434.67
      5.6700	  916.00	  543.91	-1752.75	  435.59
      5.7700	  923.00	  544.82	-1752.75	  436.50
      5.8700	  944.00	  545.71	-1752.75	  437.40
      5.9700	  909.00	  546.59	-1752.75	  438.28
      6.0700	  893.00	  547.46	-1752.75	  439.15
      6.1700	  878.00	  548.32	-1752.75	  440.00
      6.2700	  915.00	  549.16	-1752.75	  440.84
      6.3700	  803.00	  549.99	-1752.75	  441.67
      6.4700	  839.00	  550.80	-1752.75	  442.49
      6.5700	  789.00	  551.60	-1752.75	  443.29
      6.6700	  817.00	  552.39	-1752.75	  444.08
      6.7700	  838.00	  553.17	-1752.75	  444.85
      6.8700	  810.00	  553.93	-1752.75	  445.62
      6.9700	  776.00	  554.68	-1752.75	  446.37
      7.0700	  710.00	  555.42	-1752.75	  447.10
      7.1700	  708.00	  556.14	-1752.75	  447.83
      7.2700	  753.00	  556.85	-1752.75	  448.54
      7.3700	  700.00	  557.55	-1752.75	  449.24
      7.4700	  747.00	  558.24	-1752.75	  449.93
      7.5700	  696.00	  558.92	-1752.75	  450.60
      7.6700	  696.00	  559.58	-1752.75	  451.27
      7.7700	  627.00	  560.23	-1752.75	  451.92
      7.8700	  698.00	  560.87	-1752.75	  452.56
      7.9700	  655.00	  561.50	-1752.75	  453.18
      8.0700	  645.00	  562.11	-1752.75	  453.80
      8.1700	  668.00	  562.72	-1752.75	  454.40
      8.2700	  689.00	  563.31	-1752.75	  455.00
      8.3700	  643.00	  563.89	-1752.75	  455.58
      8.4700	  679.00	  564.46	-1752.75	  456.15
      8.5700	  626.00	  565.02	-1752.75	  456.70
      8.6700	  622.00	  565.56	-1752.75	  457.25
      8.7700	  639.00	  566.10	-1752.75	  457.79
      8.8700	  605.00	  566.63	-1752.75	  458.31
      8.9700	  697.00	  567.14	-1752.75	  458.82
      9.0700	  609.00	  567.64	-1752.75	  459.33
      9.1700	  647.00	  568.13	-1752.75	  459.82
      9.2700	  621.00	  568.61	-1752.75	  460.30
      9.3700	  636.00	  569.08	-1752.75	  460.77
      9.4700	  680.00	  569.54	-1752.75	  461.23
      9.5700	  577.00	  569.99	-1752.75	  461.68
      9.6700	  595.00	  570.43	-1752.75	  462.12
      9.7700	  620.00	  570.86	-1752.75	  462.55
      9.8700	  623.00	  571.28	-1752.75	  462.97
      9.9700	  624.00	  571.69	-1752.75	  463.37
     10.0700	  641.00	  574.35	-1686.10	  463.77
     10.1700	  598.00	  574.93	-1729.68	  464.16
     10.2700	  584.00	  575.54	-1744.29	  464.54
     10.3700	  578.00	  576.20	-1750.95	  464.91
     10.4700	  618.00	  576.95	-1711.70	  465.27
     10.5700	  595.00	  577.82	-1735.57	  465.62
     10.6700	  632.00	  578.90	-1699.65	  465.95
     10.7700	  629.00	  580.28	-1704.03	  466.28
     10.8700	  645.00	  582.03	-1689.78	  466.60
     10.9700	  631.00	  584.19	-1705.94	  466.92
     11.0700	  617.00	  586.78	-1722.53	  467.22
     11.1700	  585.00	  589.80	-1757.55	  467.51
     11.2700	  627.00	  593.29	-1719.04	  467.79
     11.3700	  596.00	  597.30	-1754.05	  468.07
     11.4700	  590.00	  601.97	-1764.72	  468.33
     11.5700	  602.00	  607.48	-1758.23	  468.59
     11.6700	  635.00	  614.13	-1731.88	  468.84
     11.7700	  649.00	  622.28	-1726.03	  469.08
     11.8700	  634.00	  632.21	-1750.96	  469.31
     11.9700	  673.00	  643.75	-1723.50	  469.53
     12.0700	  693.00	  655.59	-1715.34	  469.74
     12.1700	  695.00	  664.64	-1722.39	  469.95
     12.2700	  720.00	  665.90	-1698.65	  470.14
     12.3700	  695.00	  655.60	-1713.35	  470.33
     12.4700	  708.00	  637.45	-1682.20	  470.51
     12.5700	  643.00	  619.50	-1729.25	  470.68
     12.6700	  589.00	  605.96	-1769.71	  470.84
     12.7700	  589.00	  597.14	-1760.89	  471.00
     12.8700	  596.00	  591.89	-1748.64	  471.15
     12.9700	  566.00	  588.86	-1775.61	  471.29
     13.0700	  589.00	  587.06	-1750.81	  471.42
     13.1700	  563.00	  585.91	-1775.66	  471.54
     13.2700	  571.00	  585.12	-1766.87	  471.66
     13.3700	  571.00	  584.53	-1766.28	  471.77
     13.4700	  550.00	  584.10	-1786.85	  471.87
     13.5700	  567.00	  583.76	-1769.51	  471.96
     13.6700	  539.00	  583.54	-1797.29	  472.05
     13.7700	  558.00	  583.33	-1778.08	  472.13
     13.8700	  574.00	  583.17	-1761.92	  472.20
     13.9700	  580.00	  583.03	-1755.78	  472.27
     14.0700	  570.00	  582.92	-1765.68	  472.32
     14.1700	  562.00	  582.83	-1773.58	  472.37
     14.2700	  533.00	  582.75	-1802.50	  472.42
     14.3700	  542.00	  582.68	-1793.43	  472.45
     14.4700	  592.00	  582.62	-1743.37	  472.48
     14.5700	  546.00	  582.56	-1789.31	  472.51
     14.6700	  569.00	  582.51	-1766.26	  472.52
     14.7700	  530.00	  582.45	-1805.20	  472.53
     14.8700	  573.00	  582.40	-1762.15	  472.54
     14.9700	  558.00	  582.34	-1777.09	  472.53
     15.0700	  535.00	  582.29	-1800.04	  472.52
     15.1700	  532.00	  582.23	-1802.98	  472.51
     15.2700	  578.00	  582.17	-1756.92	  472.49
     15.3700	  553.00	  582.11	-1781.86	  472.46
     15.4700	  596.00	  582.05	-1738.80	  472.42
     15.5700	  593.00	  581.98	-1741.73	  472.38
     15.6700	  594.00	  581.91	-1740.66	  472.33
     15.7700	  549.00	  581.83	-1785.58	  472.28
     15.8700	  567.00	  581.75	-1767.50	  472.22
     15.9700	  578.00	  581.67	-1756.42	  472.16
     16.0700	  562.00	  581.58	-1772.33	  472.09
     16.1700	  579.00	  581.49	-1755.24	  472.01
     16.2700	  571.00	  581.39	-1763.14	  471.93
     16.3700	  550.00	  581.29	-1784.04	  471.84
     16.4700	  602.00	  581.19	-1731.94	  471.75
     16.5700	  603.00	  581.08	-1730.83	  471.65
     16.6700	  554.00	  580.96	-1779.71	  471.54
     16.7700	  561.00	  580.84	-1772.59	  471.43
     16.8700	  555.00	  580.72	-1778.47	  471.32
     16.9700	  567.00	  580.59	-1766.34	  471.20
     17.0700	  589.00	  580.46	-1744.21	  471.07
     17.1700	  558.00	  580.32	-1775.07	  470.94
     17.2700	  554.00	  580.18	-1778.93	  470.81
     17.3700	  582.00	  580.04	-1750.79	  470.67
     17.4700	  542.00	  580.00	-1790.75	  470.52
     17.5700	  540.00	  579.84	-1792.59	  470.37
     17.6700	  540.00	  579.69	-1792.44	  470.22
     17.7700	  572.00	  579.53	-1760.28	  470.06
     17.8700	  592.00	  579.36	-1740.11	  469.89
     17.9700	  558.00	  579.31	-1774.06	  469.72
     18.0700	  568.00	  579.14	-1763.89	  469.55
     18.1700	  553.00	  578.96	-1778.71	  469.37
     18.2700	  574.00	  578.78	-1757.53	  469.19
     18.3700	  555.00	  578.60	-1776.35	  469.00
     18.4700	  562.00	  578.41	-1769.16	  468.81
     18.5700	  549.00	  578.22	-1781.97	  468.61
     18.6700	  529.00	  578.03	-1801.78	  468.41
     18.7700	  565.00	  577.83	-1765.58	  468.21
     18.8700	  595.00	  577.62	-1735.37	  468.00
     18.9700	  535.00	  577.42	-1795.17	  467.78
     19.0700	  568.00	  577.21	-1761.96	  467.57
     19.1700	  525.00	  577.00	-1804.75	  467.34
     19.2700	  560.00	  576.78	-1769.53	  467.12
     19.3700	  547.00	  576.56	-1782.31	  466.89
     19.4700	  576.00	  576.34	-1753.09	  466.66
     19.5700	  542.00	  576.15	-1786.90	  466.42
     19.6700	  535.00	  575.92	-1793.67	  466.18
     19.7700	  601.00	  575.69	-1727.44	  465.93
     19.8700	  563.00	  575.45	-1765.20	  465.69
     19.9700	  561.00	  575.22	-1766.97	  465.43
     20.0700	  570.00	  574.98	-1757.73	  465.18
     20.1700	  556.00	  574.73	-1771.48	  464.92
     20.2700	  548.00	  574.49	-1779.24	  464.66
     20.3700	  567.00	  574.24	-1759.99	  464.39
     20.4700	  523.00	  573.99	-1803.74	  464.12
     20.5700	  554.00	  573.74	-1772.49	  463.85
     20.6700	  549.00	  573.48	-1777.23	  463.58
     20.7700	  565.00	  573.23	-1760.98	  463.30
     20.8700	  559.00	  572.97	-1766.72	  463.02
     20.9700	  588.00	  572.71	-1737.46	  462.73
     21.0700	  581.00	  572.45	-1744.20	  462.44
     21.1700	  575.00	  572.19	-1749.94	  462.15
     21.2700	  579.00	  571.92	-1745.67	  461.86
     21.3700	  571.00	  571.66	-1753.41	  461.56
     21.4700	  528.00	  571.39	-1796.14	  461.26
     21.5700	  542.00	  571.13	-1781.88	  460.96
     21.6700	  530.00	  570.86	-1793.61	  460.65
     21.7700	  559.00	  570.60	-1764.35	  460.34
     21.8700	  560.00	  570.33	-1763.08	  460.03
     21.9700	  587.00	  570.07	-1735.82	  459.72
     22.0700	  562.00	  569.96	-1760.71	  459.40
     22.1700	  561.00	  569.71	-1761.46	  459.08
     22.2700	  531.00	  569.45	-1791.20	  458.76
     22.3700	  512.00	  569.20	-1809.95	  458.44
     22.4700	  579.00	  568.96	-1742.71	  458.11
     22.5700	  531.00	  568.72	-1790.47	  457.78
     22.6700	  552.00	  568.49	-1769.24	  457.45
     22.7700	  557.00	  568.27	-1764.02	  457.12
     22.8700	  596.00	  568.06	-1724.81	  456.79
     22.9700	  584.00	  567.87	-1736.62	  456.45
     23.0700	  552.00	  567.69	-1768.44	  456.11
     23.1700	  568.00	  567.54	-1752.29	  455.77
     23.2700	  581.00	  567.37	-1739.12	  455.42
     23.3700	  606.00	  567.28	-1714.03	  455.08
     23.4700	  586.00	  567.25	-1734.00	  454.73
     23.5700	  532.00	  567.28	-1788.03	  454.38
     23.6700	  566.00	  567.40	-1754.15	  454.03
     23.7700	  583.00	  567.65	-1737.40	  453.67
     23.8700	  550.00	  568.13	-1770.88	  453.32
     23.9700	  616.00	  568.95	-1705.70	  452.96
     24.0700	  532.00	  570.36	-1791.11	  452.60
     24.1700	  580.00	  572.73	-1745.48	  452.24
     24.2700	  624.00	  576.56	-1705.31	  451.88
     24.3700	  643.00	  582.41	-1692.16	  451.51
     24.4700	  652.00	  590.69	-1691.44	  451.15
     24.5700	  683.00	  601.41	-1671.16	  450.78
     24.6700	  631.00	  613.67	-1735.42	  450.41
     24.7700	  656.00	  625.15	-1721.90	  450.04
     24.8700	  681.00	  631.73	-1703.48	  449.67
     24.9700	  642.00	  628.82	-1739.57	  449.29
     25.0700	  693.00	  616.50	-1676.25	  448.92
     25.1700	  614.00	  600.93	-1739.68	  448.54
     25.2700	  621.00	  587.46	-1719.21	  448.17
     25.3700	  577.00	  577.77	-1753.52	  447.79
     25.4700	  599.00	  571.53	-1725.28	  447.41
     25.5700	  625.00	  567.76	-1695.51	  447.03
     25.6700	  551.00	  565.48	-1767.23	  446.65
     25.7700	  605.00	  564.03	-1711.78	  446.26
     25.8700	  590.00	  563.03	-1725.78	  445.88
     25.9700	  574.00	  562.30	-1741.05	  445.49
     26.0700	  583.00	  561.76	-1731.51	  445.11
     26.1700	  619.00	  561.37	-1695.12	  444.72
     26.2700	  597.00	  561.11	-1716.86	  444.33
     26.3700	  599.00	  560.97	-1714.72	  443.94
     26.4700	  546.00	  560.94	-1767.69	  443.55
     26.5700	  591.00	  561.03	-1722.78	  443.16
     26.6700	  604.00	  561.26	-1710.01	  442.77
     26.7700	  592.00	  561.64	-1722.39	  442.38
     26.8700	  600.00	  562.21	-1714.96	  441.98
     26.9700	  629.00	  563.02	-1686.77	  441.59
     27.0700	  625.00	  564.13	-1691.88	  441.20
     27.1700	  611.00	  565.64	-1707.39	  440.80
     27.2700	  601.00	  567.75	-1719.50	  440.41
     27.3700	  612.00	  570.80	-1711.55	  440.01
     27.4700	  623.00	  575.45	-1705.20	  439.61
     27.5700	  631.00	  582.88	-1704.63	  439.22
     27.6700	  629.00	  595.06	-1718.81	  438.82
     27.7700	  613.00	  614.86	-1754.61	  438.42
     27.8700	  645.00	  645.42	-1753.17	  438.02
     27.9700	  730.00	  688.68	-1711.43	  437.62
     28.0700	  768.00	  743.00	-1727.75	  437.22
     28.1700	  791.00	  800.75	-1762.50	  436.82
     28.2700	  902.00	  846.75	-1697.50	  436.42
     28.3700	  957.00	  861.73	-1657.48	  436.02
     28.4700	  915.00	  841.27	-1679.02	  435.62
     28.5700	  837.00	  810.56	-1726.31	  435.22
     28.6700	  744.00	  797.61	-1806.36	  434.82
     28.7700	  788.00	  810.99	-1775.74	  434.42
     28.8700	  857.00	  841.69	-1737.44	  434.02
     28.9700	  910.00	  868.04	-1710.79	  433.62
     29.0700	  852.00	  863.14	-1763.89	  433.22
     29.1700	  825.00	  815.77	-1743.52	  432.82
     29.2700	  733.00	  746.59	-1766.34	  432.41
     29.3700	  682.00	  682.30	-1753.05	  432.01
     29.4700	  621.00	  634.48	-1766.23	  431.61
     29.5700	  586.00	  603.46	-1770.21	  431.21
     29.6700	  608.00	  585.04	-1729.79	  430.81
     29.7700	  650.00	  574.43	-1677.18	  430.41
     29.8700	  638.00	  568.14	-1682.89	  430.01
     29.9700	  586.00	  564.21	-1730.96	  429.61
     30.0700	  606.00	  561.73	-1708.48	  429.21
     30.1700	  616.00	  560.46	-1697.21	  428.81
     30.2700	  607.00	  560.52	-1706.27	  428.41
     30.3700	  641.00	  562.41	-1674.16	  428.01
     30.4700	  573.00	  566.99	-1746.74	  427.61
     30.5700	  630.00	  575.33	-1698.08	  427.21
     30.6700	  567.00	  588.16	-1773.91	  426.81
     30.7700	  613.00	  605.00	-1744.75	  426.41
     30.8700	  650.00	  623.23	-1725.98	  426.01
     30.9700	  671.00	  637.59	-1719.34	  425.62
     31.0700	  678.00	  640.95	-1715.70	  425.22
     31.1700	  628.00	  629.49	-1754.24	  424.82
     31.2700	  629.00	  608.64	-1732.40	  424.43
     31.3700	  625.00	  587.41	-1715.16	  424.03
     31.4700	  567.00	  570.62	-1756.37	  423.64
     31.5700	  609.00	  559.15	-1702.90	  423.24
     31.6700	  542.00	  552.04	-1762.79	  422.85
     31.7700	  524.00	  547.83	-1776.58	  422.46
     31.8700	  555.00	  545.31	-1743.06	  422.06
     31.9700	  554.00	  543.70	-1742.45	  421.67
     32.0700	  561.00	  542.62	-1734.37	  421.28
     32.1700	  568.00	  541.87	-1726.62	  420.89
     32.2700	  578.00	  541.38	-1716.13	  420.50
     32.3700	  589.00	  541.12	-1704.87	  420.11
     32.4700	  522.00	  541.08	-1771.83	  419.73
     32.5700	  569.00	  541.26	-1725.01	  419.34
     32.6700	  517.00	  541.69	-1777.44	  418.95
     32.7700	  560.00	  542.41	-1735.16	  418.57
     32.8700	  591.00	  543.50	-1705.25	  418.18
     32.9700	  559.00	  545.06	-1738.81	  417.80
     33.0700	  563.00	  547.27	-1737.02	  417.41
     33.1700	  587.00	  550.52	-1716.27	  417.03
     33.2700	  579.00	  555.42	-1729.17	  416.65
     33.3700	  578.00	  563.31	-1738.06	  416.27
     33.4700	  548.00	  576.47	-1781.22	  415.89
     33.5700	  605.00	  598.53	-1746.28	  415.51
     33.6700	  639.00	  634.05	-1747.80	  415.14
     33.7700	  637.00	  686.94	-1802.69	  414.76
     33.8700	  725.00	  757.05	-1784.80	  414.38
     33.9700	  866.00	  836.05	-1722.80	  414.01
     34.0700	 1002.00	  905.07	-1655.82	  413.64
     34.1700	 1019.00	  936.53	-1670.28	  413.27
     34.2700	  975.00	  909.75	-1687.50	  412.89
     34.3700	  920.00	  836.35	-1669.10	  412.52
     34.4700	  773.00	  750.53	-1730.28	  412.16
     34.5700	  661.00	  676.67	-1768.42	  411.79
     34.6700	  598.00	  622.84	-1777.59	  411.42
     34.7700	  553.00	  587.79	-1787.54	  411.06
     34.8700	  542.00	  566.56	-1777.31	  410.69
     34.9700	  555.00	  553.95	-1751.70	  410.33
     35.0700	  529.00	  546.15	-1769.90	  409.97
     35.1700	  559.00	  540.90	-1734.65	  409.61
     35.2700	  509.00	  537.05	-1780.80	  409.25
     35.3700	  534.00	  534.05	-1752.80	  408.89
     35.4700	  553.00	  532.09	-1731.84	  408.54
     35.5700	  527.00	  530.09	-1755.84	  408.18
     35.6700	  519.00	  528.39	-1762.14	  407.83
     35.7700	  476.00	  526.93	-1803.68	  407.48
     35.8700	  525.00	  525.65	-1753.41	  407.13
     35.9700	  528.00	  524.54	-1749.29	  406.78
     36.0700	  476.00	  523.54	-1800.29	  406.43
     36.1700	  536.00	  522.65	-1739.40	  406.08
     36.2700	  497.00	  521.85	-1777.60	  405.74
     36.3700	  533.00	  521.12	-1740.87	  405.39
     36.4700	  541.00	  520.43	-1732.18	  405.05
     36.5700	  498.00	  519.83	-1774.58	  404.71
     36.6700	  495.00	  519.30	-1777.05	  404.37
     36.7700	  523.00	  518.83	-1748.58	  404.03
     36.8700	  496.00	  518.44	-1775.19	  403.70
     36.9700	  557.00	  518.15	-1713.90	  403.36
     37.0700	  500.00	  518.02	-1770.77	  403.03
     37.1700	  509.00	  518.14	-1761.89	  402.70
     37.2700	  516.00	  518.66	-1755.41	  402.37
     37.3700	  517.00	  519.73	-1755.48	  402.04
     37.4700	  532.00	  521.66	-1742.41	  401.71
     37.5700	  511.00	  524.05	-1765.80	  401.39
     37.6700	  512.00	  526.75	-1767.50	  401.06
     37.7700	  496.00	  529.08	-1785.83	  400.74
     37.8700	  491.00	  530.04	-1791.79	  400.42
     37.9700	  535.00	  529.00	-1746.75	  400.10
     38.0700	  537.00	  526.33	-1742.08	  399.78
     38.1700	  522.00	  523.04	-1753.79	  399.47
     38.2700	  482.00	  519.83	-1790.58	  399.15
     38.3700	  506.00	  517.08	-1763.83	  398.84
     38.4700	  510.00	  514.93	-1757.68	  398.53
     38.5700	  482.00	  513.34	-1784.09	  398.22
     38.6700	  511.00	  512.20	-1753.95	  397.91
     38.7700	  532.00	  511.36	-1732.11	  397.61
     38.8700	  472.00	  510.71	-1791.46	  397.30
     38.9700	  544.00	  510.19	-1718.94	  397.00
     39.0700	  506.00	  509.73	-1756.48	  396.70
     39.1700	  504.00	  509.32	-1758.07	  396.40
     39.2700	  487.00	  508.95	-1774.70	  396.11
     39.3700	  472.00	  508.49	-1789.24	  395.81
     39.4700	  482.00	  508.16	-1778.91	  395.52
     39.5700	  481.00	  507.85	-1779.60	  395.23
     39.6700	  515.00	  507.55	-1745.30	  394.94
     39.7700	  492.00	  507.27	-1768.02	  394.65
     39.8700	  491.00	  507.01	-1768.76	  394.36
     39.9700	  524.00	  506.75	-1735.50	  394.08
     40.0700	  503.00	  506.51	-1756.26	  393.79
     40.1700	  497.00	  506.82	-1762.57	  393.51
     40.2700	  512.00	  506.61	-1747.36	  393.23
     40.3700	  502.00	  506.31	-1757.06	  392.96
     40.4700	  475.00	  506.13	-1783.88	  392.68
     40.5700	  519.00	  506.03	-1739.78	  392.41
     40.6700	  474.00	  505.90	-1784.65	  392.14
     40.7700	  498.00	  505.78	-1760.53	  391.87
     40.8700	  464.00	  505.69	-1794.44	  391.60
     40.9700	  488.00	  505.64	-1770.39	  391.33
     41.0700	  536.00	  505.61	-1722.36	  391.07
     41.1700	  499.00	  505.63	-1759.39	  390.81
     41.2700	  501.00	  505.71	-1757.46	  390.55
     41.3700	  478.00	  505.85	-1780.60	  390.29
     41.4700	  500.00	  506.07	-1758.82	  390.03
     41.5700	  498.00	  506.39	-1761.14	  389.78
     41.6700	  522.00	  506.87	-1737.62	  389.53
     41.7700	  476.00	  507.58	-1784.33	  389.28
     41.8700	  528.00	  508.76	-1733.51	  389.03
     41.9700	  491.00	  510.49	-1772.24	  388.78
     42.0700	  480.00	  513.45	-1786.20	  388.54
     42.1700	  487.00	  518.22	-1783.97	  388.29
     42.2700	  498.00	  525.91	-1780.66	  388.05
     42.3700	  508.00	  537.52	-1782.27	  387.81
     42.4700	  500.00	  553.59	-1806.34	  387.58
     42.5700	  554.00	  573.38	-1772.13	  387.34
     42.6700	  601.00	  594.08	-1745.83	  387.11
     42.7700	  615.00	  610.54	-1748.29	  386.88
     42.8700	  598.00	  615.91	-1770.66	  386.65
     42.9700	  576.00	  607.28	-1784.03	  386.42
     43.0700	  555.00	  588.56	-1786.31	  386.19
     43.1700	  523.00	  566.89	-1796.64	  385.97
     43.2700	  512.00	  547.35	-1788.10	  385.75
     43.3700	  522.00	  532.10	-1762.85	  385.53
     43.4700	  517.00	  521.36	-1757.11	  385.31
     43.5700	  486.00	  514.36	-1781.11	  385.10
     43.6700	  504.00	  510.00	-1758.75	  384.88
     43.7700	  450.00	  507.29	-1810.04	  384.67
     43.8700	  516.00	  505.54	-1742.29	  384.46
     43.9700	  480.00	  504.32	-1777.07	  384.26
     44.0700	  529.00	  503.63	-1727.38	  384.05
     44.1700	  485.00	  502.92	-1770.67	  383.85
     44.2700	  491.00	  502.35	-1764.10	  383.65
     44.3700	  503.00	  501.89	-1751.64	  383.45
     44.4700	  508.00	  501.50	-1746.25	  383.25
     44.5700	  505.00	  501.18	-1748.93	  383.05
     44.6700	  530.00	  500.92	-1723.67	  382.86
     44.7700	  515.00	  500.70	-1738.45	  382.67
     44.8700	  509.00	  500.53	-1744.28	  382.48
     44.9700	  488.00	  500.39	-1765.14	  382.29
     45.0700	  514.00	  500.29	-1739.04	  382.11
     45.1700	  479.00	  500.22	-1773.97	  381.92
     45.2700	  530.00	  500.18	-1722.93	  381.74
     45.3700	  476.00	  500.17	-1776.92	  381.56
     45.4700	  539.00	  500.19	-1713.94	  381.38
     45.5700	  544.00	  500.31	-1709.06	  381.21
     45.6700	  496.00	  500.40	-1757.15	  381.03
     45.7700	  516.00	  500.51	-1737.26	  380.86
     45.8700	  499.00	  500.71	-1754.46	  380.69
     45.9700	  538.00	  500.89	-1715.64	  380.53
     46.0700	  493.00	  501.12	-1760.87	  380.36
     46.1700	  485.00	  501.39	-1769.14	  380.20
     46.2700	  502.00	  501.71	-1752.46	  380.04
     46.3700	  508.00	  502.09	-1746.84	  379.88
     46.4700	  484.00	  502.39	-1771.14	  379.72
     46.5700	  497.00	  502.91	-1758.66	  379.56
     46.6700	  502.00	  503.52	-1754.27	  379.41
     46.7700	  502.00	  504.25	-1755.00	  379.26
     46.8700	  516.00	  505.13	-1741.88	  379.11
     46.9700	  536.00	  506.24	-1722.99	  378.96
     47.0700	  520.00	  507.68	-1740.43	  378.82
     47.1700	  504.00	  509.68	-1758.43	  378.67
     47.2700	  539.00	  512.60	-1726.35	  378.53
     47.3700	  534.00	  516.94	-1735.69	  378.39
     47.4700	  557.00	  523.30	-1719.05	  378.25
     47.5700	  527.00	  532.24	-1757.99	  378.12
     47.6700	  558.00	  543.97	-1738.72	  377.98
     47.7700	  553.00	  557.99	-1757.74	  377.85
     47.8700	  571.00	  572.67	-1754.42	  377.72
     47.9700	  545.00	  585.03	-1792.78	  377.60
     48.0700	  615.00	  591.74	-1729.49	  377.47
     48.1700	  586.00	  589.85	-1756.60	  377.35
     48.2700	  550.00	  581.37	-1784.12	  377.22
     48.3700	  569.00	  570.24	-1753.99	  377.10
     48.4700	  538.00	  559.82	-1774.57	  376.99
     48.5700	  518.00	  551.98	-1786.73	  376.87
     48.6700	  486.00	  547.41	-1814.16	  376.75
     48.7700	  482.00	  546.06	-1816.81	  376.64
     48.8700	  571.00	  547.61	-1729.36	  376.53
     48.9700	  545.00	  551.69	-1759.44	  376.42
     49.0700	  537.00	  558.22	-1773.97	  376.32
     49.1700	  547.00	  567.58	-1773.33	  376.21
     49.2700	  574.00	  581.03	-1759.78	  376.11
     49.3700	  553.00	  601.25	-1801.00	  376.01
     49.4700	  559.00	  633.30	-1827.05	  375.91
     49.5700	  620.00	  685.61	-1818.36	  375.81
     49.6700	  670.00	  770.21	-1852.96	  375.72
     49.7700	  802.00	  901.30	-1852.05	  375.62
     49.8700	  980.00	 1090.89	-1863.64	  375.53
     49.9700	 1296.00	 1341.86	-1798.61	  375.44
     50.0700	 1638.00	 1639.14	-1753.89	  375.36
     50.1700	 1984.00	 1941.26	-1710.01	  375.27
     50.2700	 2299.00	 2176.89	-1630.64	  375.19
     50.3700	 2291.00	 2263.55	-1725.30	  375.10
     50.4700	 2210.00	 2162.19	-1704.94	  375.02
     50.5700	 1964.00	 1916.57	-1705.32	  374.95
     50.6700	 1573.00	 1612.73	-1792.48	  374.87
     50.7700	 1315.00	 1321.84	-1759.59	  374.79
     50.8700	  972.00	 1082.46	-1863.21	  374.72
     50.9700	  853.00	  906.84	-1806.59	  374.65
     51.0700	  680.00	  790.12	-1862.87	  374.58
     51.1700	  676.00	  718.53	-1795.28	  374.51
     51.2700	  637.00	  676.11	-1791.86	  374.45
     51.3700	  661.00	  649.13	-1740.88	  374.38
     51.4700	  634.00	  628.54	-1747.29	  374.32
     51.5700	  615.00	  610.46	-1748.21	  374.26
     51.6700	  608.00	  594.28	-1739.03	  374.20
     51.7700	  581.00	  580.43	-1752.18	  374.15
     51.8700	  583.00	  569.25	-1739.00	  374.09
     51.9700	  564.00	  560.77	-1749.52	  374.04
     52.0700	  571.00	  554.80	-1736.55	  373.99
     52.1700	  606.00	  550.99	-1697.74	  373.94
     52.2700	  584.00	  549.02	-1717.77	  373.89
     52.3700	  597.00	  548.65	-1704.40	  373.84
     52.4700	  593.00	  549.88	-1709.63	  373.80
     52.5700	  533.00	  553.00	-1772.75	  373.76
     52.6700	  530.00	  558.78	-1781.53	  373.71
     52.7700	  624.00	  568.68	-1697.43	  373.67
     52.8700	  641.00	  585.01	-1696.76	  373.64
     52.9700	  653.00	  611.07	-1710.82	  373.60
     53.0700	  659.00	  650.72	-1744.47	  373.57
     53.1700	  725.00	  707.55	-1735.30	  373.53
     53.2700	  745.00	  783.34	-1791.09	  373.50
     53.3700	  935.00	  876.12	-1693.87	  373.47
     53.4700	 1043.00	  978.18	-1687.93	  373.44
     53.5700	 1047.00	 1073.73	-1779.48	  373.42
     53.6700	 1183.00	 1139.62	-1709.37	  373.39
     53.7700	 1105.00	 1153.36	-1801.11	  373.37
     53.8700	 1081.00	 1109.26	-1781.01	  373.35
     53.9700	 1058.00	 1023.93	-1718.68	  373.33
     54.0700	  975.00	  922.54	-1700.29	  373.31
     54.1700	  846.00	  824.75	-1731.50	  373.29
     54.2700	  741.00	  741.61	-1753.36	  373.28
     54.3700	  664.00	  677.28	-1766.03	  373.27
     54.4700	  611.00	  631.34	-1773.09	  373.25
     54.5700	  575.00	  600.75	-1778.50	  373.24
     54.6700	  590.00	  581.58	-1744.33	  373.23
     54.7700	  546.00	  570.20	-1776.95	  373.23
     54.8700	  563.00	  563.84	-1753.59	  373.22
     54.9700	  604.00	  560.66	-1709.41	  373.22
     55.0700	  571.00	  559.60	-1741.35	  373.21
     55.1700	  546.00	  560.09	-1766.84	  373.21
     55.2700	  595.00	  561.88	-1719.63	  373.21
     55.3700	  596.00	  564.92	-1721.67	  373.21
     55.4700	  544.00	  569.28	-1778.03	  373.22
     55.5700	  571.00	  575.16	-1756.91	  373.22
     55.6700	  539.00	  582.99	-1796.74	  373.23
     55.7700	  607.00	  593.52	-1739.27	  373.23
     55.8700	  634.00	  608.22	-1726.97	  373.24
     55.9700	  625.00	  629.71	-1757.46	  373.25
     56.0700	  686.00	  662.46	-1729.21	  373.26
     56.1700	  734.00	  713.41	-1732.16	  373.28
     56.2700	  735.00	  792.20	-1809.95	  373.29
     56.3700	  879.00	  910.33	-1784.08	  373.31
     56.4700	  987.00	 1078.77	-1844.52	  373.32
     56.5700	 1244.00	 1303.92	-1812.67	  373.34
     56.6700	 1557.00	 1582.36	-1778.11	  373.36
     56.7700	 1884.00	 1895.61	-1764.36	  373.38
     56.8700	 2177.00	 2204.58	-1780.33	  373.40
     56.9700	 2358.00	 2448.30	-1843.05	  373.43
     57.0700	 2671.00	 2557.11	-1638.86	  373.45
     57.1700	 2352.00	 2492.08	-1892.83	  373.48
     57.2700	 2271.00	 2277.07	-1758.82	  373.51
     57.3700	 1982.00	 1979.24	-1749.99	  373.53
     57.4700	 1573.00	 1664.90	-1844.65	  373.56
     57.5700	 1379.00	 1378.81	-1752.56	  373.60
     57.6700	 1098.00	 1144.00	-1798.75	  373.63
     57.7700	  925.00	  967.21	-1794.96	  373.66
     57.8700	  820.00	  844.43	-1777.18	  373.70
     57.9700	  738.00	  766.15	-1780.90	  373.73
     58.0700	  758.00	  722.01	-1716.76	  373.77
     58.1700	  689.00	  703.55	-1767.30	  373.81
     58.2700	  743.00	  705.25	-1715.00	  373.85
     58.3700	  729.00	  724.29	-1748.04	  373.89
     58.4700	  770.00	  759.42	-1742.17	  373.93
     58.5700	  822.00	  809.57	-1740.32	  373.97
     58.6700	  862.00	  872.43	-1763.18	  374.02
     58.7700	  941.00	  943.13	-1754.88	  374.06
     58.8700	 1028.00	 1014.20	-1738.95	  374.11
     58.9700	 1147.00	 1078.08	-1683.83	  374.15
     59.0700	 1241.00	 1129.94	-1641.69	  374.20
     59.1700	 1310.00	 1166.44	-1609.19	  374.25
     59.2700	 1333.00	 1183.20	-1602.95	  374.30
     59.3700	 1380.00	 1178.32	-1551.07	  374.35
     59.4700	 1297.00	 1158.13	-1613.88	  374.41
     59.5700	 1231.00	 1135.44	-1657.19	  374.46
     59.6700	 1248.00	 1122.00	-1626.75	  374.51
     59.7700	 1162.00	 1124.74	-1715.49	  374.57
     59.8700	 1117.00	 1147.01	-1782.76	  374.63
     59.9700	 1221.00	 1191.23	-1722.98	  374.68
     60.0700	 1330.00	 1257.66	-1680.41	  374.74
     60.1700	 1416.00	 1340.33	-1677.08	  374.80
     60.2700	 1545.00	 1423.84	-1631.59	  374.86
     60.3700	 1580.00	 1483.80	-1656.55	  374.92
     60.4700	 1536.00	 1494.01	-1710.76	  374.98
     60.5700	 1464.00	 1441.64	-1730.39	  375.05
     60.6700	 1361.00	 1336.82	-1728.57	  375.11
     60.7700	 1222.00	 1204.13	-1734.88	  375.18
     60.8700	 1131.00	 1067.64	-1689.39	  375.24
     60.9700	  940.00	  944.12	-1756.87	  375.31
     61.0700	  830.00	  842.97	-1765.72	  375.37
     61.1700	  737.00	  767.82	-1783.57	  375.44
     61.2700	  706.00	  718.65	-1765.40	  375.51
     61.3700	  676.00	  693.71	-1770.46	  375.58
     61.4700	  742.00	  691.36	-1702.11	  375.65
     61.5700	  659.00	  711.07	-1804.82	  375.72
     61.6700	  775.00	  753.50	-1731.25	  375.79
     61.7700	  799.00	  819.64	-1773.39	  375.87
     61.8700	  867.00	  909.13	-1794.88	  375.94
     61.9700	  982.00	 1018.58	-1789.33	  376.01
     62.0700	 1103.00	 1139.72	-1789.47	  376.09
     62.1700	 1227.00	 1257.99	-1783.74	  376.16
     62.2700	 1287.00	 1352.22	-1817.97	  376.24
     62.3700	 1359.00	 1398.71	-1792.46	  376.32
     62.4700	 1330.00	 1382.60	-1805.35	  376.39
     62.5700	 1253.00	 1308.41	-1808.16	  376.47
     62.6700	 1112.00	 1196.68	-1837.43	  376.55
     62.7700	 1017.00	 1070.90	-1806.65	  376.63
     62.8700	  882.00	  949.28	-1820.03	  376.71
     62.9700	  840.00	  842.97	-1755.72	  376.79
     63.0700	  729.00	  757.15	-1780.90	  376.87
     63.1700	  656.00	  692.55	-1789.30	  376.95
     63.2700	  615.00	  646.92	-1784.67	  377.04
     63.3700	  612.00	  616.57	-1757.32	  377.12
     63.4700	  601.00	  597.66	-1749.41	  377.20
     63.5700	  566.00	  587.04	-1773.79	  377.28
     63.6700	  595.00	  582.65	-1740.40	  377.37
     63.7700	  559.00	  583.57	-1777.32	  377.45
     63.8700	  598.00	  589.87	-1744.62	  377.54
     63.9700	  596.00	  602.41	-1759.16	  377.62
     64.0700	  668.00	  622.58	-1707.33	  377.71
     64.1700	  646.00	  651.61	-1758.36	  377.80
     64.2700	  690.00	  690.43	-1753.18	  377.88
     64.3700	  743.00	  738.82	-1748.57	  377.97
     64.4700	  863.00	  794.84	-1684.59	  378.06
     64.5700	  923.00	  854.26	-1684.01	  378.15
     64.6700	  991.00	  910.19	-1671.94	  378.24
     64.7700	 1000.00	  953.83	-1706.58	  378.32
     64.8700	 1039.00	  976.41	-1690.16	  378.41
     64.9700	 1059.00	  974.01	-1667.76	  378.50
     65.0700	  985.00	  948.56	-1716.31	  378.59
     65.1700	  892.00	  906.55	-1767.30	  378.68
     65.2700	  863.00	  856.38	-1746.13	  378.77
     65.3700	  797.00	  805.09	-1760.84	  378.86
     65.4700	  779.00	  758.69	-1732.44	  378.96
     65.5700	  664.00	  718.94	-1807.69	  379.05
     65.6700	  641.00	  685.91	-1797.66	  379.14
     65.7700	  627.00	  658.68	-1784.43	  379.23
     65.8700	  613.00	  636.33	-1776.08	  379.32
     65.9700	  623.00	  618.44	-1748.19	  379.41
     66.0700	  562.00	  604.28	-1795.03	  379.51
     66.1700	  629.00	  593.71	-1717.46	  379.60
     66.2700	  542.00	  586.09	-1796.84	  379.69
     66.3700	  535.00	  581.23	-1798.98	  379.78
     66.4700	  551.00	  578.85	-1780.60	  379.88
     66.5700	  571.00	  578.79	-1760.54	  379.97
     66.6700	  590.00	  580.98	-1743.73	  380.06
     66.7700	  587.00	  585.67	-1751.42	  380.15
     66.8700	  572.00	  593.18	-1773.93	  380.25
     66.9700	  615.00	  604.61	-1742.36	  380.34
     67.0700	  634.00	  621.79	-1740.54	  380.43
     67.1700	  650.00	  647.59	-1750.34	  380.53
     67.2700	  701.00	  686.19	-1737.94	  380.62
     67.3700	  714.00	  742.98	-1781.73	  380.71
     67.4700	  784.00	  824.30	-1793.05	  380.81
     67.5700	  908.00	  936.36	-1781.11	  380.90
     67.6700	 1088.00	 1083.93	-1748.68	  380.99
     67.7700	 1287.00	 1268.16	-1733.91	  381.09
     67.8700	 1560.00	 1484.84	-1677.59	  381.18
     67.9700	 1692.00	 1722.38	-1783.13	  381.27
     68.0700	 2060.00	 1960.18	-1652.93	  381.37
     68.1700	 2102.00	 2168.04	-1818.79	  381.46
     68.2700	 2327.00	 2308.94	-1734.69	  381.55
     68.3700	 2277.00	 2350.26	-1826.01	  381.65
     68.4700	 2319.00	 2281.09	-1714.84	  381.74
     68.5700	 2025.00	 2119.40	-1847.15	  381.83
     68.6700	 1960.00	 1900.55	-1693.30	  381.92
     68.7700	 1687.00	 1660.55	-1726.30	  382.02
     68.8700	 1405.00	 1427.22	-1774.97	  382.11
     68.9700	 1183.00	 1218.60	-1788.35	  382.20
     69.0700	  987.00	 1044.22	-1809.97	  382.29
     69.1700	  960.00	  906.68	-1699.43	  382.38
     69.2700	  790.00	  803.60	-1766.35	  382.47
     69.3700	  716.00	  729.72	-1766.47	  382.56
     69.4700	  659.00	  678.65	-1772.40	  382.65
     69.5700	  656.00	  644.21	-1740.96	  382.74
     69.6700	  620.00	  621.25	-1754.00	  382.83
     69.7700	  583.00	  605.93	-1775.68	  382.92
     69.8700	  626.00	  595.54	-1722.29	  383.01
     69.9700	  593.00	  588.39	-1748.14	  383.10
     70.0700	  582.00	  583.44	-1754.19	  383.19
     70.1700	  583.00	  580.11	-1749.86	  383.28
     70.2700	  592.00	  577.88	-1738.63	  383.37
     70.3700	  548.00	  576.98	-1781.73	  383.46
     70.4700	  635.00	  577.22	-1694.97	  383.54
     70.5700	  580.00	  579.68	-1752.43	  383.63
     70.6700	  538.00	  582.72	-1797.47	  383.72
     70.7700	  584.00	  587.81	-1756.56	  383.80
     70.8700	  610.00	  595.85	-1738.60	  383.89
     70.9700	  615.00	  608.23	-1745.98	  383.97
     71.0700	  608.00	  626.98	-1771.73	  384.06
     71.1700	  658.00	  654.89	-1749.64	  384.14
     71.2700	  714.00	  695.43	-1734.18	  384.23
     71.3700	  743.00	  752.53	-1762.28	  384.31
     71.4700	  779.00	  829.99	-1803.74	  384.39
     71.5700	  950.00	  930.70	-1733.45	  384.47
     71.6700	 1087.00	 1055.53	-1721.28	  384.55
     71.7700	 1171.00	 1202.24	-1783.99	  384.64
     71.8700	 1315.00	 1364.62	-1802.37	  384.72
     71.9700	 1522.00	 1531.43	-1762.18	  384.80
     72.0700	 1587.00	 1686.07	-1851.82	  384.87
     72.1700	 1742.00	 1807.06	-1817.81	  384.95
     72.2700	 1801.00	 1872.13	-1823.88	  385.03
     72.3700	 1795.00	 1866.86	-1824.61	  385.11
     72.4700	 1726.00	 1792.48	-1819.23	  385.19
     72.5700	 1601.00	 1665.15	-1816.90	  385.26
     72.6700	 1587.00	 1507.45	-1673.20	  385.34
     72.7700	 1437.00	 1340.29	-1656.04	  385.41
     72.8700	 1211.00	 1179.42	-1721.17	  385.49
     72.9700	 1101.00	 1035.21	-1686.96	  385.56
     73.0700	  974.00	  913.15	-1691.90	  385.63
     73.1700	  844.00	  814.87	-1723.62	  385.70
     73.2700	  777.00	  739.13	-1714.88	  385.78
     73.3700	  765.00	  682.91	-1670.66	  385.85
     73.4700	  631.00	  642.43	-1764.18	  385.92
     73.5700	  666.00	  613.89	-1700.64	  385.98
     73.6700	  634.00	  593.99	-1712.74	  386.05
     73.7700	  615.00	  580.11	-1717.86	  386.12
     73.8700	  630.00	  570.35	-1693.10	  386.19
     73.9700	  584.00	  563.42	-1732.17	  386.25
     74.0700	  617.00	  558.49	-1694.24	  386.32
     74.1700	  585.00	  554.50	-1722.25	  386.38
     74.2700	  598.00	  552.18	-1706.93	  386.45
     74.3700	  578.00	  550.76	-1725.51	  386.51
     74.4700	  605.00	  550.01	-1697.76	  386.57
     74.5700	  639.00	  549.73	-1663.48	  386.63
     74.6700	  580.00	  549.68	-1722.43	  386.69
     74.7700	  607.00	  549.59	-1695.34	  386.75
     74.8700	  625.00	  549.19	-1676.94	  386.81
     74.9700	  643.00	  548.28	-1658.03	  386.86
     75.0700	  620.00	  546.84	-1679.59	  386.92
     75.1700	  639.00	  545.04	-1658.79	  386.97
     75.2700	  652.00	  543.18	-1643.93	  387.03
     75.3700	  586.00	  541.60	-1708.35	  387.08
     75.4700	  601.00	  540.67	-1692.42	  387.13
     75.5700	  585.00	  540.76	-1708.51	  387.19
     75.6700	  618.00	  542.27	-1677.02	  387.24
     75.7700	  608.00	  545.61	-1690.36	  387.28
     75.8700	  547.00	  551.21	-1756.96	  387.33
     75.9700	  595.00	  559.44	-1717.19	  387.38
     76.0700	  631.00	  570.49	-1692.24	  387.43
     76.1700	  586.00	  584.52	-1751.27	  387.47
     76.2700	  612.00	  601.25	-1742.00	  387.51
     76.3700	  619.00	  620.05	-1753.80	  387.56
     76.4700	  668.00	  639.85	-1724.60	  387.60
     76.5700	  679.00	  659.08	-1732.83	  387.64
     76.6700	  705.00	  675.57	-1723.32	  387.68
     76.7700	  683.00	  687.13	-1756.88	  387.72
     76.8700	  659.00	  691.60	-1785.35	  387.76
     76.9700	  701.00	  688.01	-1739.76	  387.79
     77.0700	  653.00	  677.03	-1776.78	  387.83
     77.1700	  621.00	  660.58	-1792.33	  387.86
     77.2700	  664.00	  641.03	-1729.78	  387.89
     77.3700	  605.00	  620.51	-1768.26	  387.93
     77.4700	  540.00	  600.66	-1813.41	  387.96
     77.5700	  602.00	  582.62	-1733.37	  387.99
     77.6700	  552.00	  567.05	-1767.80	  388.01
     77.7700	  538.00	  554.21	-1768.96	  388.04
     77.8700	  481.00	  544.04	-1815.79	  388.07
     77.9700	  535.00	  536.22	-1753.97	  388.09
     78.0700	  488.00	  530.47	-1795.22	  388.11
     78.1700	  500.00	  526.33	-1779.08	  388.13
     78.2700	  514.00	  523.18	-1761.93	  388.16
     78.3700	  519.00	  521.12	-1754.87	  388.17
     78.4700	  495.00	  519.68	-1777.43	  388.19
     78.5700	  491.00	  518.67	-1780.42	  388.21
     78.6700	  485.00	  517.95	-1785.70	  388.23
     78.7700	  505.00	  517.46	-1765.21	  388.24
     78.8700	  498.00	  517.12	-1771.87	  388.25
     78.9700	  545.00	  516.94	-1724.69	  388.26
     79.0700	  535.00	  516.88	-1734.63	  388.27
     79.1700	  522.00	  516.97	-1747.72	  388.28
     79.2700	  499.00	  517.22	-1770.97	  388.29
     79.3700	  511.00	  517.64	-1759.39	  388.30
     79.4700	  489.00	  518.28	-1782.03	  388.30
     79.5700	  515.00	  519.16	-1756.91	  388.31
     79.6700	  517.00	  520.35	-1756.10	  388.31
     79.7700	  561.00	  521.91	-1713.66	  388.31
     79.8700	  518.00	  523.90	-1758.65	  388.31
     79.9700	  531.00	  526.44	-1748.19	  388.31
     80.0700	  507.00	  529.62	-1775.37	  388.30
     80.1700	  522.00	  533.58	-1764.33	  388.30
     80.2700	  550.00	  538.45	-1741.20	  388.29
     80.3700	  539.00	  544.37	-1758.12	  388.28
     80.4700	  546.00	  551.49	-1758.24	  388.27
     80.5700	  581.00	  559.95	-1731.70	  388.26
     80.6700	  549.00	  569.88	-1773.63	  388.25
     80.7700	  615.00	  581.29	-1719.04	  388.24
     80.8700	  596.00	  593.85	-1750.60	  388.22
     80.9700	  610.00	  607.64	-1750.39	  388.21
     81.0700	  646.00	  621.87	-1728.62	  388.19
     81.1700	  669.00	  635.79	-1719.54	  388.17
     81.2700	  643.00	  648.59	-1758.34	  388.15
     81.3700	  633.00	  659.63	-1779.38	  388.13
     81.4700	  695.00	  668.47	-1726.22	  388.10
     81.5700	  704.00	  674.91	-1723.66	  388.08
     81.6700	  692.00	  678.85	-1739.60	  388.05
     81.7700	  695.00	  680.25	-1738.00	  388.02
     81.8700	  767.00	  679.09	-1664.84	  387.99
     81.9700	  779.00	  675.29	-1649.04	  387.96
     82.0700	  748.00	  668.82	-1673.57	  387.93
     82.1700	  668.00	  659.91	-1744.66	  387.89
     82.2700	  684.00	  649.08	-1717.83	  387.86
     82.3700	  627.00	  637.04	-1762.79	  387.82
     82.4700	  657.00	  624.42	-1720.17	  387.78
     82.5700	  619.00	  611.68	-1745.43	  387.74
     82.6700	  601.00	  599.18	-1750.93	  387.70
     82.7700	  573.00	  587.24	-1766.99	  387.65
     82.8700	  568.00	  576.21	-1760.96	  387.61
     82.9700	  571.00	  566.44	-1748.19	  387.56
     83.0700	  568.00	  558.18	-1742.93	  387.51
     83.1700	  575.00	  551.62	-1729.37	  387.46
     83.2700	  572.00	  546.85	-1727.60	  387.41
     83.3700	  529.00	  543.85	-1767.60	  387.36
     83.4700	  526.00	  542.56	-1769.31	  387.30
     83.5700	  543.00	  542.82	-1752.57	  387.24
     83.6700	  587.00	  544.42	-1710.17	  387.19
     83.7700	  583.00	  547.08	-1716.83	  387.13
     83.8700	  536.00	  550.42	-1767.17	  387.06
     83.9700	  569.00	  554.01	-1737.76	  387.00
     84.0700	  584.00	  557.36	-1726.11	  386.94
     84.1700	  524.00	  559.94	-1788.69	  386.87
     84.2700	  541.00	  561.17	-1772.92	  386.80
     84.3700	  544.00	  560.85	-1769.60	  386.73
     84.4700	  573.00	  558.91	-1738.66	  386.66
     84.5700	  499.00	  555.55	-1809.30	  386.59
     84.6700	  560.00	  551.15	-1743.90	  386.51
     84.7700	  475.00	  546.17	-1823.92	  386.44
     84.8700	  556.00	  541.02	-1737.77	  386.36
     84.9700	  510.00	  536.02	-1778.77	  386.28
     85.0700	  499.00	  531.41	-1785.16	  386.20
     85.1700	  521.00	  527.35	-1759.10	  386.11
     85.2700	  545.00	  523.93	-1731.68	  386.03
     85.3700	  538.00	  521.18	-1735.93	  385.94
     85.4700	  480.00	  519.06	-1791.81	  385.86
     85.5700	  523.00	  517.53	-1747.28	  385.77
     85.6700	  496.00	  516.51	-1773.26	  385.67
     85.7700	  486.00	  515.96	-1782.71	  385.58
     85.8700	  537.00	  515.82	-1731.57	  385.49
     85.9700	  493.00	  516.05	-1775.80	  385.39
     86.0700	  490.00	  516.67	-1779.42	  385.29
     86.1700	  524.00	  517.69	-1746.44	  385.19
     86.2700	  504.00	  519.17	-1767.92	  385.09
     86.3700	  456.00	  521.21	-1817.96	  384.99
     86.4700	  509.00	  523.92	-1767.67	  384.88
     86.5700	  535.00	  527.42	-1745.17	  384.78
     86.6700	  521.00	  531.84	-1763.59	  384.67
     86.7700	  529.00	  537.31	-1761.06	  384.56
     86.8700	  565.00	  543.91	-1731.66	  384.45
     86.9700	  553.00	  551.68	-1751.43	  384.33
     87.0700	  621.00	  560.57	-1692.32	  384.22
     87.1700	  580.00	  570.42	-1743.17	  384.10
     87.2700	  571.00	  580.92	-1762.67	  383.98
     87.3700	  578.00	  591.63	-1766.38	  383.86
     87.4700	  556.00	  601.93	-1798.68	  383.74
     87.5700	  611.00	  611.09	-1752.84	  383.62
     87.6700	  608.00	  618.26	-1763.01	  383.49
     87.7700	  578.00	  622.68	-1797.43	  383.36
     87.8700	  661.00	  623.81	-1715.56	  383.24
     87.9700	  625.00	  621.61	-1749.36	  383.11
     88.0700	  606.00	  616.47	-1763.22	  382.97
     88.1700	  641.00	  609.16	-1720.91	  382.84
     88.2700	  585.00	  600.57	-1768.32	  382.70
     88.3700	  606.00	  591.56	-1738.31	  382.57
     88.4700	  552.00	  582.91	-1783.66	  382.43
     88.5700	  576.00	  575.23	-1751.98	  382.29
     88.6700	  554.00	  569.02	-1767.77	  382.15
     88.7700	  557.00	  564.15	-1759.90	  382.00
     88.8700	  560.00	  561.62	-1754.37	  381.86
     88.9700	  541.00	  560.99	-1772.74	  381.71
     89.0700	  581.00	  562.09	-1733.84	  381.56
     89.1700	  568.00	  564.64	-1749.39	  381.41
     89.2700	  585.00	  568.22	-1735.97	  381.26
     89.3700	  563.00	  572.31	-1762.06	  381.10
     89.4700	  566.00	  576.33	-1763.08	  380.95
     89.5700	  570.00	  579.67	-1762.42	  380.79
     89.6700	  614.00	  581.73	-1720.48	  380.63
     89.7700	  603.00	  582.08	-1731.83	  380.47
     89.8700	  596.00	  580.51	-1737.26	  380.31
     89.9700	  567.00	  577.12	-1762.87	  380.15
     90.0700	  546.00	  572.25	-1779.00	  379.98
     90.1700	  562.00	  566.36	-1757.11	  379.81
     90.2700	  531.00	  559.91	-1781.66	  379.64
     90.3700	  521.00	  553.34	-1785.09	  379.47
     90.4700	  495.00	  546.97	-1804.72	  379.30
     90.5700	  508.00	  541.08	-1785.83	  379.13
     90.6700	  529.00	  535.84	-1759.59	  378.95
     90.7700	  507.00	  531.35	-1777.10	  378.78
     90.8700	  502.00	  527.65	-1778.40	  378.60
     90.9700	  488.00	  524.74	-1789.49	  378.42
     91.0700	  504.00	  522.56	-1771.31	  378.24
     91.1700	  522.00	  521.05	-1751.80	  378.05
     91.2700	  481.00	  520.15	-1791.90	  377.87
     91.3700	  456.00	  519.79	-1816.54	  377.68
     91.4700	  509.00	  519.95	-1763.70	  377.49
     91.5700	  482.00	  520.62	-1791.37	  377.30
     91.6700	  529.00	  521.81	-1745.56	  377.11
     91.7700	  508.00	  523.60	-1768.35	  376.92
     91.8700	  517.00	  526.08	-1761.83	  376.72
     91.9700	  498.00	  529.37	-1784.12	  376.53
     92.0700	  498.00	  533.62	-1788.37	  376.33
     92.1700	  519.00	  539.01	-1772.76	  376.13
     92.2700	  549.00	  545.68	-1749.43	  375.93
     92.3700	  543.00	  553.79	-1763.54	  375.73
     92.4700	  511.00	  563.45	-1805.20	  375.53
     92.5700	  525.00	  574.71	-1802.46	  375.32
     92.6700	  576.00	  587.57	-1764.32	  375.11
     92.7700	  593.00	  601.92	-1761.67	  374.91
     92.8700	  594.00	  617.57	-1776.32	  374.70
     92.9700	  611.00	  634.20	-1775.95	  374.49
     93.0700	  663.00	  651.39	-1741.14	  374.27
     93.1700	  652.00	  668.63	-1769.38	  374.06
     93.2700	  608.00	  685.31	-1830.06	  373.84
     93.3700	  720.00	  700.88	-1733.63	  373.63
     93.4700	  721.00	  714.95	-1746.70	  373.41
     93.5700	  704.00	  727.46	-1776.21	  373.19
     93.6700	  754.00	  738.68	-1737.43	  372.97
     93.7700	  772.00	  749.12	-1729.87	  372.74
     93.8700	  779.00	  759.39	-1733.14	  372.52
     93.9700	  825.00	  769.96	-1697.71	  372.30
     94.0700	  822.00	  781.14	-1711.89	  372.07
     94.1700	  859.00	  792.75	-1686.50	  371.84
     94.2700	  821.00	  805.38	-1737.13	  371.61
     94.3700	  829.00	  818.68	-1742.43	  371.38
     94.4700	  878.00	  832.60	-1707.35	  371.15
     94.5700	  875.00	  847.01	-1724.76	  370.91
     94.6700	  887.00	  861.64	-1727.39	  370.68
     94.7700	  869.00	  875.87	-1759.62	  370.44
     94.8700	  937.00	  888.76	-1704.51	  370.21
     94.9700	  895.00	  899.06	-1756.81	  369.97
     95.0700	  889.00	  905.31	-1769.06	  369.73
     95.1700	  907.00	  906.17	-1751.92	  369.49
     95.2700	  884.00	  900.72	-1769.47	  369.24
     95.3700	  942.00	  888.79	-1699.54	  369.00
     95.4700	  881.00	  871.06	-1742.81	  368.75
     95.5700	  820.00	  848.85	-1781.60	  368.51
     95.6700	  823.00	  823.89	-1753.64	  368.26
     95.7700	  744.00	  798.00	-1806.75	  368.01
     95.8700	  760.00	  772.97	-1765.72	  367.76
     95.9700	  770.00	  750.44	-1733.19	  367.51
     96.0700	  717.00	  731.88	-1767.63	  367.26
     96.1700	  727.00	  718.60	-1744.35	  367.01
     96.2700	  692.00	  711.77	-1772.52	  366.75
     96.3700	  720.00	  712.38	-1745.13	  366.50
     96.4700	  692.00	  721.25	-1782.00	  366.24
     96.5700	  719.00	  739.01	-1772.76	  365.98
     96.6700	  796.00	  766.09	-1722.84	  365.72
     96.7700	  805.00	  802.66	-1750.41	  365.46
     96.8700	  793.00	  848.59	-1808.34	  365.20
     96.9700	  916.00	  903.33	-1740.08	  364.94
     97.0700	  957.00	  965.96	-1761.71	  364.68
     97.1700	 1009.00	 1035.03	-1778.78	  364.41
     97.2700	 1085.00	 1108.53	-1776.28	  364.15
     97.3700	 1102.00	 1183.87	-1834.62	  363.88
     97.4700	 1246.00	 1257.88	-1764.63	  363.62
     97.5700	 1352.00	 1326.83	-1727.58	  363.35
     97.6700	 1363.00	 1386.63	-1776.38	  363.08
     97.7700	 1395.00	 1433.12	-1790.87	  362.81
     97.8700	 1419.00	 1462.70	-1796.45	  362.54
     97.9700	 1471.00	 1473.03	-1754.78	  362.27
     98.0700	 1422.00	 1463.61	-1794.36	  362.00
     98.1700	 1355.00	 1435.81	-1833.56	  361.73
     98.2700	 1382.00	 1392.57	-1763.32	  361.45
     98.3700	 1326.00	 1337.70	-1764.45	  361.18
     98.4700	 1248.00	 1275.30	-1780.05	  360.90
     98.5700	 1187.00	 1209.31	-1775.06	  360.63
     98.6700	 1140.00	 1143.34	-1756.09	  360.35
     98.7700	 1030.00	 1080.51	-1803.26	  360.07
     98.8700	  972.00	 1023.46	-1804.21	  359.79
     98.9700	 1004.00	  974.33	-1723.08	  359.51
     99.0700	  893.00	  934.84	-1794.59	  359.23
     99.1700	  876.00	  906.29	-1783.04	  358.95
     99.2700	  884.00	  889.68	-1758.43	  358.67
     99.3700	  857.00	  885.69	-1781.44	  358.39
     99.4700	  897.00	  894.70	-1750.45	  358.11
     99.5700	  922.00	  916.83	-1747.58	  357.83
     99.6700	  887.00	  951.92	-1817.67	  357.54
     99.7700	  965.00	  999.55	-1787.30	  357.26
     99.8700	 1080.00	 1059.01	-1731.76	  356.98
     99.9700	 1139.00	 1129.23	-1742.98	  356.69
    100.0700	 1235.00	 1208.75	-1726.50	  356.41
    100.1700	 1319.00	 1295.68	-1729.43	  356.12
    100.2700	 1390.00	 1387.60	-1750.35	  355.83
    100.3700	 1497.00	 1481.62	-1737.37	  355.55
    100.4700	 1679.00	 1574.44	-1648.19	  355.26
    100.5700	 1689.00	 1662.52	-1726.27	  354.97
    100.6700	 1843.00	 1742.44	-1652.19	  354.69
    100.7700	 1766.00	 1811.36	-1798.11	  354.40
    100.8700	 1841.00	 1867.27	-1779.02	  354.11
    100.9700	 1854.00	 1908.93	-1807.68	  353.82
    101.0700	 1975.00	 1935.69	-1713.44	  353.53
    101.1700	 2004.00	 1947.13	-1695.88	  353.24
    101.2700	 1966.00	 1942.87	-1729.62	  352.95
    101.3700	 1883.00	 1922.73	-1792.48	  352.66
    101.4700	 1866.00	 1887.14	-1773.89	  352.37
    101.5700	 1822.00	 1837.48	-1768.23	  352.08
    101.6700	 1745.00	 1776.24	-1783.99	  351.79
    101.7700	 1731.00	 1706.81	-1728.56	  351.50
    101.8700	 1651.00	 1633.02	-1734.77	  351.21
    101.9700	 1593.00	 1558.61	-1718.36	  350.92
    102.0700	 1497.00	 1486.81	-1742.56	  350.63
    102.1700	 1449.00	 1420.15	-1723.90	  350.34
    102.2700	 1398.00	 1360.33	-1715.08	  350.05
    102.3700	 1311.00	 1308.23	-1749.98	  349.76
    102.4700	 1264.00	 1263.99	-1752.74	  349.47
    102.5700	 1208.00	 1227.03	-1771.78	  349.19
    102.6700	 1179.00	 1196.19	-1769.94	  348.90
    102.7700	 1221.00	 1169.83	-1701.58	  348.61
    102.8700	 1122.00	 1145.92	-1776.67	  348.32
    102.9700	 1184.00	 1122.43	-1691.18	  348.03
    103.0700	 1131.00	 1097.50	-1719.25	  347.74
    103.1700	  992.00	 1069.78	-1830.53	  347.45
    103.2700	 1048.00	 1038.61	-1743.36	  347.16
    103.3700	  964.00	 1003.97	-1792.72	  346.87
    103.4700	  909.00	  966.43	-1810.18	  346.59
    103.5700	  919.00	  926.87	-1760.62	  346.30
    103.6700	  916.00	  886.30	-1723.05	  346.01
    103.7700	  862.00	  845.73	-1736.48	  345.73
    103.8700	  779.00	  806.08	-1779.83	  345.44
    103.9700	  788.00	  768.14	-1732.89	  345.16
    104.0700	  721.00	  732.58	-1764.33	  344.87
    104.1700	  706.00	  699.88	-1746.63	  344.59
    104.2700	  715.00	  670.35	-1708.10	  344.30
    104.3700	  630.00	  644.18	-1766.93	  344.02
    104.4700	  614.00	  621.40	-1760.15	  343.74
    104.5700	  610.00	  601.92	-1744.67	  343.46
    104.6700	  623.00	  585.57	-1715.32	  343.17
    104.7700	  635.00	  572.09	-1689.84	  342.89
    104.8700	  563.00	  561.19	-1750.94	  342.61
    104.9700	  555.00	  552.56	-1750.31	  342.34
    105.0700	  569.00	  545.92	-1729.67	  342.06
    105.1700	  589.00	  540.96	-1704.71	  341.78
    105.2700	  511.00	  537.45	-1779.20	  341.50
    105.3700	  540.00	  535.17	-1747.92	  341.23
    105.4700	  593.00	  533.96	-1693.71	  340.95
    105.5700	  530.00	  533.67	-1756.42	  340.68
    105.6700	  531.00	  534.22	-1755.97	  340.41
    105.7700	  516.00	  535.54	-1772.29	  340.14
    105.8700	  544.00	  537.61	-1746.36	  339.87
    105.9700	  538.00	  540.39	-1755.14	  339.60
    106.0700	  537.00	  543.93	-1759.68	  339.33
    106.1700	  539.00	  548.23	-1761.98	  339.06
    106.2700	  527.00	  553.34	-1779.09	  338.80
    106.3700	  581.00	  559.29	-1731.04	  338.54
    106.4700	  586.00	  566.10	-1732.85	  338.27
    106.5700	  595.00	  573.77	-1731.52	  338.01
    106.6700	  588.00	  582.27	-1747.02	  337.75
    106.7700	  591.00	  591.51	-1753.26	  337.49
    106.8700	  586.00	  601.38	-1768.13	  337.23
    106.9700	  609.00	  611.67	-1755.42	  336.98
    107.0700	  614.00	  622.17	-1760.92	  336.72
    107.1700	  633.00	  632.57	-1752.32	  336.47
    107.2700	  649.00	  642.55	-1746.30	  336.22
    107.3700	  710.00	  651.76	-1694.51	  335.97
    107.4700	  652.00	  659.84	-1760.59	  335.72
    107.5700	  661.00	  666.46	-1758.21	  335.48
    107.6700	  668.00	  671.38	-1756.13	  335.23
    107.7700	  660.00	  674.54	-1767.29	  334.99
    107.8700	  692.00	  675.99	-1736.74	  334.75
    107.9700	  650.00	  675.96	-1778.71	  334.51
    108.0700	  678.00	  674.78	-1749.53	  334.27
    108.1700	  639.00	  672.89	-1786.64	  334.04
    108.2700	  696.00	  670.70	-1727.45	  333.80
    108.3700	  657.00	  668.59	-1764.34	  333.57
    108.4700	  678.00	  666.88	-1741.63	  333.34
    108.5700	  694.00	  665.79	-1724.54	  333.12
    108.6700	  698.00	  665.47	-1720.22	  332.89
    108.7700	  677.00	  665.93	-1741.68	  332.67
    108.8700	  636.00	  667.11	-1783.86	  332.45
    108.9700	  713.00	  668.84	-1708.59	  332.23
    109.0700	  652.00	  670.85	-1771.60	  332.01
    109.1700	  664.00	  672.82	-1761.57	  331.80
    109.2700	  756.00	  674.35	-1671.10	  331.59
    109.3700	  709.00	  675.04	-1718.79	  331.38
    109.4700	  630.00	  674.51	-1797.26	  331.17
    109.5700	  685.00	  672.49	-1740.24	  330.97
    109.6700	  667.00	  668.81	-1754.56	  330.77
    109.7700	  682.00	  663.47	-1734.22	  330.57
    109.8700	  712.00	  656.58	-1697.33	  330.37
    109.9700	  646.00	  648.39	-1755.14	  330.18
    110.0700	  650.00	  639.21	-1741.96	  329.99
    110.1700	  671.00	  629.35	-1711.10	  329.80
    110.2700	  634.00	  619.15	-1737.90	  329.61
    110.3700	  673.00	  608.90	-1688.65	  329.43
    110.4700	  621.00	  598.89	-1730.64	  329.25
    110.5700	  599.00	  589.33	-1743.08	  329.08
    110.6700	  580.00	  580.43	-1753.18	  328.90
    110.7700	  607.00	  572.32	-1718.07	  328.73
    110.8700	  576.00	  565.13	-1741.88	  328.56
    110.9700	  588.00	  558.91	-1723.66	  328.40
    111.0700	  594.00	  553.70	-1712.45	  328.24
    111.1700	  550.00	  549.49	-1752.24	  328.08
    111.2700	  588.00	  546.26	-1711.01	  327.93
    111.3700	  567.00	  543.95	-1729.70	  327.77
    111.4700	  555.00	  542.49	-1740.24	  327.63
    111.5700	  540.00	  541.80	-1754.55	  327.48
    111.6700	  579.00	  541.81	-1715.56	  327.34
    111.7700	  539.00	  542.41	-1756.16	  327.20
    111.8700	  557.00	  543.52	-1739.27	  327.07
    111.9700	  552.00	  545.06	-1745.81	  326.94
    112.0700	  520.00	  546.96	-1779.71	  326.81
    112.1700	  552.00	  549.13	-1749.88	  326.69
    112.2700	  563.00	  551.54	-1741.29	  326.57
    112.3700	  526.00	  554.14	-1780.89	  326.45
    112.4700	  518.00	  556.91	-1791.66	  326.34
    112.5700	  536.00	  559.84	-1776.59	  326.23
    112.6700	  577.00	  562.96	-1738.71	  326.13
    112.7700	  563.00	  566.29	-1756.04	  326.03
    112.8700	  537.00	  569.88	-1785.63	  325.93
    112.9700	  566.00	  573.81	-1760.56	  325.84
    113.0700	  548.00	  578.14	-1782.89	  325.75
    113.1700	  583.00	  582.98	-1752.73	  325.67
    113.2700	  591.00	  588.46	-1750.21	  325.59
    113.3700	  607.00	  594.71	-1740.46	  325.51
    113.4700	  625.00	  601.93	-1729.68	  325.44
    113.5700	  610.00	  610.35	-1753.10	  325.38
    113.6700	  609.00	  620.26	-1764.01	  325.31
    113.7700	  597.00	  632.04	-1787.79	  325.26
    113.8700	  621.00	  646.13	-1777.88	  325.20
    113.9700	  616.00	  663.10	-1799.85	  325.16
    114.0700	  679.00	  683.65	-1757.40	  325.11
    114.1700	  757.00	  708.63	-1704.38	  325.07
    114.2700	  804.00	  739.03	-1687.78	  325.04
    114.3700	  815.00	  776.05	-1713.80	  325.01
    114.4700	  888.00	  821.05	-1685.80	  324.99
    114.5700	  857.00	  875.62	-1771.37	  324.97
    114.6700	  929.00	  941.52	-1765.27	  324.95
    114.7700	 1028.00	 1020.67	-1745.42	  324.95
    114.8700	 1180.00	 1115.12	-1687.87	  324.94
    114.9700	 1224.00	 1226.98	-1755.73	  324.94
    115.0700	 1372.00	 1358.38	-1739.13	  324.95
    115.1700	 1615.00	 1511.41	-1649.16	  324.96
    115.2700	 1772.00	 1687.91	-1668.66	  324.98
    115.3700	 1933.00	 1889.42	-1709.17	  325.00
    115.4700	 2182.00	 2117.02	-1687.77	  325.03
    115.5700	 2491.00	 2371.25	-1633.00	  325.06
    115.6700	 2695.00	 2651.99	-1709.74	  325.10
    115.7700	 2999.00	 2958.19	-1711.94	  325.15
    115.8700	 3380.00	 3287.90	-1660.65	  325.20
    115.9700	 3634.00	 3638.09	-1756.84	  325.25
    116.0700	 3986.00	 4004.74	-1771.49	  325.32
    116.1700	 4308.00	 4382.79	-1827.54	  325.39
    116.2700	 4688.00	 4765.87	-1830.62	  325.46
    116.3700	 5075.00	 5146.62	-1824.37	  325.54
    116.4700	 5586.00	 5516.58	-1683.33	  325.63
    116.5700	 5802.00	 5866.53	-1817.28	  325.72
    116.6700	 6095.00	 6186.57	-1844.32	  325.82
    116.7700	 6219.00	 6466.39	-2000.14	  325.92
    116.8700	 6596.00	 6695.97	-1852.72	  326.03
    116.9700	 6862.00	 6866.27	-1757.02	  326.15
    117.0700	 7011.00	 6970.17	-1711.92	  326.27
    117.1700	 6910.00	 7003.15	-1845.90	  326.41
    117.2700	 6879.00	 6963.93	-1837.68	  326.54
    117.3700	 6863.00	 6854.66	-1744.41	  326.69
    117.4700	 6798.00	 6680.64	-1635.39	  326.84
    117.5700	 6390.00	 6449.57	-1812.32	  326.99
    117.6700	 6031.00	 6170.72	-1892.47	  327.16
    117.7700	 5689.00	 5854.19	-1917.94	  327.33
    117.8700	 5495.00	 5510.10	-1767.85	  327.51
    117.9700	 5092.00	 5148.22	-1808.97	  327.69
    118.0700	 4686.00	 4777.42	-1844.17	  327.89
    118.1700	 4512.00	 4405.62	-1646.37	  328.08
    118.2700	 4118.00	 4039.81	-1674.56	  328.29
    118.3700	 3733.00	 3685.77	-1705.52	  328.51
    118.4700	 3441.00	 3348.25	-1660.00	  328.73
    118.5700	 3142.00	 3030.74	-1641.49	  328.96
    118.6700	 2814.00	 2735.77	-1674.52	  329.19
    118.7700	 2466.00	 2464.94	-1751.69	  329.44
    118.8700	 2181.00	 2218.96	-1790.71	  329.69
    118.9700	 2033.00	 1997.85	-1717.60	  329.95
    119.0700	 1870.00	 1800.94	-1683.69	  330.21
    119.1700	 1676.00	 1627.11	-1703.86	  330.49
    119.2700	 1518.00	 1474.93	-1709.68	  330.77
    119.3700	 1343.00	 1342.68	-1752.43	  331.06
    119.4700	 1225.00	 1228.55	-1756.30	  331.36
    119.5700	 1113.00	 1130.58	-1770.33	  331.67
    119.6700	 1064.00	 1046.89	-1735.64	  331.98
    119.7700	  968.00	  975.68	-1760.43	  332.31
    119.8700	  944.00	  915.24	-1723.99	  332.64
    119.9700	  818.00	  864.03	-1798.78	  332.98
    120.0700	  879.00	  820.68	-1694.43	  333.33
    120.1700	  803.00	  783.96	-1733.71	  333.69
    120.2700	  754.00	  752.84	-1751.59	  334.05
    120.3700	  729.00	  726.43	-1750.18	  334.43
    120.4700	  672.00	  704.00	-1784.75	  334.81
    120.5700	  661.00	  684.93	-1776.68	  335.20
    120.6700	  673.00	  668.70	-1748.45	  335.61
    120.7700	  617.00	  654.90	-1790.65	  336.02
    120.8700	  594.00	  643.20	-1801.95	  336.44
    120.9700	  579.00	  633.33	-1807.08	  336.87
    121.0700	  576.00	  625.06	-1801.81	  337.30
    121.1700	  566.00	  618.22	-1804.97	  337.75
    121.2700	  618.00	  612.64	-1747.39	  338.21
    121.3700	  591.00	  608.22	-1769.97	  338.67
    121.4700	  553.00	  604.85	-1804.60	  339.15
    121.5700	  604.00	  602.45	-1751.20	  339.64
    121.6700	  570.00	  600.92	-1783.67	  340.13
    121.7700	  559.00	  600.21	-1793.96	  340.64
    121.8700	  556.00	  600.25	-1797.00	  341.15
    121.9700	  581.00	  600.97	-1772.72	  341.68
    122.0700	  597.00	  602.31	-1758.06	  342.21
    122.1700	  584.00	  604.19	-1772.94	  342.76
    122.2700	  584.00	  606.56	-1775.31	  343.31
    122.3700	  577.00	  609.32	-1785.07	  343.88
    122.4700	  651.00	  612.40	-1714.15	  344.45
    122.5700	  628.00	  615.72	-1740.47	  345.04
    122.6700	  627.00	  619.18	-1744.93	  345.64
    122.7700	  627.00	  622.67	-1748.42	  346.24
    122.8700	  640.00	  626.10	-1738.85	  346.86
    122.9700	  621.00	  629.36	-1761.11	  347.49
    123.0700	  651.00	  632.34	-1734.09	  348.13
    123.1700	  680.00	  634.94	-1707.69	  348.78
    123.2700	  614.00	  637.07	-1775.82	  349.44
    123.3700	  640.00	  638.67	-1751.42	  350.12
    123.4700	  654.00	  639.67	-1738.42	  350.80
    123.5700	  661.00	  640.06	-1731.81	  351.50
    123.6700	  656.00	  639.83	-1736.58	  352.20
    123.7700	  676.00	  639.02	-1715.77	  352.92
    123.8700	  657.00	  637.66	-1733.41	  353.65
    123.9700	  631.00	  635.81	-1757.56	  354.39
    124.0700	  637.00	  633.55	-1749.30	  355.14
    124.1700	  642.00	  630.92	-1741.67	  355.91
    124.2700	  604.00	  628.05	-1776.80	  356.69
    124.3700	  689.00	  624.97	-1688.72	  357.47
    124.4700	  640.00	  621.76	-1734.51	  358.27
    124.5700	  572.00	  618.48	-1799.23	  359.09
    124.6700	  620.00	  615.20	-1747.95	  359.91
    124.7700	  611.00	  611.95	-1753.70	  360.75
    124.8700	  627.00	  608.79	-1734.54	  361.60
    124.9700	  668.00	  470.77	-1555.52	  362.46
    125.0700	  587.00	  471.65	-1752.75	  363.34
    125.1700	  594.00	  472.54	-1752.75	  364.22
    125.2700	  548.00	  473.44	-1752.75	  365.12
    125.3700	  596.00	  474.35	-1752.75	  366.04
    125.4700	  574.00	  475.28	-1752.75	  366.96
    125.5700	  597.00	  476.21	-1752.75	  367.90
    125.6700	  580.00	  477.17	-1752.75	  368.85
    125.7700	  554.00	  478.13	-1752.75	  369.82
    125.8700	  560.00	  479.11	-1752.75	  370.80
    125.9700	  565.00	  480.10	-1752.75	  371.79
    126.0700	  522.00	  481.11	-1752.75	  372.79
    126.1700	  546.00	  482.13	-1752.75	  373.81
    126.2700	  551.00	  483.16	-1752.75	  374.84
    126.3700	  534.00	  484.20	-1752.75	  375.89
    126.4700	  535.00	  485.27	-1752.75	  376.95
    126.5700	  609.00	  486.34	-1752.75	  378.03
    126.6700	  565.00	  487.43	-1752.75	  379.11
    126.7700	  571.00	  488.53	-1752.75	  380.22
    126.8700	  513.00	  489.65	-1752.75	  381.33
    126.9700	  565.00	  490.78	-1752.75	  382.46
    127.0700	  596.00	  491.92	-1752.75	  383.61
    127.1700	  596.00	  493.08	-1752.75	  384.77
    127.2700	  567.00	  494.26	-1752.75	  385.94
    127.3700	  543.00	  495.45	-1752.75	  387.13
    127.4700	  604.00	  496.65	-1752.75	  388.34
    127.5700	  568.00	  497.87	-1752.75	  389.56
    127.6700	  545.00	  499.10	-1752.75	  390.79
    127.7700	  612.00	  500.35	-1752.75	  392.04
    127.8700	  579.00	  501.62	-1752.75	  393.30
    127.9700	  625.00	  502.90	-1752.75	  394.58
    128.0700	  625.00	  504.19	-1752.75	  395.88
    128.1700	  680.00	  505.50	-1752.75	  397.19
    128.2700	  706.00	  506.83	-1752.75	  398.52
    128.3700	  696.00	  508.17	-1752.75	  399.86
    128.4700	  651.00	  509.53	-1752.75	  401.22
    128.5700	    0.00	  510.90	-1752.75	  402.59
    128.6700	    0.00	  512.29	-1752.75	  403.98
     12.3517	        	        	        	        	       0	(  0  0  2)	  0  1
     24.9841	        	        	        	        	       0	(  0  0  4)	  0  1
     28.4080	        	        	        	        	       0	(  1  0  0)	  0  1
     29.1087	        	        	        	        	       0	(  1  0  1)	  0  1
     31.1249	        	        	        	        	       0	(  1  0  2)	  0  1
     34.2485	        	        	        	        	       0	(  1  0  3)	  0  1
     37.9364	        	        	        	        	       0	(  0  0  6)	  0  1
     38.2448	        	        	        	        	       0	(  1  0  4)	  0  1
     42.9172	        	        	        	        	       0	(  1  0  5)	  0  1
     48.1263	        	        	        	        	       0	(  1  0  6)	  0  1
     50.4124	        	        	        	        	       0	(  1  1  0)	  0  1
     51.4177	        	        	        	        	       0	(  0  0  8)	  0  1
     52.1449	        	        	        	        	       0	(  1  1  2)	  0  1
     53.7845	        	        	        	        	       0	(  1  0  7)	  0  1
     57.1200	        	        	        	        	       0	(  1  1  4)	  0  1
     58.9386	        	        	        	        	       0	(  2  0  0)	  0  1
     59.3325	        	        	        	        	       0	(  2  0  1)	  0  1
     59.8457	        	        	        	        	       0	(  1  0  8)	  0  1
     60.5046	        	        	        	        	       0	(  2  0  2)	  0  1
     62.4289	        	        	        	        	       0	(  2  0  3)	  0  1
     64.8580	        	        	        	        	       0	(  1  1  6)	  0  1
     65.0684	        	        	        	        	       0	(  2  0  4)	  0  1
     65.7177	        	        	        	        	       0	(  0  0 10)	  0  1
     66.2965	        	        	        	        	       0	(  1  0  9)	  0  1
     68.3822	        	        	        	        	       0	(  2  0  5)	  0  1
     72.3336	        	        	        	        	       0	(  2  0  6)	  0  1
     73.1516	        	        	        	        	       0	(  1  0 10)	  0  1
     74.9556	        	        	        	        	       0	(  1  1  8)	  0  1
     76.8963	        	        	        	        	       0	(  2  0  7)	  0  1
     80.4545	        	        	        	        	       0	(  1  0 11)	  0  1
     81.2707	        	        	        	        	       0	(  2  1  0)	  0  1
     81.2895	        	        	        	        	       0	(  0  0 12)	  0  1
     81.6129	        	        	        	        	       0	(  2  1  1)	  0  1
     82.0605	        	        	        	        	       0	(  2  0  8)	  0  1
     82.6379	        	        	        	        	       0	(  2  1  2)	  0  1
     84.3411	        	        	        	        	       0	(  2  1  3)	  0  1
     86.7177	        	        	        	        	       0	(  2  1  4)	  0  1
     87.3094	        	        	        	        	       0	(  1  1 10)	  0  1
     87.8391	        	        	        	        	       0	(  2  0  9)	  0  1
     88.2825	        	        	        	        	       0	(  1  0 12)	  0  1
     89.7660	        	        	        	        	       0	(  2  1  5)	  0  1
     93.4921	        	        	        	        	       0	(  2  1  6)	  0  1
     94.2758	        	        	        	        	       0	(  2  0 10)	  0  1
     95.2332	        	        	        	        	       0	(  3  0  0)	  0  1
     95.5733	        	        	        	        	       0	(  3  0  1)	  0  1
     96.5948	        	        	        	        	       0	(  3  0  2)	  0  1
     96.7624	        	        	        	        	       0	(  1  0 13)	  0  1
     97.9169	        	        	        	        	       0	(  2  1  7)	  0  1
     98.3024	        	        	        	        	       0	(  3  0  3)	  0  1
     98.9627	        	        	        	        	       0	(  0  0 14)	  0  1
    100.7061	        	        	        	        	       0	(  3  0  4)	  0  1
    101.4592	        	        	        	        	       0	(  2  0 11)	  0  1
    102.3024	        	        	        	        	       0	(  1  1 12)	  0  1
    103.0851	        	        	        	        	       0	(  2  1  8)	  0  1
    103.8259	        	        	        	        	       0	(  3  0  5)	  0  1
    106.1021	        	        	        	        	       0	(  1  0 14)	  0  1
    107.6984	        	        	        	        	       0	(  3  0  6)	  0  1
    109.0810	        	        	        	        	       0	(  2  1  9)	  0  1
    109.5510	        	        	        	        	       0	(  2  0 12)	  0  1
    112.3880	        	        	        	        	       0	(  3  0  7)	  0  1
    116.0572	        	        	        	        	       0	(  2  1 10)	  0  1
    116.6694	        	        	        	        	       0	(  1  0 15)	  0  1
    117.1252	        	        	        	        	       0	(  2  2  0)	  0  1
    118.0081	        	        	        	        	       0	(  3  0  8)	  0  1
    118.6591	        	        	        	        	       0	(  2  2  2)	  0  1
    118.8491	        	        	        	        	       0	(  2  0 13)	  0  1
    120.7025	        	        	        	        	       0	(  0  0 16)	  0  1
    121.3714	        	        	        	        	       0	(  1  1 14)	  0  1
    123.4078	        	        	        	        	       0	(  2  2  4)	  0  1
    124.2986	        	        	        	        	       0	(  2  1 11)	  0  1
    124.7625	        	        	        	        	       0	(  3  0  9)	  0  1
    125.2818	        	        	        	        	       0	(  3  1  0)	  0  1
    125.6983	        	        	        	        	       0	(  3  1  1)	  0  1
    126.9610	        	        	        	        	       0	(  3  1  2)	  0  1
    129.1140	        	        	        	        	       0	(  3  1  3)	  0  1
    129.2177	        	        	        	        	       0	(  1  0 16)	  0  1
    129.9618	        	        	        	        	       0	(  2  0 14)	  0  1
    131.9874	        	        	        	        	       0	(  2  2  6)	  0  1
    132.2451	        	        	        	        	       0	(  3  1  4)	  0  1
    133.0502	        	        	        	        	       0	(  3  0 10)	  0  1
    134.3989	        	        	        	        	       0	(  2  1 12)	  0  1
    136.5185	        	        	        	        	       0	(  3  1  5)	  0  1
    142.2566	        	        	        	        	       0	(  3  1  6)	  0  1
    143.8069	        	        	        	        	       0	(  3  0 11)	  0  1
    144.4923	        	        	        	        	       0	(  2  0 15)	  0  1
    145.8658	        	        	        	        	       0	(  1  0 17)	  0  1
    146.5988	        	        	        	        	       0	(  2  2  8)	  0  1
    147.9704	        	        	        	        	       0	(  2  1 13)	  0  1
    150.2073	        	        	        	        	       0	(  3  1  7)	  0  1
    151.1542	        	        	        	        	       0	(  1  1 16)	  0  1
    155.9751	        	        	        	        	       0	(  0  0 18)	  0  1
    160.5929	        	        	        	        	       0	(  4  0  0)	  0  1
    160.6493	        	        	        	        	       0	(  3  0 12)	  0  1
    161.6460	        	        	        	        	       0	(  4  0  1)	  0  1
    163.1210	        	        	        	        	       0	(  3  1  8)	  0  1
    165.2374	        	        	        	        	       0	(  4  0  2)	  0  1
    175.5098	        	        	        	        	       0	(  4  0  3)	  0  1
    176.7378	        	        	        	        	       0	(  2  0 16)	  0  1
