MSG Master    CELL:    5.91933   5.91933  23.27103   90.0000   90.0000  120.0000   SPGR: P 63/m m c             TEMP:   1074.85
  1   1280     2.52000     0.00000    -0.12187     0.00000     0.00000    0
    99     0     2
       0.00000      10.00000
     125.00000     130.00000
 2Theta	Yobs	Ycal	Yobs-Ycal	Backg	Posr	(hkl)	K
      0.7700	    0.00	  563.97	-1776.75	  445.38
      0.8700	    0.00	  564.47	-1776.75	  445.87
      0.9700	   37.00	  564.96	-1776.75	  446.36
      1.0700	   41.00	  565.43	-1776.75	  446.83
      1.1700	   37.00	  565.90	-1776.75	  447.30
      1.2700	   34.00	  566.36	-1776.75	  447.76
      1.3700	   51.00	  566.81	-1776.75	  448.21
      1.4700	   92.00	  567.25	-1776.75	  448.65
      1.5700	  291.00	  567.68	-1776.75	  449.09
      1.6700	  456.00	  568.11	-1776.75	  449.51
      1.7700	  585.00	  568.52	-1776.75	  449.93
      1.8700	  638.00	  568.93	-1776.75	  450.33
      1.9700	  689.00	  569.33	-1776.75	  450.73
      2.0700	  792.00	  569.72	-1776.75	  451.12
      2.1700	  791.00	  570.10	-1776.75	  451.51
      2.2700	  741.00	  570.48	-1776.75	  451.88
      2.3700	  757.00	  570.85	-1776.75	  452.25
      2.4700	  696.00	  571.20	-1776.75	  452.60
      2.5700	  742.00	  571.55	-1776.75	  452.95
      2.6700	  627.00	  571.90	-1776.75	  453.30
      2.7700	  665.00	  572.23	-1776.75	  453.63
      2.8700	  669.00	  572.56	-1776.75	  453.96
      2.9700	  584.00	  572.88	-1776.75	  454.28
      3.0700	  633.00	  573.19	-1776.75	  454.59
      3.1700	  622.00	  573.49	-1776.75	  454.89
      3.2700	  587.00	  573.79	-1776.75	  455.19
      3.3700	  687.00	  574.07	-1776.75	  455.47
      3.4700	  768.00	  574.35	-1776.75	  455.76
      3.5700	  795.00	  574.63	-1776.75	  456.03
      3.6700	  868.00	  574.89	-1776.75	  456.29
      3.7700	  918.00	  575.15	-1776.75	  456.55
      3.8700	  996.00	  575.40	-1776.75	  456.80
      3.9700	 1029.00	  575.65	-1776.75	  457.05
      4.0700	 1003.00	  575.88	-1776.75	  457.29
      4.1700	 1097.00	  576.11	-1776.75	  457.52
      4.2700	 1029.00	  576.34	-1776.75	  457.74
      4.3700	 1127.00	  576.55	-1776.75	  457.95
      4.4700	 1079.00	  576.76	-1776.75	  458.16
      4.5700	 1000.00	  576.96	-1776.75	  458.37
      4.6700	 1072.00	  577.16	-1776.75	  458.56
      4.7700	  966.00	  577.35	-1776.75	  458.75
      4.8700	  934.00	  577.53	-1776.75	  458.93
      4.9700	  956.00	  577.71	-1776.75	  459.11
      5.0700	  901.00	  577.87	-1776.75	  459.28
      5.1700	  940.00	  578.04	-1776.75	  459.44
      5.2700	  933.00	  578.19	-1776.75	  459.59
      5.3700	  928.00	  578.34	-1776.75	  459.74
      5.4700	  861.00	  578.48	-1776.75	  459.89
      5.5700	  819.00	  578.62	-1776.75	  460.02
      5.6700	  825.00	  578.75	-1776.75	  460.15
      5.7700	  841.00	  578.87	-1776.75	  460.28
      5.8700	  844.00	  578.99	-1776.75	  460.39
      5.9700	  800.00	  579.10	-1776.75	  460.51
      6.0700	  853.00	  579.21	-1776.75	  460.61
      6.1700	  718.00	  579.31	-1776.75	  460.71
      6.2700	  740.00	  579.40	-1776.75	  460.81
      6.3700	  783.00	  579.49	-1776.75	  460.89
      6.4700	  765.00	  579.57	-1776.75	  460.98
      6.5700	  742.00	  579.65	-1776.75	  461.05
      6.6700	  692.00	  579.72	-1776.75	  461.12
      6.7700	  721.00	  579.79	-1776.75	  461.19
      6.8700	  737.00	  579.84	-1776.75	  461.25
      6.9700	  713.00	  579.90	-1776.75	  461.30
      7.0700	  676.00	  579.95	-1776.75	  461.35
      7.1700	  700.00	  579.99	-1776.75	  461.39
      7.2700	  678.00	  580.03	-1776.75	  461.43
      7.3700	  676.00	  580.06	-1776.75	  461.46
      7.4700	  692.00	  580.08	-1776.75	  461.49
      7.5700	  639.00	  580.10	-1776.75	  461.51
      7.6700	  620.00	  580.12	-1776.75	  461.52
      7.7700	  688.00	  580.13	-1776.75	  461.53
      7.8700	  641.00	  580.14	-1776.75	  461.54
      7.9700	  655.00	  580.14	-1776.75	  461.54
      8.0700	  664.00	  580.13	-1776.75	  461.53
      8.1700	  581.00	  580.12	-1776.75	  461.52
      8.2700	  613.00	  580.11	-1776.75	  461.51
      8.3700	  667.00	  580.09	-1776.75	  461.49
      8.4700	  637.00	  580.06	-1776.75	  461.47
      8.5700	  663.00	  580.03	-1776.75	  461.44
      8.6700	  681.00	  580.00	-1776.75	  461.40
      8.7700	  595.00	  579.96	-1776.75	  461.36
      8.8700	  608.00	  579.92	-1776.75	  461.32
      8.9700	  607.00	  579.87	-1776.75	  461.27
      9.0700	  585.00	  579.82	-1776.75	  461.22
      9.1700	  634.00	  579.76	-1776.75	  461.16
      9.2700	  599.00	  579.70	-1776.75	  461.10
      9.3700	  602.00	  579.63	-1776.75	  461.03
      9.4700	  633.00	  579.56	-1776.75	  460.96
      9.5700	  575.00	  579.49	-1776.75	  460.89
      9.6700	  605.00	  579.41	-1776.75	  460.81
      9.7700	  576.00	  579.32	-1776.75	  460.73
      9.8700	  584.00	  579.24	-1776.75	  460.64
      9.9700	  577.00	  579.14	-1776.75	  460.55
     10.0700	  583.00	  579.74	-1773.49	  460.45
     10.1700	  591.00	  579.71	-1765.46	  460.35
     10.2700	  611.00	  579.69	-1745.44	  460.25
     10.3700	  616.00	  579.70	-1740.45	  460.14
     10.4700	  570.00	  579.75	-1786.50	  460.03
     10.5700	  554.00	  579.89	-1802.64	  459.91
     10.6700	  602.00	  580.22	-1754.97	  459.79
     10.7700	  590.00	  580.83	-1767.58	  459.67
     10.8700	  611.00	  581.79	-1747.54	  459.54
     10.9700	  643.00	  583.11	-1716.86	  459.41
     11.0700	  596.00	  584.74	-1765.49	  459.27
     11.1700	  600.00	  586.68	-1763.43	  459.13
     11.2700	  581.00	  588.95	-1784.70	  458.99
     11.3700	  595.00	  591.63	-1773.38	  458.85
     11.4700	  607.00	  594.83	-1764.58	  458.70
     11.5700	  606.00	  598.73	-1769.48	  458.54
     11.6700	  607.00	  603.63	-1773.38	  458.39
     11.7700	  667.00	  610.10	-1719.85	  458.23
     11.8700	  639.00	  618.99	-1756.74	  458.06
     11.9700	  644.00	  631.08	-1763.83	  457.90
     12.0700	  681.00	  645.21	-1740.96	  457.73
     12.1700	  714.00	  655.81	-1718.56	  457.55
     12.2700	  657.00	  653.53	-1773.28	  457.38
     12.3700	  610.00	  634.78	-1801.53	  457.20
     12.4700	  629.00	  611.13	-1758.88	  457.02
     12.5700	  602.00	  593.76	-1768.51	  456.83
     12.6700	  572.00	  584.45	-1789.20	  456.64
     12.7700	  564.00	  580.31	-1793.06	  456.45
     12.8700	  552.00	  578.45	-1803.20	  456.25
     12.9700	  544.00	  577.41	-1810.16	  456.06
     13.0700	  575.00	  576.67	-1778.42	  455.86
     13.1700	  579.00	  576.09	-1773.84	  455.65
     13.2700	  606.00	  575.60	-1746.35	  455.45
     13.3700	  533.00	  575.17	-1818.92	  455.24
     13.4700	  573.00	  574.79	-1778.54	  455.03
     13.5700	  529.00	  574.44	-1822.19	  454.81
     13.6700	  553.00	  574.11	-1797.86	  454.59
     13.7700	  521.00	  573.80	-1829.55	  454.37
     13.8700	  527.00	  573.50	-1823.25	  454.15
     13.9700	  590.00	  573.21	-1759.96	  453.93
     14.0700	  568.00	  572.93	-1781.68	  453.70
     14.1700	  546.00	  572.66	-1803.41	  453.47
     14.2700	  588.00	  572.38	-1761.13	  453.24
     14.3700	  541.00	  572.12	-1807.87	  453.00
     14.4700	  560.00	  571.85	-1788.60	  452.76
     14.5700	  564.00	  571.58	-1784.33	  452.52
     14.6700	  576.00	  571.32	-1772.07	  452.28
     14.7700	  576.00	  571.05	-1771.80	  452.04
     14.8700	  534.00	  570.79	-1813.54	  451.79
     14.9700	  520.00	  570.52	-1827.27	  451.54
     15.0700	  520.00	  570.25	-1827.00	  451.29
     15.1700	  573.00	  569.99	-1773.74	  451.04
     15.2700	  539.00	  569.72	-1807.47	  450.78
     15.3700	  576.00	  569.45	-1770.20	  450.52
     15.4700	  566.00	  569.18	-1779.93	  450.26
     15.5700	  591.00	  568.91	-1754.66	  450.00
     15.6700	  564.00	  568.64	-1781.39	  449.74
     15.7700	  603.00	  568.37	-1742.12	  449.47
     15.8700	  608.00	  568.09	-1736.84	  449.21
     15.9700	  559.00	  567.82	-1785.57	  448.94
     16.0700	  597.00	  567.54	-1747.29	  448.67
     16.1700	  547.00	  567.26	-1797.01	  448.39
     16.2700	  560.00	  566.98	-1783.73	  448.12
     16.3700	  539.00	  566.72	-1804.47	  447.84
     16.4700	  508.00	  566.44	-1835.19	  447.56
     16.5700	  564.00	  566.16	-1778.91	  447.28
     16.6700	  530.00	  565.87	-1812.62	  447.00
     16.7700	  556.00	  565.59	-1786.34	  446.72
     16.8700	  559.00	  565.30	-1783.05	  446.43
     16.9700	  542.00	  565.01	-1799.76	  446.15
     17.0700	  550.00	  564.72	-1791.47	  445.86
     17.1700	  569.00	  564.43	-1772.18	  445.57
     17.2700	  535.00	  564.14	-1805.89	  445.28
     17.3700	  579.00	  563.84	-1761.59	  444.99
     17.4700	  588.00	  563.55	-1752.30	  444.69
     17.5700	  559.00	  563.25	-1781.00	  444.40
     17.6700	  590.00	  562.95	-1749.70	  444.10
     17.7700	  555.00	  562.65	-1784.40	  443.80
     17.8700	  564.00	  562.35	-1775.10	  443.50
     17.9700	  555.00	  562.15	-1783.90	  443.20
     18.0700	  533.00	  561.85	-1805.60	  442.90
     18.1700	  549.00	  561.55	-1789.30	  442.60
     18.2700	  557.00	  561.25	-1781.00	  442.30
     18.3700	  554.00	  560.95	-1783.70	  441.99
     18.4700	  584.00	  560.64	-1753.39	  441.68
     18.5700	  577.00	  560.34	-1760.09	  441.38
     18.6700	  553.00	  560.03	-1783.78	  441.07
     18.7700	  542.00	  559.73	-1794.48	  440.76
     18.8700	  552.00	  559.42	-1784.17	  440.45
     18.9700	  552.00	  559.19	-1783.94	  440.14
     19.0700	  574.00	  558.88	-1761.63	  439.83
     19.1700	  563.00	  558.58	-1772.33	  439.51
     19.2700	  558.00	  558.27	-1777.02	  439.20
     19.3700	  603.00	  557.96	-1731.71	  438.88
     19.4700	  542.00	  557.65	-1792.40	  438.57
     19.5700	  551.00	  557.34	-1783.09	  438.25
     19.6700	  517.00	  557.03	-1816.78	  437.93
     19.7700	  545.00	  556.72	-1788.47	  437.61
     19.8700	  529.00	  556.41	-1804.16	  437.30
     19.9700	  524.00	  556.10	-1808.85	  436.98
     20.0700	  573.00	  555.78	-1759.53	  436.66
     20.1700	  512.00	  555.47	-1820.22	  436.33
     20.2700	  587.00	  555.16	-1744.91	  436.01
     20.3700	  577.00	  554.85	-1754.60	  435.69
     20.4700	  554.00	  554.51	-1777.26	  435.37
     20.5700	  512.00	  554.20	-1818.95	  435.04
     20.6700	  557.00	  553.89	-1773.64	  434.72
     20.7700	  539.00	  553.57	-1791.32	  434.40
     20.8700	  534.00	  553.26	-1796.01	  434.07
     20.9700	  575.00	  552.99	-1754.74	  433.74
     21.0700	  535.00	  552.68	-1794.43	  433.42
     21.1700	  575.00	  552.37	-1754.12	  433.09
     21.2700	  552.00	  552.06	-1776.81	  432.77
     21.3700	  548.00	  551.75	-1780.50	  432.44
     21.4700	  525.00	  551.44	-1803.19	  432.11
     21.5700	  528.00	  551.14	-1799.89	  431.78
     21.6700	  563.00	  550.83	-1764.58	  431.46
     21.7700	  543.00	  550.53	-1784.28	  431.13
     21.8700	  596.00	  550.23	-1730.98	  430.80
     21.9700	  595.00	  549.93	-1731.68	  430.47
     22.0700	  547.00	  549.63	-1779.38	  430.14
     22.1700	  601.00	  549.34	-1725.09	  429.81
     22.2700	  538.00	  549.04	-1787.79	  429.48
     22.3700	  517.00	  548.75	-1808.50	  429.15
     22.4700	  537.00	  548.47	-1788.22	  428.82
     22.5700	  540.00	  548.19	-1784.94	  428.49
     22.6700	  499.00	  547.91	-1825.66	  428.16
     22.7700	  530.00	  547.64	-1794.39	  427.83
     22.8700	  564.00	  547.38	-1760.13	  427.50
     22.9700	  553.00	  547.13	-1770.88	  427.17
     23.0700	  546.00	  546.89	-1777.64	  426.84
     23.1700	  590.00	  546.66	-1733.41	  426.51
     23.2700	  568.00	  546.45	-1755.20	  426.18
     23.3700	  570.00	  546.26	-1753.01	  425.85
     23.4700	  537.00	  546.11	-1785.86	  425.53
     23.5700	  533.00	  545.99	-1789.74	  425.20
     23.6700	  585.00	  545.93	-1737.68	  424.87
     23.7700	  572.00	  545.97	-1750.72	  424.54
     23.8700	  556.00	  546.31	-1767.06	  424.21
     23.9700	  526.00	  546.91	-1797.66	  423.88
     24.0700	  561.00	  548.28	-1764.03	  423.55
     24.1700	  574.00	  551.02	-1753.77	  423.22
     24.2700	  564.00	  555.95	-1768.70	  422.89
     24.3700	  551.00	  563.96	-1789.71	  422.57
     24.4700	  608.00	  576.11	-1744.86	  422.24
     24.5700	  616.00	  592.86	-1753.61	  421.91
     24.6700	  610.00	  611.91	-1778.66	  421.58
     24.7700	  616.00	  625.87	-1786.62	  421.26
     24.8700	  592.00	  624.20	-1808.95	  420.93
     24.9700	  604.00	  604.56	-1777.31	  420.61
     25.0700	  586.00	  579.78	-1770.53	  420.28
     25.1700	  582.00	  561.08	-1755.83	  419.96
     25.2700	  531.00	  550.63	-1796.38	  419.63
     25.3700	  584.00	  545.83	-1738.58	  419.31
     25.4700	  575.00	  543.70	-1745.45	  418.98
     25.5700	  547.00	  542.59	-1772.34	  418.66
     25.6700	  604.00	  541.87	-1714.62	  418.34
     25.7700	  500.00	  541.34	-1818.09	  418.02
     25.8700	  533.00	  540.94	-1784.69	  417.69
     25.9700	  520.00	  540.63	-1797.38	  417.37
     26.0700	  559.00	  540.41	-1758.16	  417.05
     26.1700	  545.00	  540.25	-1772.00	  416.73
     26.2700	  573.00	  540.17	-1743.92	  416.41
     26.3700	  530.00	  540.16	-1786.91	  416.09
     26.4700	  582.00	  540.23	-1734.98	  415.78
     26.5700	  531.00	  540.39	-1786.14	  415.46
     26.6700	  509.00	  540.66	-1808.41	  415.14
     26.7700	  499.00	  541.06	-1818.81	  414.83
     26.8700	  578.00	  541.63	-1740.38	  414.51
     26.9700	  537.00	  542.42	-1782.17	  414.20
     27.0700	  554.00	  543.49	-1766.24	  413.88
     27.1700	  563.00	  544.98	-1758.73	  413.57
     27.2700	  541.00	  547.12	-1782.87	  413.26
     27.3700	  608.00	  550.40	-1719.15	  412.95
     27.4700	  580.00	  555.74	-1752.49	  412.64
     27.5700	  544.00	  564.83	-1797.58	  412.33
     27.6700	  555.00	  580.32	-1802.07	  412.02
     27.7700	  590.00	  605.69	-1792.44	  411.71
     27.8700	  617.00	  643.99	-1803.74	  411.40
     27.9700	  654.00	  695.49	-1818.24	  411.09
     28.0700	  785.00	  754.48	-1746.23	  410.79
     28.1700	  894.00	  806.50	-1689.25	  410.48
     28.2700	  920.00	  829.43	-1686.18	  410.18
     28.3700	  911.00	  809.43	-1675.18	  409.88
     28.4700	  786.00	  766.32	-1757.07	  409.58
     28.5700	  704.00	  734.96	-1807.71	  409.27
     28.6700	  685.00	  731.97	-1823.72	  408.97
     28.7700	  731.00	  753.48	-1799.23	  408.68
     28.8700	  766.00	  780.63	-1791.38	  408.38
     28.9700	  770.00	  786.33	-1793.08	  408.08
     29.0700	  805.00	  752.43	-1724.18	  407.78
     29.1700	  675.00	  692.77	-1794.52	  407.49
     29.2700	  599.00	  635.16	-1812.91	  407.19
     29.3700	  623.00	  593.36	-1747.11	  406.90
     29.4700	  602.00	  568.05	-1742.80	  406.61
     29.5700	  594.00	  554.38	-1737.13	  406.32
     29.6700	  660.00	  547.20	-1663.95	  406.03
     29.7700	  611.00	  543.15	-1708.90	  405.74
     29.8700	  568.00	  540.64	-1749.39	  405.45
     29.9700	  574.00	  539.04	-1741.79	  405.17
     30.0700	  566.00	  538.22	-1748.97	  404.88
     30.1700	  556.00	  538.32	-1759.07	  404.60
     30.2700	  584.00	  539.86	-1732.61	  404.31
     30.3700	  576.00	  543.85	-1744.60	  404.03
     30.4700	  572.00	  551.90	-1756.65	  403.75
     30.5700	  615.00	  565.71	-1727.46	  403.47
     30.6700	  607.00	  585.91	-1755.66	  403.19
     30.7700	  615.00	  610.16	-1771.91	  402.92
     30.8700	  597.00	  631.72	-1811.47	  402.64
     30.9700	  604.00	  640.06	-1812.81	  402.37
     31.0700	  611.00	  627.51	-1793.26	  402.09
     31.1700	  593.00	  600.55	-1784.30	  401.82
     31.2700	  577.00	  573.02	-1772.77	  401.55
     31.3700	  555.00	  552.59	-1774.34	  401.28
     31.4700	  549.00	  540.16	-1767.91	  401.01
     31.5700	  530.00	  533.56	-1780.31	  400.74
     31.6700	  550.00	  530.19	-1756.94	  400.48
     31.7700	  564.00	  528.35	-1741.10	  400.21
     31.8700	  521.00	  527.19	-1782.94	  399.95
     31.9700	  508.00	  526.39	-1795.14	  399.69
     32.0700	  556.00	  525.82	-1746.57	  399.43
     32.1700	  537.00	  525.43	-1765.18	  399.17
     32.2700	  539.00	  525.19	-1762.94	  398.91
     32.3700	  525.00	  525.10	-1776.85	  398.66
     32.4700	  518.00	  525.16	-1783.91	  398.40
     32.5700	  529.00	  525.38	-1773.13	  398.15
     32.6700	  553.00	  525.79	-1749.54	  397.89
     32.7700	  538.00	  526.43	-1765.18	  397.64
     32.8700	  618.00	  527.36	-1686.11	  397.39
     32.9700	  527.00	  528.69	-1778.44	  397.15
     33.0700	  521.00	  530.62	-1786.37	  396.90
     33.1700	  535.00	  533.57	-1775.32	  396.65
     33.2700	  549.00	  538.52	-1766.27	  396.41
     33.3700	  552.00	  547.61	-1772.36	  396.17
     33.4700	  562.00	  565.07	-1779.82	  395.93
     33.5700	  607.00	  597.75	-1767.50	  395.69
     33.6700	  613.00	  653.93	-1817.68	  395.45
     33.7700	  739.00	  737.87	-1775.61	  395.21
     33.8700	  862.00	  841.33	-1756.08	  394.98
     33.9700	 1011.00	  937.33	-1703.08	  394.74
     34.0700	 1108.00	  983.03	-1651.78	  394.51
     34.1700	  980.00	  944.81	-1741.56	  394.28
     34.2700	  871.00	  841.78	-1747.53	  394.05
     34.3700	  794.00	  728.48	-1711.23	  393.82
     34.4700	  636.00	  640.10	-1780.85	  393.60
     34.5700	  608.00	  584.51	-1753.26	  393.37
     34.6700	  551.00	  554.58	-1780.33	  393.15
     34.7700	  569.00	  539.72	-1747.47	  392.93
     34.8700	  525.00	  532.08	-1783.83	  392.71
     34.9700	  487.00	  527.56	-1817.31	  392.49
     35.0700	  503.00	  524.46	-1798.21	  392.27
     35.1700	  513.00	  522.13	-1785.88	  392.06
     35.2700	  536.00	  520.29	-1761.04	  391.84
     35.3700	  514.00	  518.82	-1781.57	  391.63
     35.4700	  483.00	  517.58	-1811.33	  391.42
     35.5700	  504.00	  516.54	-1789.29	  391.21
     35.6700	  521.00	  515.65	-1771.40	  391.00
     35.7700	  539.00	  514.88	-1752.63	  390.80
     35.8700	  561.00	  514.20	-1729.95	  390.59
     35.9700	  509.00	  514.07	-1781.82	  390.39
     36.0700	  510.00	  513.54	-1780.29	  390.19
     36.1700	  475.00	  513.06	-1814.81	  389.99
     36.2700	  564.00	  512.63	-1725.38	  389.79
     36.3700	  505.00	  512.24	-1783.99	  389.60
     36.4700	  527.00	  511.88	-1761.63	  389.40
     36.5700	  557.00	  511.57	-1731.32	  389.21
     36.6700	  526.00	  511.29	-1762.04	  389.02
     36.7700	  482.00	  511.05	-1805.80	  388.83
     36.8700	  509.00	  510.87	-1778.62	  388.64
     36.9700	  488.00	  510.80	-1799.55	  388.45
     37.0700	  514.00	  510.93	-1773.68	  388.27
     37.1700	  506.00	  511.47	-1782.22	  388.08
     37.2700	  517.00	  512.75	-1772.50	  387.90
     37.3700	  538.00	  515.13	-1753.88	  387.72
     37.4700	  531.00	  518.73	-1764.48	  387.54
     37.5700	  517.00	  523.08	-1782.83	  387.37
     37.6700	  504.00	  526.98	-1799.73	  387.19
     37.7700	  535.00	  528.94	-1770.69	  387.02
     37.8700	  529.00	  528.36	-1776.11	  386.85
     37.9700	  504.00	  526.07	-1798.82	  386.68
     38.0700	  548.00	  522.89	-1751.64	  386.51
     38.1700	  520.00	  519.13	-1775.88	  386.34
     38.2700	  484.00	  515.32	-1808.07	  386.18
     38.3700	  523.00	  512.14	-1765.89	  386.01
     38.4700	  538.00	  509.85	-1748.60	  385.85
     38.5700	  518.00	  508.39	-1767.14	  385.69
     38.6700	  510.00	  507.51	-1774.26	  385.53
     38.7700	  504.00	  506.88	-1779.63	  385.38
     38.8700	  522.00	  506.52	-1761.27	  385.22
     38.9700	  501.00	  506.25	-1782.00	  385.07
     39.0700	  460.00	  506.02	-1822.77	  384.91
     39.1700	  470.00	  505.82	-1812.57	  384.76
     39.2700	  509.00	  505.56	-1773.31	  384.62
     39.3700	  490.00	  505.40	-1792.15	  384.47
     39.4700	  469.00	  505.24	-1812.99	  384.32
     39.5700	  445.00	  505.10	-1836.85	  384.18
     39.6700	  537.00	  505.09	-1744.84	  384.04
     39.7700	  474.00	  504.97	-1807.72	  383.90
     39.8700	  515.00	  504.86	-1766.61	  383.76
     39.9700	  459.00	  504.76	-1822.51	  383.63
     40.0700	  509.00	  504.67	-1772.42	  383.49
     40.1700	  518.00	  504.59	-1763.34	  383.36
     40.2700	  482.00	  504.52	-1799.27	  383.23
     40.3700	  509.00	  504.47	-1772.22	  383.10
     40.4700	  500.00	  504.43	-1781.18	  382.97
     40.5700	  494.00	  504.40	-1787.15	  382.84
     40.6700	  482.00	  504.39	-1799.14	  382.72
     40.7700	  521.00	  504.40	-1760.15	  382.59
     40.8700	  521.00	  504.43	-1760.18	  382.47
     40.9700	  463.00	  504.49	-1818.24	  382.35
     41.0700	  498.00	  504.59	-1783.34	  382.24
     41.1700	  505.00	  504.69	-1776.44	  382.12
     41.2700	  516.00	  504.88	-1765.63	  382.00
     41.3700	  451.00	  505.13	-1830.88	  381.89
     41.4700	  530.00	  505.47	-1752.22	  381.78
     41.5700	  518.00	  505.93	-1764.68	  381.67
     41.6700	  568.00	  506.98	-1715.73	  381.56
     41.7700	  484.00	  507.93	-1800.68	  381.46
     41.8700	  479.00	  509.49	-1807.24	  381.35
     41.9700	  499.00	  512.38	-1790.13	  381.25
     42.0700	  481.00	  518.04	-1813.79	  381.15
     42.1700	  530.00	  528.83	-1775.58	  381.05
     42.2700	  523.00	  547.65	-1801.40	  380.95
     42.3700	  537.00	  576.43	-1816.18	  380.86
     42.4700	  575.00	  613.28	-1815.03	  380.76
     42.5700	  609.00	  650.56	-1818.31	  380.67
     42.6700	  583.00	  675.06	-1868.81	  380.58
     42.7700	  639.00	  674.25	-1812.00	  380.49
     42.8700	  603.00	  647.51	-1821.26	  380.40
     42.9700	  525.00	  608.53	-1860.28	  380.32
     43.0700	  553.00	  571.45	-1795.20	  380.23
     43.1700	  533.00	  543.55	-1787.30	  380.15
     43.2700	  501.00	  525.89	-1801.64	  380.07
     43.3700	  517.00	  516.13	-1775.88	  379.99
     43.4700	  505.00	  511.17	-1782.92	  379.91
     43.5700	  509.00	  508.65	-1776.40	  379.84
     43.6700	  550.00	  507.25	-1734.00	  379.76
     43.7700	  511.00	  506.53	-1772.28	  379.69
     43.8700	  518.00	  505.89	-1764.64	  379.62
     43.9700	  538.00	  505.41	-1744.16	  379.55
     44.0700	  493.00	  505.03	-1788.78	  379.48
     44.1700	  547.00	  504.79	-1734.54	  379.42
     44.2700	  531.00	  504.57	-1750.32	  379.35
     44.3700	  481.00	  504.40	-1800.15	  379.29
     44.4700	  517.00	  504.28	-1764.03	  379.23
     44.5700	  499.00	  504.08	-1781.83	  379.17
     44.6700	  533.00	  504.03	-1747.78	  379.11
     44.7700	  488.00	  504.01	-1792.76	  379.05
     44.8700	  516.00	  504.02	-1764.77	  379.00
     44.9700	  506.00	  504.05	-1774.80	  378.95
     45.0700	  520.00	  504.11	-1760.86	  378.90
     45.1700	  492.00	  504.18	-1788.93	  378.85
     45.2700	  503.00	  504.46	-1778.21	  378.80
     45.3700	  526.00	  504.58	-1755.33	  378.75
     45.4700	  481.00	  504.73	-1800.48	  378.71
     45.5700	  507.00	  504.90	-1774.65	  378.66
     45.6700	  531.00	  505.09	-1750.84	  378.62
     45.7700	  431.00	  505.31	-1851.06	  378.58
     45.8700	  507.00	  505.55	-1775.30	  378.54
     45.9700	  518.00	  505.83	-1764.58	  378.51
     46.0700	  518.00	  506.14	-1764.89	  378.47
     46.1700	  493.00	  506.48	-1790.23	  378.44
     46.2700	  523.00	  506.87	-1760.62	  378.40
     46.3700	  535.00	  507.31	-1749.06	  378.37
     46.4700	  504.00	  507.80	-1780.55	  378.34
     46.5700	  470.00	  508.36	-1815.11	  378.32
     46.6700	  541.00	  509.00	-1744.75	  378.29
     46.7700	  561.00	  509.75	-1725.50	  378.27
     46.8700	  513.00	  510.64	-1774.39	  378.24
     46.9700	  507.00	  511.80	-1781.55	  378.22
     47.0700	  504.00	  513.46	-1786.21	  378.20
     47.1700	  519.00	  516.11	-1773.86	  378.18
     47.2700	  546.00	  520.64	-1751.39	  378.17
     47.3700	  560.00	  528.24	-1744.99	  378.15
     47.4700	  529.00	  540.03	-1787.78	  378.14
     47.5700	  547.00	  556.39	-1786.14	  378.13
     47.6700	  589.00	  575.82	-1763.57	  378.12
     47.7700	  545.00	  594.37	-1826.12	  378.11
     47.8700	  604.00	  606.12	-1778.87	  378.10
     47.9700	  614.00	  606.23	-1768.98	  378.09
     48.0700	  579.00	  595.28	-1793.03	  378.09
     48.1700	  557.00	  579.00	-1798.75	  378.09
     48.2700	  521.00	  563.34	-1819.09	  378.08
     48.3700	  515.00	  551.77	-1813.52	  378.08
     48.4700	  553.00	  545.23	-1768.98	  378.08
     48.5700	  542.00	  543.18	-1777.93	  378.09
     48.6700	  549.00	  544.47	-1772.22	  378.09
     48.7700	  519.00	  548.15	-1805.90	  378.10
     48.8700	  503.00	  553.73	-1827.48	  378.10
     48.9700	  532.00	  561.26	-1806.01	  378.11
     49.0700	  562.00	  571.42	-1786.17	  378.12
     49.1700	  589.00	  585.85	-1773.60	  378.13
     49.2700	  648.00	  608.01	-1736.76	  378.15
     49.3700	  621.00	  644.47	-1800.22	  378.16
     49.4700	  690.00	  706.40	-1793.15	  378.18
     49.5700	  791.00	  809.78	-1795.53	  378.19
     49.6700	  888.00	  973.27	-1862.02	  378.21
     49.7700	 1152.00	 1210.14	-1834.89	  378.23
     49.8700	 1490.00	 1519.41	-1806.16	  378.25
     49.9700	 1784.00	 1872.85	-1865.60	  378.27
     50.0700	 2129.00	 2205.80	-1853.55	  378.30
     50.1700	 2519.00	 2421.38	-1679.13	  378.32
     50.2700	 2487.00	 2431.58	-1721.33	  378.35
     50.3700	 2269.00	 2229.47	-1737.22	  378.38
     50.4700	 1971.00	 1899.92	-1705.67	  378.41
     50.5700	 1459.00	 1545.83	-1863.58	  378.44
     50.6700	 1093.00	 1235.96	-1919.71	  378.47
     50.7700	  854.00	 1000.78	-1923.53	  378.50
     50.8700	  720.00	  842.35	-1899.10	  378.54
     50.9700	  592.00	  745.80	-1930.55	  378.57
     51.0700	  597.00	  690.23	-1869.98	  378.61
     51.1700	  584.00	  656.49	-1849.24	  378.65
     51.2700	  585.00	  631.75	-1823.50	  378.69
     51.3700	  628.00	  610.52	-1759.27	  378.73
     51.4700	  556.00	  591.98	-1812.73	  378.77
     51.5700	  607.00	  576.69	-1746.44	  378.81
     51.6700	  522.00	  565.03	-1819.78	  378.86
     51.7700	  575.00	  556.75	-1758.50	  378.91
     51.8700	  582.00	  551.15	-1745.90	  378.95
     51.9700	  529.00	  547.44	-1795.19	  379.00
     52.0700	  559.00	  545.00	-1762.75	  379.05
     52.1700	  547.00	  543.50	-1773.25	  379.10
     52.2700	  587.00	  542.85	-1732.60	  379.15
     52.3700	  565.00	  543.36	-1755.11	  379.21
     52.4700	  585.00	  544.97	-1736.72	  379.26
     52.5700	  563.00	  548.81	-1762.56	  379.32
     52.6700	  614.00	  556.83	-1719.58	  379.37
     52.7700	  631.00	  572.77	-1718.52	  379.43
     52.8700	  653.00	  602.60	-1726.35	  379.49
     52.9700	  696.00	  653.96	-1734.71	  379.55
     53.0700	  810.00	  733.73	-1700.48	  379.61
     53.1700	  879.00	  843.52	-1741.27	  379.68
     53.2700	 1058.00	  974.47	-1693.22	  379.74
     53.3700	 1117.00	 1103.96	-1763.71	  379.80
     53.4700	 1160.00	 1197.09	-1813.84	  379.87
     53.5700	 1191.00	 1219.17	-1804.92	  379.94
     53.6700	 1076.00	 1160.01	-1860.76	  380.01
     53.7700	  966.00	 1044.17	-1854.92	  380.08
     53.8700	  872.00	  909.83	-1814.58	  380.15
     53.9700	  728.00	  787.08	-1835.83	  380.22
     54.0700	  664.00	  691.66	-1804.41	  380.29
     54.1700	  567.00	  626.71	-1836.46	  380.36
     54.2700	  584.00	  587.31	-1780.06	  380.44
     54.3700	  571.00	  565.62	-1771.37	  380.51
     54.4700	  633.00	  554.52	-1698.27	  380.59
     54.5700	  611.00	  549.18	-1714.93	  380.67
     54.6700	  540.00	  546.77	-1783.52	  380.75
     54.7700	  564.00	  545.94	-1758.69	  380.83
     54.8700	  553.00	  546.09	-1769.84	  380.91
     54.9700	  573.00	  547.00	-1750.75	  380.99
     55.0700	  533.00	  548.60	-1792.35	  381.07
     55.1700	  586.00	  550.91	-1741.66	  381.16
     55.2700	  550.00	  553.99	-1780.74	  381.24
     55.3700	  536.00	  557.96	-1798.71	  381.33
     55.4700	  566.00	  563.00	-1773.75	  381.41
     55.5700	  586.00	  569.50	-1760.25	  381.50
     55.6700	  632.00	  578.19	-1722.94	  381.59
     55.7700	  556.00	  590.62	-1811.37	  381.68
     55.8700	  583.00	  609.93	-1803.68	  381.77
     55.9700	  609.00	  642.09	-1809.84	  381.86
     56.0700	  677.00	  697.26	-1797.01	  381.95
     56.1700	  798.00	  790.36	-1769.11	  382.05
     56.2700	  884.00	  939.69	-1832.44	  382.14
     56.3700	 1058.00	 1161.64	-1880.39	  382.24
     56.4700	 1392.00	 1462.09	-1846.84	  382.33
     56.5700	 1685.00	 1826.29	-1918.04	  382.43
     56.6700	 2140.00	 2210.42	-1847.17	  382.52
     56.7700	 2517.00	 2539.48	-1799.23	  382.62
     56.8700	 2679.00	 2720.03	-1817.78	  382.72
     56.9700	 2585.00	 2685.63	-1877.38	  382.82
     57.0700	 2415.00	 2449.50	-1811.25	  382.92
     57.1700	 2070.00	 2094.16	-1800.91	  383.02
     57.2700	 1611.00	 1711.51	-1877.26	  383.13
     57.3700	 1332.00	 1367.33	-1812.08	  383.23
     57.4700	 1060.00	 1095.39	-1812.14	  383.33
     57.5700	  857.00	  902.85	-1822.60	  383.44
     57.6700	  831.00	  779.72	-1725.47	  383.54
     57.7700	  712.00	  708.87	-1773.62	  383.65
     57.8700	  698.00	  674.03	-1752.78	  383.76
     57.9700	  676.00	  663.70	-1764.45	  383.86
     58.0700	  689.00	  671.79	-1759.54	  383.97
     58.1700	  755.00	  696.28	-1718.03	  384.08
     58.2700	  733.00	  737.30	-1781.05	  384.19
     58.3700	  897.00	  795.19	-1674.94	  384.30
     58.4700	  946.00	  868.76	-1699.51	  384.41
     58.5700	 1108.00	  953.72	-1622.47	  384.52
     58.6700	 1226.00	 1041.99	-1592.74	  384.63
     58.7700	 1418.00	 1123.87	-1482.62	  384.75
     58.8700	 1518.00	 1192.39	-1451.14	  384.86
     58.9700	 1522.00	 1243.58	-1498.33	  384.98
     59.0700	 1573.00	 1272.30	-1476.05	  385.09
     59.1700	 1559.00	 1273.73	-1491.48	  385.21
     59.2700	 1480.00	 1251.20	-1547.95	  385.32
     59.3700	 1326.00	 1217.09	-1667.84	  385.44
     59.4700	 1264.00	 1184.43	-1697.18	  385.56
     59.5700	 1234.00	 1161.85	-1704.60	  385.67
     59.6700	 1167.00	 1156.30	-1766.05	  385.79
     59.7700	 1181.00	 1176.05	-1771.80	  385.91
     59.8700	 1254.00	 1227.13	-1749.88	  386.03
     59.9700	 1312.00	 1306.60	-1771.35	  386.15
     60.0700	 1427.00	 1399.00	-1748.75	  386.27
     60.1700	 1624.00	 1476.78	-1629.53	  386.39
     60.2700	 1551.00	 1506.82	-1732.57	  386.51
     60.3700	 1511.00	 1467.47	-1733.22	  386.63
     60.4700	 1409.00	 1363.97	-1731.72	  386.76
     60.5700	 1216.00	 1222.71	-1783.46	  386.88
     60.6700	 1100.00	 1072.86	-1749.61	  387.00
     60.7700	  980.00	  936.13	-1732.88	  387.13
     60.8700	  815.00	  824.85	-1786.60	  387.25
     60.9700	  681.00	  743.42	-1839.17	  387.38
     61.0700	  664.00	  690.79	-1803.54	  387.50
     61.1700	  634.00	  663.61	-1806.36	  387.63
     61.2700	  624.00	  659.02	-1811.77	  387.75
     61.3700	  670.00	  676.42	-1783.17	  387.88
     61.4700	  656.00	  717.75	-1838.50	  388.01
     61.5700	  760.00	  786.27	-1803.02	  388.13
     61.6700	  895.00	  884.15	-1765.90	  388.26
     61.7700	  961.00	 1009.44	-1825.19	  388.39
     61.8700	 1075.00	 1153.27	-1855.02	  388.52
     61.9700	 1236.00	 1298.17	-1838.92	  388.64
     62.0700	 1327.00	 1417.78	-1867.53	  388.77
     62.1700	 1380.00	 1481.81	-1878.56	  388.90
     62.2700	 1393.00	 1469.54	-1853.29	  389.03
     62.3700	 1288.00	 1384.54	-1873.29	  389.16
     62.4700	 1156.00	 1251.91	-1872.66	  389.29
     62.5700	 1003.00	 1101.94	-1875.69	  389.42
     62.6700	  926.00	  958.53	-1809.28	  389.55
     62.7700	  747.00	  836.42	-1866.17	  389.68
     62.8700	  722.00	  741.83	-1796.58	  389.81
     62.9700	  589.00	  674.34	-1862.09	  389.94
     63.0700	  615.00	  629.56	-1791.31	  390.08
     63.1700	  568.00	  601.67	-1810.42	  390.21
     63.2700	  569.00	  585.26	-1793.01	  390.34
     63.3700	  609.00	  576.27	-1744.02	  390.47
     63.4700	  590.00	  572.29	-1759.04	  390.60
     63.5700	  644.00	  572.38	-1705.13	  390.74
     63.6700	  589.00	  576.84	-1764.59	  390.87
     63.7700	  614.00	  587.00	-1749.75	  391.00
     63.8700	  666.00	  604.88	-1715.63	  391.13
     63.9700	  646.00	  632.71	-1763.46	  391.27
     64.0700	  747.00	  672.10	-1701.85	  391.40
     64.1700	  779.00	  723.08	-1720.83	  391.53
     64.2700	  859.00	  783.15	-1700.90	  391.67
     64.3700	  873.00	  846.55	-1750.30	  391.80
     64.4700	 1006.00	  904.28	-1675.03	  391.93
     64.5700	 1036.00	  945.42	-1686.17	  392.07
     64.6700	 1005.00	  960.65	-1732.40	  392.20
     64.7700	  968.00	  948.30	-1757.05	  392.33
     64.8700	  958.00	  912.47	-1731.22	  392.47
     64.9700	  899.00	  861.84	-1739.59	  392.60
     65.0700	  845.00	  806.12	-1737.87	  392.73
     65.1700	  789.00	  753.19	-1740.94	  392.87
     65.2700	  733.00	  707.61	-1751.36	  393.00
     65.3700	  660.00	  670.66	-1787.41	  393.14
     65.4700	  609.00	  641.52	-1809.27	  393.27
     65.5700	  628.00	  618.71	-1767.46	  393.40
     65.6700	  590.00	  601.01	-1787.76	  393.54
     65.7700	  560.00	  587.52	-1804.27	  393.67
     65.8700	  550.00	  577.56	-1804.31	  393.80
     65.9700	  548.00	  570.61	-1799.36	  393.94
     66.0700	  536.00	  566.23	-1806.98	  394.07
     66.1700	  552.00	  564.00	-1788.75	  394.20
     66.2700	  505.00	  563.54	-1835.29	  394.34
     66.3700	  539.00	  564.55	-1802.30	  394.47
     66.4700	  545.00	  566.87	-1798.62	  394.60
     66.5700	  507.00	  570.51	-1840.26	  394.73
     66.6700	  581.00	  575.82	-1771.57	  394.87
     66.7700	  583.00	  583.73	-1777.48	  395.00
     66.8700	  566.00	  595.67	-1806.42	  395.13
     66.9700	  581.00	  614.60	-1810.35	  395.26
     67.0700	  589.00	  645.15	-1832.90	  395.40
     67.1700	  653.00	  694.01	-1817.76	  395.53
     67.2700	  736.00	  769.79	-1810.54	  395.66
     67.3700	  847.00	  882.00	-1811.75	  395.79
     67.4700	 1049.00	 1038.69	-1766.44	  395.92
     67.5700	 1226.00	 1243.27	-1794.02	  396.05
     67.6700	 1533.00	 1490.86	-1734.61	  396.18
     67.7700	 1865.00	 1765.23	-1676.98	  396.31
     67.8700	 2004.00	 2037.51	-1810.26	  396.44
     67.9700	 2245.00	 2266.79	-1798.54	  396.57
     68.0700	 2426.00	 2406.73	-1757.48	  396.70
     68.1700	 2473.00	 2421.73	-1725.48	  396.83
     68.2700	 2296.00	 2307.63	-1788.38	  396.96
     68.3700	 2191.00	 2094.42	-1680.17	  397.09
     68.4700	 1851.00	 1828.09	-1753.84	  397.22
     68.5700	 1577.00	 1551.53	-1751.28	  397.35
     68.6700	 1340.00	 1296.54	-1733.29	  397.47
     68.7700	 1014.00	 1082.19	-1844.94	  397.60
     68.8700	  901.00	  915.39	-1791.14	  397.73
     68.9700	  773.00	  794.46	-1798.21	  397.85
     69.0700	  731.00	  711.91	-1757.66	  397.98
     69.1700	  668.00	  658.39	-1767.14	  398.11
     69.2700	  613.00	  624.95	-1788.70	  398.23
     69.3700	  596.00	  604.40	-1785.15	  398.36
     69.4700	  626.00	  591.70	-1742.45	  398.48
     69.5700	  580.00	  583.61	-1780.36	  398.61
     69.6700	  606.00	  578.24	-1748.99	  398.73
     69.7700	  581.00	  574.55	-1770.30	  398.85
     69.8700	  548.00	  571.99	-1800.74	  398.98
     69.9700	  576.00	  570.29	-1771.04	  399.10
     70.0700	  564.00	  569.32	-1782.07	  399.22
     70.1700	  564.00	  569.02	-1781.77	  399.34
     70.2700	  575.00	  569.42	-1771.17	  399.46
     70.3700	  535.00	  570.61	-1812.36	  399.58
     70.4700	  557.00	  572.79	-1792.54	  399.70
     70.5700	  603.00	  576.40	-1750.15	  399.82
     70.6700	  526.00	  582.27	-1833.02	  399.94
     70.7700	  566.00	  591.84	-1802.59	  400.06
     70.8700	  594.00	  607.43	-1790.18	  400.18
     70.9700	  556.00	  632.58	-1853.33	  400.29
     71.0700	  637.00	  672.05	-1811.80	  400.41
     71.1700	  719.00	  731.64	-1789.39	  400.53
     71.2700	  754.00	  817.37	-1840.12	  400.64
     71.3700	  886.00	  934.02	-1824.77	  400.76
     71.4700	 1054.00	 1083.94	-1806.69	  400.87
     71.5700	 1258.00	 1261.79	-1780.54	  400.98
     71.6700	 1384.00	 1457.79	-1850.54	  401.10
     71.7700	 1633.00	 1653.85	-1797.60	  401.21
     71.8700	 1779.00	 1824.91	-1822.66	  401.32
     71.9700	 1808.00	 1941.92	-1910.67	  401.43
     72.0700	 1985.00	 1979.98	-1771.73	  401.54
     72.1700	 1971.00	 1930.05	-1735.80	  401.65
     72.2700	 1908.00	 1804.34	-1673.09	  401.76
     72.3700	 1660.00	 1628.71	-1745.46	  401.87
     72.4700	 1539.00	 1432.77	-1670.52	  401.98
     72.5700	 1389.00	 1240.03	-1627.78	  402.08
     72.6700	 1203.00	 1067.25	-1641.00	  402.19
     72.7700	  992.00	  923.54	-1708.29	  402.30
     72.8700	  958.00	  811.48	-1630.23	  402.40
     72.9700	  842.00	  728.88	-1663.63	  402.51
     73.0700	  846.00	  670.83	-1601.58	  402.61
     73.1700	  729.00	  631.53	-1679.28	  402.71
     73.2700	  676.00	  605.55	-1706.30	  402.81
     73.3700	  678.00	  588.51	-1687.26	  402.91
     73.4700	  644.00	  577.26	-1710.01	  403.01
     73.5700	  596.00	  569.70	-1750.45	  403.11
     73.6700	  613.00	  564.55	-1728.30	  403.21
     73.7700	  561.00	  561.06	-1776.81	  403.31
     73.8700	  647.00	  558.80	-1688.55	  403.41
     73.9700	  532.00	  557.50	-1802.25	  403.50
     74.0700	  600.00	  556.98	-1733.73	  403.60
     74.1700	  628.00	  557.08	-1705.83	  403.69
     74.2700	  645.00	  557.59	-1689.34	  403.79
     74.3700	  653.00	  558.29	-1682.04	  403.88
     74.4700	  633.00	  558.89	-1702.64	  403.97
     74.5700	  663.00	  559.11	-1672.86	  404.06
     74.6700	  620.00	  558.72	-1715.47	  404.15
     74.7700	  637.00	  557.66	-1697.41	  404.24
     74.8700	  609.00	  556.04	-1723.79	  404.33
     74.9700	  559.00	  554.15	-1771.90	  404.42
     75.0700	  627.00	  552.29	-1702.04	  404.50
     75.1700	  591.00	  550.79	-1736.54	  404.59
     75.2700	  535.00	  549.99	-1791.74	  404.67
     75.3700	  583.00	  550.38	-1744.13	  404.76
     75.4700	  559.00	  552.32	-1770.07	  404.84
     75.5700	  581.00	  556.32	-1752.07	  404.92
     75.6700	  596.00	  562.81	-1743.56	  405.00
     75.7700	  549.00	  572.49	-1800.24	  405.08
     75.8700	  555.00	  585.62	-1807.37	  405.16
     75.9700	  647.00	  602.21	-1731.96	  405.24
     76.0700	  642.00	  621.79	-1756.54	  405.32
     76.1700	  629.00	  643.29	-1791.04	  405.39
     76.2700	  639.00	  664.97	-1802.72	  405.47
     76.3700	  713.00	  684.46	-1748.21	  405.54
     76.4700	  708.00	  699.03	-1767.78	  405.62
     76.5700	  672.00	  706.11	-1810.86	  405.69
     76.6700	  674.00	  704.25	-1807.00	  405.76
     76.7700	  670.00	  693.80	-1800.55	  405.83
     76.8700	  691.00	  676.76	-1762.51	  405.90
     76.9700	  669.00	  655.69	-1763.44	  405.97
     77.0700	  626.00	  633.58	-1784.33	  406.03
     77.1700	  604.00	  612.35	-1785.10	  406.10
     77.2700	  572.00	  593.49	-1798.24	  406.16
     77.3700	  569.00	  577.78	-1785.53	  406.23
     77.4700	  507.00	  565.44	-1835.19	  406.29
     77.5700	  519.00	  556.27	-1814.02	  406.35
     77.6700	  549.00	  549.76	-1777.51	  406.41
     77.7700	  545.00	  545.34	-1777.09	  406.47
     77.8700	  516.00	  542.45	-1803.20	  406.53
     77.9700	  493.00	  540.59	-1824.34	  406.58
     78.0700	  534.00	  539.43	-1782.18	  406.64
     78.1700	  512.00	  538.70	-1803.45	  406.69
     78.2700	  505.00	  538.25	-1810.00	  406.75
     78.3700	  525.00	  537.97	-1789.72	  406.80
     78.4700	  521.00	  537.82	-1793.57	  406.85
     78.5700	  527.00	  537.77	-1787.52	  406.90
     78.6700	  489.00	  537.82	-1825.57	  406.95
     78.7700	  548.00	  537.96	-1766.71	  407.00
     78.8700	  585.00	  538.23	-1729.98	  407.04
     78.9700	  531.00	  538.66	-1784.41	  407.09
     79.0700	  524.00	  539.28	-1792.03	  407.13
     79.1700	  514.00	  540.15	-1802.90	  407.18
     79.2700	  501.00	  541.16	-1816.91	  407.22
     79.3700	  537.00	  542.73	-1782.48	  407.26
     79.4700	  565.00	  544.74	-1756.49	  407.30
     79.5700	  503.00	  547.28	-1821.03	  407.34
     79.6700	  539.00	  550.44	-1788.19	  407.37
     79.7700	  534.00	  554.33	-1797.08	  407.41
     79.8700	  523.00	  559.10	-1812.85	  407.44
     79.9700	  515.00	  564.92	-1826.67	  407.48
     80.0700	  522.00	  572.04	-1826.79	  407.51
     80.1700	  529.00	  580.75	-1828.50	  407.54
     80.2700	  608.00	  591.37	-1760.12	  407.57
     80.3700	  595.00	  604.19	-1785.94	  407.60
     80.4700	  602.00	  619.31	-1794.06	  407.62
     80.5700	  593.00	  636.57	-1820.32	  407.65
     80.6700	  651.00	  655.42	-1781.17	  407.67
     80.7700	  644.00	  674.92	-1807.67	  407.70
     80.8700	  686.00	  693.75	-1784.50	  407.72
     80.9700	  689.00	  710.38	-1798.13	  407.74
     81.0700	  703.00	  723.41	-1797.16	  407.76
     81.1700	  709.00	  731.73	-1799.48	  407.77
     81.2700	  705.00	  734.70	-1806.45	  407.79
     81.3700	  746.00	  732.09	-1762.84	  407.81
     81.4700	  791.00	  724.23	-1709.98	  407.82
     81.5700	  748.00	  711.95	-1740.70	  407.83
     81.6700	  797.00	  696.32	-1676.07	  407.84
     81.7700	  774.00	  678.49	-1681.24	  407.85
     81.8700	  708.00	  659.60	-1728.35	  407.86
     81.9700	  676.00	  640.71	-1741.46	  407.87
     82.0700	  687.00	  622.87	-1712.62	  407.87
     82.1700	  669.00	  606.72	-1714.47	  407.88
     82.2700	  636.00	  592.69	-1733.44	  407.88
     82.3700	  658.00	  580.91	-1699.66	  407.88
     82.4700	  604.00	  571.39	-1744.14	  407.88
     82.5700	  616.00	  563.97	-1724.72	  407.88
     82.6700	  561.00	  558.55	-1774.30	  407.88
     82.7700	  514.00	  554.90	-1817.65	  407.88
     82.8700	  546.00	  552.87	-1783.62	  407.87
     82.9700	  560.00	  552.31	-1769.06	  407.87
     83.0700	  550.00	  553.12	-1779.87	  407.86
     83.1700	  555.00	  555.21	-1776.96	  407.85
     83.2700	  492.00	  558.46	-1843.21	  407.84
     83.3700	  518.00	  562.74	-1821.49	  407.83
     83.4700	  546.00	  567.81	-1798.56	  407.81
     83.5700	  559.00	  573.34	-1791.09	  407.80
     83.6700	  561.00	  578.92	-1794.67	  407.78
     83.7700	  584.00	  584.02	-1776.77	  407.76
     83.8700	  584.00	  588.06	-1780.81	  407.74
     83.9700	  564.00	  590.47	-1803.22	  407.72
     84.0700	  498.00	  590.84	-1869.59	  407.70
     84.1700	  592.00	  589.08	-1773.83	  407.68
     84.2700	  545.00	  585.44	-1817.19	  407.65
     84.3700	  562.00	  580.41	-1795.16	  407.63
     84.4700	  584.00	  574.57	-1767.32	  407.60
     84.5700	  545.00	  568.46	-1800.21	  407.57
     84.6700	  565.00	  562.51	-1774.26	  407.54
     84.7700	  565.00	  557.05	-1768.80	  407.51
     84.8700	  552.00	  552.30	-1777.05	  407.48
     84.9700	  529.00	  548.37	-1796.12	  407.44
     85.0700	  487.00	  545.28	-1835.03	  407.40
     85.1700	  530.00	  542.97	-1789.72	  407.37
     85.2700	  550.00	  541.35	-1768.10	  407.33
     85.3700	  528.00	  540.34	-1789.09	  407.29
     85.4700	  548.00	  539.82	-1768.57	  407.25
     85.5700	  489.00	  539.72	-1827.47	  407.20
     85.6700	  531.00	  539.98	-1785.73	  407.16
     85.7700	  506.00	  540.56	-1811.31	  407.11
     85.8700	  540.00	  541.47	-1778.22	  407.06
     85.9700	  505.00	  542.73	-1814.48	  407.01
     86.0700	  515.00	  544.39	-1806.14	  406.96
     86.1700	  538.00	  546.55	-1785.30	  406.91
     86.2700	  587.00	  549.31	-1739.06	  406.86
     86.3700	  488.00	  552.81	-1841.56	  406.80
     86.4700	  522.00	  557.18	-1811.93	  406.75
     86.5700	  511.00	  562.54	-1828.29	  406.69
     86.6700	  582.00	  568.95	-1763.70	  406.63
     86.7700	  587.00	  576.08	-1765.83	  406.57
     86.8700	  600.00	  584.35	-1761.10	  406.51
     86.9700	  602.00	  593.11	-1767.86	  406.44
     87.0700	  616.00	  601.86	-1762.61	  406.38
     87.1700	  629.00	  609.94	-1757.69	  406.31
     87.2700	  638.00	  616.61	-1755.36	  406.24
     87.3700	  661.00	  621.10	-1736.85	  406.17
     87.4700	  702.00	  622.83	-1697.58	  406.10
     87.5700	  704.00	  621.54	-1694.29	  406.03
     87.6700	  636.00	  617.42	-1758.17	  405.95
     87.7700	  612.00	  611.08	-1775.83	  405.88
     87.8700	  626.00	  603.33	-1754.08	  405.80
     87.9700	  587.00	  595.01	-1784.76	  405.72
     88.0700	  641.00	  586.94	-1722.69	  405.64
     88.1700	  606.00	  579.79	-1750.54	  405.56
     88.2700	  584.00	  574.08	-1766.83	  405.48
     88.3700	  549.00	  570.18	-1797.93	  405.40
     88.4700	  564.00	  568.26	-1781.01	  405.31
     88.5700	  570.00	  568.33	-1775.08	  405.22
     88.6700	  564.00	  570.25	-1783.00	  405.13
     88.7700	  617.00	  573.75	-1733.50	  405.04
     88.8700	  623.00	  578.42	-1732.17	  404.95
     88.9700	  589.00	  583.79	-1771.54	  404.86
     89.0700	  628.00	  589.30	-1738.05	  404.77
     89.1700	  560.00	  594.33	-1811.08	  404.67
     89.2700	  631.00	  598.26	-1744.01	  404.57
     89.3700	  609.00	  600.56	-1768.31	  404.47
     89.4700	  589.00	  600.85	-1788.60	  404.37
     89.5700	  525.00	  599.05	-1850.80	  404.27
     89.6700	  541.00	  595.37	-1831.12	  404.17
     89.7700	  594.00	  590.22	-1772.97	  404.06
     89.8700	  561.00	  584.12	-1799.87	  403.96
     89.9700	  601.00	  577.57	-1753.32	  403.85
     90.0700	  574.00	  571.03	-1773.78	  403.74
     90.1700	  531.00	  564.84	-1810.59	  403.63
     90.2700	  506.00	  559.26	-1830.01	  403.52
     90.3700	  502.00	  554.45	-1829.20	  403.41
     90.4700	  542.00	  550.47	-1785.22	  403.29
     90.5700	  581.00	  547.31	-1743.06	  403.18
     90.6700	  574.00	  544.93	-1747.68	  403.06
     90.7700	  506.00	  543.22	-1813.97	  402.94
     90.8700	  499.00	  542.10	-1819.85	  402.82
     90.9700	  547.00	  541.47	-1771.22	  402.70
     91.0700	  539.00	  541.26	-1779.01	  402.57
     91.1700	  519.00	  541.44	-1799.19	  402.45
     91.2700	  532.00	  541.99	-1786.74	  402.32
     91.3700	  504.00	  542.96	-1815.71	  402.20
     91.4700	  544.00	  544.41	-1777.16	  402.07
     91.5700	  541.00	  546.46	-1782.21	  401.94
     91.6700	  567.00	  549.26	-1759.01	  401.81
     91.7700	  533.00	  552.99	-1796.74	  401.67
     91.8700	  570.00	  557.64	-1764.39	  401.54
     91.9700	  561.00	  563.83	-1779.58	  401.40
     92.0700	  546.00	  571.52	-1802.27	  401.27
     92.1700	  567.00	  580.83	-1790.58	  401.13
     92.2700	  570.00	  591.82	-1798.57	  400.99
     92.3700	  612.00	  604.41	-1769.16	  400.85
     92.4700	  656.00	  618.45	-1739.20	  400.71
     92.5700	  666.00	  633.62	-1744.37	  400.56
     92.6700	  655.00	  649.48	-1771.23	  400.42
     92.7700	  699.00	  665.49	-1743.24	  400.27
     92.8700	  689.00	  680.98	-1768.73	  400.12
     92.9700	  812.00	  695.30	-1660.05	  399.97
     93.0700	  736.00	  707.89	-1748.64	  399.82
     93.1700	  723.00	  718.48	-1772.23	  399.67
     93.2700	  752.00	  727.18	-1751.93	  399.52
     93.3700	  836.00	  734.43	-1675.18	  399.37
     93.4700	  829.00	  740.93	-1688.68	  399.21
     93.5700	  838.00	  747.41	-1686.16	  399.05
     93.6700	  836.00	  754.57	-1695.32	  398.90
     93.7700	  816.00	  762.97	-1723.72	  398.74
     93.8700	  834.00	  773.12	-1715.87	  398.58
     93.9700	  825.00	  785.42	-1737.17	  398.41
     94.0700	  840.00	  800.14	-1736.89	  398.25
     94.1700	  868.00	  817.28	-1726.03	  398.09
     94.2700	  889.00	  836.50	-1724.25	  397.92
     94.3700	  849.00	  857.04	-1784.79	  397.75
     94.4700	  908.00	  877.67	-1746.42	  397.59
     94.5700	  908.00	  896.77	-1765.52	  397.42
     94.6700	  868.00	  912.41	-1821.16	  397.25
     94.7700	  951.00	  922.65	-1748.40	  397.07
     94.8700	  894.00	  925.80	-1808.55	  396.90
     94.9700	  886.00	  920.91	-1811.66	  396.73
     95.0700	  893.00	  908.03	-1791.78	  396.55
     95.1700	  852.00	  888.17	-1812.92	  396.37
     95.2700	  791.00	  863.05	-1848.80	  396.20
     95.3700	  830.00	  834.71	-1781.46	  396.02
     95.4700	  790.00	  805.27	-1792.02	  395.84
     95.5700	  758.00	  776.74	-1795.49	  395.66
     95.6700	  737.00	  750.98	-1790.73	  395.47
     95.7700	  710.00	  729.63	-1796.38	  395.29
     95.8700	  699.00	  714.18	-1791.93	  395.11
     95.9700	  684.00	  705.91	-1798.66	  394.92
     96.0700	  683.00	  705.95	-1799.70	  394.73
     96.1700	  714.00	  715.23	-1777.98	  394.55
     96.2700	  709.00	  734.49	-1802.24	  394.36
     96.3700	  756.00	  764.20	-1784.95	  394.17
     96.4700	  759.00	  804.51	-1822.26	  393.98
     96.5700	  855.00	  855.13	-1776.88	  393.78
     96.6700	  925.00	  915.25	-1767.00	  393.59
     96.7700	  956.00	  983.40	-1804.15	  393.40
     96.8700	 1084.00	 1057.48	-1750.23	  393.20
     96.9700	 1124.00	 1134.60	-1787.35	  393.00
     97.0700	 1173.00	 1211.23	-1814.98	  392.81
     97.1700	 1193.00	 1283.22	-1866.97	  392.61
     97.2700	 1375.00	 1346.08	-1747.83	  392.41
     97.3700	 1358.00	 1395.27	-1814.02	  392.21
     97.4700	 1388.00	 1426.82	-1815.57	  392.01
     97.5700	 1401.00	 1438.09	-1813.84	  391.81
     97.6700	 1421.00	 1428.37	-1784.12	  391.60
     97.7700	 1327.00	 1399.01	-1848.76	  391.40
     97.8700	 1408.00	 1353.04	-1721.79	  391.19
     97.9700	 1290.00	 1294.49	-1781.24	  390.99
     98.0700	 1259.00	 1227.82	-1745.57	  390.78
     98.1700	 1112.00	 1157.35	-1822.10	  390.57
     98.2700	 1068.00	 1087.05	-1795.80	  390.36
     98.3700	 1098.00	 1020.38	-1699.13	  390.15
     98.4700	  978.00	  960.26	-1759.01	  389.94
     98.5700	  873.00	  909.00	-1812.75	  389.73
     98.6700	  835.00	  868.40	-1810.15	  389.52
     98.7700	  872.00	  839.79	-1744.54	  389.31
     98.8700	  757.00	  824.12	-1843.87	  389.09
     98.9700	  811.00	  822.04	-1787.79	  388.88
     99.0700	  807.00	  833.96	-1803.71	  388.66
     99.1700	  802.00	  860.12	-1834.87	  388.45
     99.2700	  862.00	  900.53	-1815.28	  388.23
     99.3700	  905.00	  954.99	-1826.74	  388.01
     99.4700	  995.00	 1023.02	-1804.77	  387.80
     99.5700	 1082.00	 1103.75	-1798.50	  387.58
     99.6700	 1131.00	 1195.88	-1841.63	  387.36
     99.7700	 1355.00	 1297.45	-1719.20	  387.14
     99.8700	 1373.00	 1405.92	-1809.67	  386.91
     99.9700	 1530.00	 1517.94	-1764.69	  386.69
    100.0700	 1623.00	 1629.59	-1783.34	  386.47
    100.1700	 1675.00	 1736.39	-1838.14	  386.25
    100.2700	 1847.00	 1833.78	-1763.53	  386.02
    100.3700	 2039.00	 1917.66	-1655.41	  385.80
    100.4700	 2016.00	 1984.69	-1745.44	  385.57
    100.5700	 2074.00	 2032.58	-1735.33	  385.35
    100.6700	 2125.00	 2059.83	-1711.58	  385.12
    100.7700	 2136.00	 2065.56	-1706.31	  384.90
    100.8700	 2098.00	 2049.52	-1728.27	  384.67
    100.9700	 2023.00	 2012.19	-1765.94	  384.44
    101.0700	 1931.00	 1955.25	-1801.00	  384.21
    101.1700	 1925.00	 1881.73	-1733.48	  383.98
    101.2700	 1808.00	 1795.95	-1764.70	  383.75
    101.3700	 1716.00	 1702.91	-1763.66	  383.52
    101.4700	 1669.00	 1607.75	-1715.50	  383.29
    101.5700	 1542.00	 1515.11	-1749.86	  383.06
    101.6700	 1462.00	 1428.82	-1743.57	  382.83
    101.7700	 1390.00	 1351.76	-1738.51	  382.60
    101.8700	 1299.00	 1285.63	-1763.38	  382.37
    101.9700	 1263.00	 1231.13	-1744.88	  382.14
    102.0700	 1154.00	 1187.88	-1810.63	  381.91
    102.1700	 1160.00	 1154.61	-1771.36	  381.67
    102.2700	 1189.00	 1129.31	-1717.06	  381.44
    102.3700	 1115.00	 1109.42	-1771.17	  381.21
    102.4700	 1042.00	 1092.16	-1826.91	  380.97
    102.5700	 1038.00	 1074.83	-1813.58	  380.74
    102.6700	 1103.00	 1055.17	-1728.92	  380.50
    102.7700	  943.00	 1031.65	-1865.40	  380.27
    102.8700	  936.00	 1003.61	-1844.36	  380.03
    102.9700	 1021.00	  971.21	-1726.96	  379.80
    103.0700	  963.00	  935.20	-1748.95	  379.56
    103.1700	  854.00	  896.68	-1819.43	  379.33
    103.2700	  816.00	  856.91	-1817.66	  379.09
    103.3700	  857.00	  817.14	-1736.89	  378.86
    103.4700	  795.00	  778.54	-1760.29	  378.62
    103.5700	  747.00	  742.07	-1771.82	  378.39
    103.6700	  700.00	  708.52	-1785.27	  378.15
    103.7700	  666.00	  678.41	-1789.16	  377.92
    103.8700	  638.00	  652.07	-1790.82	  377.68
    103.9700	  596.00	  629.59	-1810.34	  377.44
    104.0700	  590.00	  610.88	-1797.63	  377.21
    104.1700	  581.00	  595.73	-1791.48	  376.97
    104.2700	  566.00	  583.81	-1794.56	  376.74
    104.3700	  596.00	  574.75	-1755.50	  376.50
    104.4700	  564.00	  568.15	-1780.90	  376.26
    104.5700	  556.00	  563.62	-1784.37	  376.03
    104.6700	  512.00	  560.79	-1825.54	  375.79
    104.7700	  556.00	  559.34	-1780.09	  375.56
    104.8700	  529.00	  558.97	-1806.72	  375.32
    104.9700	  513.00	  559.43	-1823.18	  375.09
    105.0700	  545.00	  560.55	-1792.30	  374.85
    105.1700	  520.00	  562.16	-1818.91	  374.62
    105.2700	  502.00	  564.15	-1838.90	  374.38
    105.3700	  511.00	  566.42	-1832.17	  374.15
    105.4700	  548.00	  568.97	-1797.72	  373.92
    105.5700	  560.00	  571.80	-1788.55	  373.68
    105.6700	  531.00	  574.98	-1820.73	  373.45
    105.7700	  558.00	  578.59	-1797.34	  373.22
    105.8700	  594.00	  582.76	-1765.51	  372.99
    105.9700	  541.00	  587.61	-1823.36	  372.75
    106.0700	  564.00	  593.24	-1805.99	  372.52
    106.1700	  613.00	  599.72	-1763.47	  372.29
    106.2700	  593.00	  607.05	-1790.80	  372.06
    106.3700	  577.00	  615.17	-1814.92	  371.83
    106.4700	  635.00	  623.96	-1765.71	  371.60
    106.5700	  650.00	  633.22	-1759.97	  371.37
    106.6700	  602.00	  642.68	-1817.43	  371.14
    106.7700	  600.00	  652.02	-1828.77	  370.92
    106.8700	  602.00	  660.87	-1835.62	  370.69
    106.9700	  650.00	  668.87	-1795.62	  370.46
    107.0700	  653.00	  675.64	-1799.39	  370.24
    107.1700	  679.00	  680.90	-1778.65	  370.01
    107.2700	  667.00	  684.48	-1794.23	  369.79
    107.3700	  681.00	  686.37	-1782.12	  369.56
    107.4700	  659.00	  686.74	-1804.49	  369.34
    107.5700	  683.00	  685.89	-1779.64	  369.12
    107.6700	  692.00	  684.25	-1769.00	  368.90
    107.7700	  702.00	  682.23	-1756.98	  368.67
    107.8700	  639.00	  680.26	-1818.01	  368.45
    107.9700	  678.00	  678.69	-1777.44	  368.24
    108.0700	  693.00	  677.77	-1761.52	  368.02
    108.1700	  693.00	  677.65	-1761.40	  367.80
    108.2700	  696.00	  678.33	-1759.08	  367.58
    108.3700	  668.00	  679.73	-1788.48	  367.37
    108.4700	  693.00	  681.62	-1765.37	  367.15
    108.5700	  684.00	  683.70	-1776.45	  366.94
    108.6700	  704.00	  685.57	-1758.32	  366.73
    108.7700	  745.00	  686.82	-1718.57	  366.52
    108.8700	  625.00	  687.01	-1838.76	  366.31
    108.9700	  707.00	  685.79	-1755.54	  366.10
    109.0700	  680.00	  682.91	-1779.66	  365.89
    109.1700	  685.00	  678.27	-1770.02	  365.69
    109.2700	  678.00	  671.90	-1770.65	  365.48
    109.3700	  658.00	  664.01	-1782.76	  365.28
    109.4700	  653.00	  654.88	-1778.62	  365.07
    109.5700	  648.00	  644.83	-1773.58	  364.87
    109.6700	  636.00	  634.24	-1774.99	  364.67
    109.7700	  636.00	  623.47	-1764.22	  364.47
    109.8700	  662.00	  612.83	-1727.58	  364.28
    109.9700	  684.00	  602.61	-1695.36	  364.08
    110.0700	  637.00	  593.05	-1732.80	  363.89
    110.1700	  555.00	  584.34	-1806.09	  363.69
    110.2700	  524.00	  576.60	-1829.35	  363.50
    110.3700	  565.00	  569.89	-1781.64	  363.31
    110.4700	  575.00	  564.25	-1766.00	  363.13
    110.5700	  554.00	  559.65	-1782.40	  362.94
    110.6700	  545.00	  556.04	-1787.79	  362.75
    110.7700	  523.00	  553.35	-1807.10	  362.57
    110.8700	  560.00	  551.48	-1768.23	  362.39
    110.9700	  575.00	  550.34	-1752.09	  362.21
    111.0700	  546.00	  549.84	-1780.59	  362.03
    111.1700	  558.00	  549.88	-1768.63	  361.85
    111.2700	  503.00	  550.38	-1824.13	  361.68
    111.3700	  534.00	  551.28	-1794.03	  361.51
    111.4700	  514.00	  552.52	-1815.27	  361.34
    111.5700	  557.00	  554.06	-1773.81	  361.17
    111.6700	  583.00	  555.85	-1749.60	  361.00
    111.7700	  590.00	  557.87	-1744.62	  360.84
    111.8700	  543.00	  560.12	-1793.87	  360.67
    111.9700	  507.00	  562.59	-1832.34	  360.51
    112.0700	  565.00	  565.27	-1777.02	  360.35
    112.1700	  557.00	  568.19	-1787.94	  360.20
    112.2700	  593.00	  571.35	-1755.10	  360.04
    112.3700	  615.00	  574.80	-1736.55	  359.89
    112.4700	  568.00	  578.56	-1787.31	  359.74
    112.5700	  531.00	  582.68	-1828.43	  359.59
    112.6700	  649.00	  587.23	-1714.98	  359.44
    112.7700	  638.00	  592.30	-1731.05	  359.30
    112.8700	  670.00	  597.99	-1704.74	  359.16
    112.9700	  666.00	  604.46	-1715.21	  359.02
    113.0700	  756.00	  611.87	-1632.62	  358.88
    113.1700	  738.00	  620.50	-1659.25	  358.75
    113.2700	  788.00	  630.65	-1619.41	  358.62
    113.3700	  819.00	  642.74	-1600.49	  358.49
    113.4700	  789.00	  657.27	-1645.02	  358.36
    113.5700	  790.00	  674.88	-1661.63	  358.24
    113.6700	  918.00	  696.37	-1555.12	  358.12
    113.7700	  934.00	  722.70	-1565.45	  358.00
    113.8700	  988.00	  755.05	-1543.80	  357.88
    113.9700	  983.00	  794.78	-1588.53	  357.77
    114.0700	 1040.00	  843.48	-1580.23	  357.66
    114.1700	 1098.00	  902.94	-1581.69	  357.55
    114.2700	 1149.00	  975.18	-1602.93	  357.45
    114.3700	 1223.00	 1062.38	-1616.13	  357.34
    114.4700	 1308.00	 1166.84	-1635.59	  357.24
    114.5700	 1437.00	 1290.91	-1630.66	  357.15
    114.6700	 1537.00	 1436.87	-1676.62	  357.05
    114.7700	 1755.00	 1606.88	-1628.63	  356.96
    114.8700	 2014.00	 1802.81	-1565.56	  356.88
    114.9700	 2209.00	 2026.06	-1593.81	  356.79
    115.0700	 2336.00	 2277.42	-1718.17	  356.71
    115.1700	 2537.00	 2556.89	-1796.64	  356.63
    115.2700	 2892.00	 2863.65	-1748.40	  356.56
    115.3700	 3131.00	 3195.84	-1841.59	  356.49
    115.4700	 3424.00	 3550.38	-1903.13	  356.42
    115.5700	 3806.00	 3923.04	-1893.79	  356.35
    115.6700	 4085.00	 4308.28	-2000.03	  356.29
    115.7700	 4457.00	 4699.46	-2019.21	  356.23
    115.8700	 4665.00	 5088.72	-2200.47	  356.18
    115.9700	 5094.00	 5467.04	-2149.79	  356.13
    116.0700	 5528.00	 5824.51	-2073.26	  356.08
    116.1700	 5996.00	 6150.49	-1931.24	  356.04
    116.2700	 6392.00	 6434.20	-1818.95	  356.00
    116.3700	 6591.00	 6665.18	-1850.93	  355.96
    116.4700	 6828.00	 6833.96	-1782.71	  355.93
    116.5700	 6930.00	 6933.20	-1779.95	  355.90
    116.6700	 7107.00	 6958.42	-1628.17	  355.87
    116.7700	 6964.00	 6908.62	-1721.37	  355.85
    116.8700	 6887.00	 6786.36	-1676.11	  355.83
    116.9700	 6661.00	 6597.50	-1713.25	  355.82
    117.0700	 6576.00	 6350.38	-1551.13	  355.80
    117.1700	 6202.00	 6055.03	-1629.78	  355.80
    117.2700	 5651.00	 5722.09	-1847.84	  355.80
    117.3700	 5283.00	 5362.22	-1855.97	  355.80
    117.4700	 5093.00	 4985.71	-1669.46	  355.80
    117.5700	 4628.00	 4601.98	-1750.73	  355.81
    117.6700	 4447.00	 4219.49	-1549.24	  355.83
    117.7700	 4133.00	 3845.41	-1489.16	  355.84
    117.8700	 3638.00	 3485.69	-1624.44	  355.87
    117.9700	 3270.00	 3145.16	-1651.91	  355.89
    118.0700	 2942.00	 2827.38	-1662.13	  355.92
    118.1700	 2497.00	 2534.81	-1814.56	  355.96
    118.2700	 2184.00	 2268.75	-1861.50	  356.00
    118.3700	 2015.00	 2029.60	-1791.35	  356.04
    118.4700	 1746.00	 1817.05	-1847.80	  356.09
    118.5700	 1512.00	 1630.10	-1894.85	  356.15
    118.6700	 1352.00	 1467.30	-1892.05	  356.20
    118.7700	 1213.00	 1326.78	-1890.53	  356.27
    118.8700	 1074.00	 1206.47	-1909.22	  356.33
    118.9700	  999.00	 1104.26	-1882.01	  356.41
    119.0700	  913.00	 1017.96	-1881.71	  356.48
    119.1700	  833.00	  945.52	-1889.27	  356.57
    119.2700	  805.00	  884.95	-1856.70	  356.65
    119.3700	  757.00	  834.48	-1854.23	  356.74
    119.4700	  687.00	  792.52	-1882.27	  356.84
    119.5700	  713.00	  757.67	-1821.42	  356.94
    119.6700	  604.00	  728.74	-1901.49	  357.05
    119.7700	  666.00	  704.69	-1815.44	  357.16
    119.8700	  624.00	  684.68	-1837.43	  357.28
    119.9700	  617.00	  667.99	-1827.74	  357.40
    120.0700	  564.00	  654.06	-1866.81	  357.53
    120.1700	  646.00	  642.41	-1773.16	  357.66
    120.2700	  602.00	  632.65	-1807.40	  357.80
    120.3700	  598.00	  624.50	-1803.25	  357.94
    120.4700	  603.00	  617.70	-1791.45	  358.09
    120.5700	  565.00	  612.06	-1823.81	  358.24
    120.6700	  574.00	  607.45	-1810.20	  358.40
    120.7700	  580.00	  603.73	-1800.48	  358.57
    120.8700	  610.00	  600.83	-1767.58	  358.74
    120.9700	  594.00	  598.66	-1781.41	  358.92
    121.0700	  558.00	  597.18	-1815.93	  359.10
    121.1700	  499.00	  596.34	-1874.09	  359.29
    121.2700	  637.00	  596.10	-1735.85	  359.48
    121.3700	  537.00	  596.42	-1836.17	  359.68
    121.4700	  550.00	  597.25	-1824.00	  359.89
    121.5700	  608.00	  598.55	-1767.30	  360.10
    121.6700	  585.00	  600.28	-1792.03	  360.32
    121.7700	  612.00	  602.35	-1767.10	  360.54
    121.8700	  645.00	  604.74	-1736.49	  360.77
    121.9700	  566.00	  607.36	-1818.11	  361.01
    122.0700	  632.00	  610.12	-1754.87	  361.25
    122.1700	  640.00	  612.95	-1749.70	  361.50
    122.2700	  624.00	  615.73	-1768.48	  361.76
    122.3700	  592.00	  618.38	-1803.13	  362.02
    122.4700	  641.00	  620.81	-1756.56	  362.29
    122.5700	  608.00	  622.91	-1791.66	  362.56
    122.6700	  655.00	  624.60	-1746.35	  362.85
    122.7700	  633.00	  625.80	-1769.55	  363.13
    122.8700	  631.00	  626.48	-1772.23	  363.43
    122.9700	  661.00	  626.58	-1742.33	  363.73
    123.0700	  639.00	  626.13	-1763.88	  364.04
    123.1700	  671.00	  625.12	-1730.87	  364.35
    123.2700	  648.00	  623.60	-1752.35	  364.68
    123.3700	  678.00	  621.63	-1720.38	  365.01
    123.4700	  621.00	  619.26	-1775.01	  365.34
    123.5700	  613.00	  616.57	-1780.32	  365.68
    123.6700	  646.00	  613.61	-1744.36	  366.03
    123.7700	  636.00	  610.47	-1751.22	  366.39
    123.8700	  634.00	  607.21	-1749.96	  366.76
    123.9700	  657.00	  603.88	-1723.63	  367.13
    124.0700	  670.00	  600.55	-1707.30	  367.51
    124.1700	  573.00	  597.26	-1801.01	  367.89
    124.2700	  609.00	  594.06	-1761.81	  368.29
    124.3700	  612.00	  590.98	-1755.73	  368.69
    124.4700	  618.00	  588.05	-1746.80	  369.10
    124.5700	  537.00	  585.29	-1825.04	  369.52
    124.6700	  572.00	  582.72	-1787.47	  369.94
    124.7700	  591.00	  580.35	-1766.10	  370.37
    124.8700	  579.00	  578.18	-1775.93	  370.81
    124.9700	  604.00	  489.86	-1662.61	  371.26
    125.0700	  583.00	  490.32	-1776.75	  371.72
    125.1700	  563.00	  490.78	-1776.75	  372.18
    125.2700	  592.00	  491.25	-1776.75	  372.65
    125.3700	  578.00	  491.73	-1776.75	  373.13
    125.4700	  555.00	  492.22	-1776.75	  373.62
    125.5700	  573.00	  492.72	-1776.75	  374.12
    125.6700	  586.00	  493.22	-1776.75	  374.62
    125.7700	  531.00	  493.73	-1776.75	  375.13
    125.8700	  551.00	  494.25	-1776.75	  375.66
    125.9700	  562.00	  494.78	-1776.75	  376.19
    126.0700	  549.00	  495.32	-1776.75	  376.72
    126.1700	  593.00	  495.87	-1776.75	  377.27
    126.2700	  571.00	  496.42	-1776.75	  377.83
    126.3700	  613.00	  496.99	-1776.75	  378.39
    126.4700	  613.00	  497.56	-1776.75	  378.96
    126.5700	  594.00	  498.14	-1776.75	  379.54
    126.6700	  609.00	  498.73	-1776.75	  380.14
    126.7700	  643.00	  499.33	-1776.75	  380.73
    126.8700	  623.00	  499.94	-1776.75	  381.34
    126.9700	  595.00	  500.56	-1776.75	  381.96
    127.0700	  635.00	  501.19	-1776.75	  382.59
    127.1700	  658.00	  501.82	-1776.75	  383.22
    127.2700	  646.00	  502.47	-1776.75	  383.87
    127.3700	  626.00	  503.12	-1776.75	  384.52
    127.4700	  638.00	  503.79	-1776.75	  385.19
    127.5700	  730.00	  504.46	-1776.75	  385.86
    127.6700	  678.00	  505.14	-1776.75	  386.54
    127.7700	  704.00	  505.83	-1776.75	  387.24
    127.8700	  754.00	  506.54	-1776.75	  387.94
    127.9700	  749.00	  507.25	-1776.75	  388.65
    128.0700	  757.00	  507.97	-1776.75	  389.37
    128.1700	  808.00	  508.70	-1776.75	  390.10
    128.2700	  717.00	  509.44	-1776.75	  390.84
    128.3700	  773.00	  510.19	-1776.75	  391.60
    128.4700	  777.00	  510.96	-1776.75	  392.36
    128.5700	    0.00	  511.73	-1776.75	  393.13
    128.6700	    0.00	  512.51	-1776.75	  393.91
     12.3116	        	        	        	        	       0	(  0  0  2)	  0  1
     24.8946	        	        	        	        	       0	(  0  0  4)	  0  1
     28.3354	        	        	        	        	       0	(  1  0  0)	  0  1
     29.0326	        	        	        	        	       0	(  1  0  1)	  0  1
     31.0388	        	        	        	        	       0	(  1  0  2)	  0  1
     34.1472	        	        	        	        	       0	(  1  0  3)	  0  1
     37.7934	        	        	        	        	       0	(  0  0  6)	  0  1
     38.1242	        	        	        	        	       0	(  1  0  4)	  0  1
     42.7742	        	        	        	        	       0	(  1  0  5)	  0  1
     47.9581	        	        	        	        	       0	(  1  0  6)	  0  1
     50.2712	        	        	        	        	       0	(  1  1  0)	  0  1
     51.2145	        	        	        	        	       0	(  0  0  8)	  0  1
     51.9942	        	        	        	        	       0	(  1  1  2)	  0  1
     53.5884	        	        	        	        	       0	(  1  0  7)	  0  1
     56.9420	        	        	        	        	       0	(  1  1  4)	  0  1
     58.7676	        	        	        	        	       0	(  2  0  0)	  0  1
     59.1592	        	        	        	        	       0	(  2  0  1)	  0  1
     59.6185	        	        	        	        	       0	(  1  0  8)	  0  1
     60.3246	        	        	        	        	       0	(  2  0  2)	  0  1
     62.2378	        	        	        	        	       0	(  2  0  3)	  0  1
     64.6364	        	        	        	        	       0	(  1  1  6)	  0  1
     64.8618	        	        	        	        	       0	(  2  0  4)	  0  1
     65.4428	        	        	        	        	       0	(  0  0 10)	  0  1
     66.0345	        	        	        	        	       0	(  1  0  9)	  0  1
     68.1559	        	        	        	        	       0	(  2  0  5)	  0  1
     72.0833	        	        	        	        	       0	(  2  0  6)	  0  1
     72.8501	        	        	        	        	       0	(  1  0 10)	  0  1
     74.6737	        	        	        	        	       0	(  1  1  8)	  0  1
     76.6172	        	        	        	        	       0	(  2  0  7)	  0  1
     80.1072	        	        	        	        	       0	(  1  0 11)	  0  1
     80.9219	        	        	        	        	       0	(  0  0 12)	  0  1
     81.0073	        	        	        	        	       0	(  2  1  0)	  0  1
     81.3471	        	        	        	        	       0	(  2  1  1)	  0  1
     81.7471	        	        	        	        	       0	(  2  0  8)	  0  1
     82.3649	        	        	        	        	       0	(  2  1  2)	  0  1
     84.0562	        	        	        	        	       0	(  2  1  3)	  0  1
     86.4157	        	        	        	        	       0	(  2  1  4)	  0  1
     86.9442	        	        	        	        	       0	(  1  1 10)	  0  1
     87.4847	        	        	        	        	       0	(  2  0  9)	  0  1
     87.8808	        	        	        	        	       0	(  1  0 12)	  0  1
     89.4413	        	        	        	        	       0	(  2  1  5)	  0  1
     93.1384	        	        	        	        	       0	(  2  1  6)	  0  1
     93.8716	        	        	        	        	       0	(  2  0 10)	  0  1
     94.8949	        	        	        	        	       0	(  3  0  0)	  0  1
     95.2322	        	        	        	        	       0	(  3  0  1)	  0  1
     96.2453	        	        	        	        	       0	(  3  0  2)	  0  1
     96.2932	        	        	        	        	       0	(  1  0 13)	  0  1
     97.5266	        	        	        	        	       0	(  2  1  7)	  0  1
     97.9385	        	        	        	        	       0	(  3  0  3)	  0  1
     98.4595	        	        	        	        	       0	(  0  0 14)	  0  1
    100.3213	        	        	        	        	       0	(  3  0  4)	  0  1
    100.9928	        	        	        	        	       0	(  2  0 11)	  0  1
    101.8132	        	        	        	        	       0	(  1  1 12)	  0  1
    102.6486	        	        	        	        	       0	(  2  1  8)	  0  1
    103.4126	        	        	        	        	       0	(  3  0  5)	  0  1
    105.5449	        	        	        	        	       0	(  1  0 14)	  0  1
    107.2473	        	        	        	        	       0	(  3  0  6)	  0  1
    108.5847	        	        	        	        	       0	(  2  1  9)	  0  1
    109.0031	        	        	        	        	       0	(  2  0 12)	  0  1
    111.8870	        	        	        	        	       0	(  3  0  7)	  0  1
    115.4807	        	        	        	        	       0	(  2  1 10)	  0  1
    115.9870	        	        	        	        	       0	(  1  0 15)	  0  1
    116.6173	        	        	        	        	       0	(  2  2  0)	  0  1
    117.4396	        	        	        	        	       0	(  3  0  8)	  0  1
    118.1322	        	        	        	        	       0	(  2  2  2)	  0  1
    118.1863	        	        	        	        	       0	(  2  0 13)	  0  1
    119.9452	        	        	        	        	       0	(  0  0 16)	  0  1
    120.6550	        	        	        	        	       0	(  1  1 14)	  0  1
    122.8169	        	        	        	        	       0	(  2  2  4)	  0  1
    123.6065	        	        	        	        	       0	(  2  1 11)	  0  1
    124.0985	        	        	        	        	       0	(  3  0  9)	  0  1
    124.6811	        	        	        	        	       0	(  3  1  0)	  0  1
    125.0913	        	        	        	        	       0	(  3  1  1)	  0  1
    126.3345	        	        	        	        	       0	(  3  1  2)	  0  1
    128.3288	        	        	        	        	       0	(  1  0 16)	  0  1
    128.4522	        	        	        	        	       0	(  3  1  3)	  0  1
    129.1147	        	        	        	        	       0	(  2  0 14)	  0  1
    131.2550	        	        	        	        	       0	(  2  2  6)	  0  1
    131.5275	        	        	        	        	       0	(  3  1  4)	  0  1
    132.2376	        	        	        	        	       0	(  3  0 10)	  0  1
    133.5171	        	        	        	        	       0	(  2  1 12)	  0  1
    135.7134	        	        	        	        	       0	(  3  1  5)	  0  1
    141.3072	        	        	        	        	       0	(  3  1  6)	  0  1
    142.7142	        	        	        	        	       0	(  3  0 11)	  0  1
    143.2534	        	        	        	        	       0	(  2  0 15)	  0  1
    144.4983	        	        	        	        	       0	(  1  0 17)	  0  1
    145.4851	        	        	        	        	       0	(  2  2  8)	  0  1
    146.6709	        	        	        	        	       0	(  2  1 13)	  0  1
    148.9776	        	        	        	        	       0	(  3  1  7)	  0  1
    149.5895	        	        	        	        	       0	(  1  1 16)	  0  1
    153.9995	        	        	        	        	       0	(  0  0 18)	  0  1
    158.5901	        	        	        	        	       0	(  3  0 12)	  0  1
    158.8236	        	        	        	        	       0	(  4  0  0)	  0  1
    159.7795	        	        	        	        	       0	(  4  0  1)	  0  1
    160.9648	        	        	        	        	       0	(  3  1  8)	  0  1
    162.9542	        	        	        	        	       0	(  4  0  2)	  0  1
    169.7196	        	        	        	        	       0	(  2  0 16)	  0  1
    170.2825	        	        	        	        	       0	(  4  0  3)	  0  1
    174.1495	        	        	        	        	       0	(  2  1 14)	  0  1
