MSG Master    CELL:    5.91847   5.91847  23.26289   90.0000   90.0000  120.0000   SPGR: P 63/m m c             TEMP:   1056.75
  1   1280     2.52000     0.00000    -0.13059     0.00000     0.00000    0
    99     0     2
       0.00000      10.00000
     125.00000     130.00000
 2Theta	Yobs	Ycal	Yobs-Ycal	Backg	Posr	(hkl)	K
      0.7700	    0.00	  580.33	-1746.25	  463.70
      0.8700	    0.00	  580.62	-1746.25	  464.00
      0.9700	   41.00	  580.91	-1746.25	  464.29
      1.0700	   47.00	  581.19	-1746.25	  464.56
      1.1700	   45.00	  581.46	-1746.25	  464.84
      1.2700	   44.00	  581.73	-1746.25	  465.10
      1.3700	   40.00	  581.98	-1746.25	  465.36
      1.4700	   92.00	  582.23	-1746.25	  465.61
      1.5700	  296.00	  582.48	-1746.25	  465.85
      1.6700	  476.00	  582.71	-1746.25	  466.09
      1.7700	  588.00	  582.94	-1746.25	  466.32
      1.8700	  615.00	  583.16	-1746.25	  466.54
      1.9700	  745.00	  583.38	-1746.25	  466.75
      2.0700	  755.00	  583.58	-1746.25	  466.96
      2.1700	  797.00	  583.79	-1746.25	  467.16
      2.2700	  798.00	  583.98	-1746.25	  467.36
      2.3700	  746.00	  584.17	-1746.25	  467.54
      2.4700	  725.00	  584.35	-1746.25	  467.72
      2.5700	  695.00	  584.52	-1746.25	  467.90
      2.6700	  665.00	  584.69	-1746.25	  468.07
      2.7700	  655.00	  584.85	-1746.25	  468.23
      2.8700	  631.00	  585.01	-1746.25	  468.38
      2.9700	  656.00	  585.16	-1746.25	  468.53
      3.0700	  588.00	  585.30	-1746.25	  468.67
      3.1700	  584.00	  585.43	-1746.25	  468.81
      3.2700	  635.00	  585.56	-1746.25	  468.94
      3.3700	  648.00	  585.69	-1746.25	  469.06
      3.4700	  726.00	  585.80	-1746.25	  469.18
      3.5700	  821.00	  585.92	-1746.25	  469.29
      3.6700	  837.00	  586.02	-1746.25	  469.40
      3.7700	  978.00	  586.12	-1746.25	  469.49
      3.8700	  891.00	  586.21	-1746.25	  469.59
      3.9700	  986.00	  586.30	-1746.25	  469.68
      4.0700	 1051.00	  586.38	-1746.25	  469.76
      4.1700	 1017.00	  586.46	-1746.25	  469.83
      4.2700	 1066.00	  586.53	-1746.25	  469.90
      4.3700	 1094.00	  586.59	-1746.25	  469.97
      4.4700	 1080.00	  586.65	-1746.25	  470.02
      4.5700	 1057.00	  586.70	-1746.25	  470.08
      4.6700	 1011.00	  586.75	-1746.25	  470.13
      4.7700	 1020.00	  586.79	-1746.25	  470.17
      4.8700	 1016.00	  586.83	-1746.25	  470.20
      4.9700	  938.00	  586.86	-1746.25	  470.23
      5.0700	  933.00	  586.89	-1746.25	  470.26
      5.1700	  941.00	  586.91	-1746.25	  470.28
      5.2700	  869.00	  586.92	-1746.25	  470.30
      5.3700	  879.00	  586.93	-1746.25	  470.31
      5.4700	  851.00	  586.94	-1746.25	  470.31
      5.5700	  885.00	  586.94	-1746.25	  470.31
      5.6700	  830.00	  586.93	-1746.25	  470.31
      5.7700	  851.00	  586.92	-1746.25	  470.29
      5.8700	  779.00	  586.90	-1746.25	  470.28
      5.9700	  847.00	  586.88	-1746.25	  470.26
      6.0700	  778.00	  586.86	-1746.25	  470.23
      6.1700	  793.00	  586.83	-1746.25	  470.20
      6.2700	  772.00	  586.79	-1746.25	  470.17
      6.3700	  725.00	  586.75	-1746.25	  470.13
      6.4700	  778.00	  586.71	-1746.25	  470.09
      6.5700	  733.00	  586.66	-1746.25	  470.04
      6.6700	  764.00	  586.61	-1746.25	  469.98
      6.7700	  755.00	  586.55	-1746.25	  469.93
      6.8700	  718.00	  586.49	-1746.25	  469.86
      6.9700	  727.00	  586.42	-1746.25	  469.80
      7.0700	  695.00	  586.35	-1746.25	  469.72
      7.1700	  690.00	  586.27	-1746.25	  469.65
      7.2700	  711.00	  586.19	-1746.25	  469.57
      7.3700	  659.00	  586.11	-1746.25	  469.48
      7.4700	  659.00	  586.02	-1746.25	  469.39
      7.5700	  662.00	  585.93	-1746.25	  469.30
      7.6700	  647.00	  585.83	-1746.25	  469.20
      7.7700	  648.00	  585.73	-1746.25	  469.10
      7.8700	  626.00	  585.62	-1746.25	  469.00
      7.9700	  675.00	  585.51	-1746.25	  468.89
      8.0700	  612.00	  585.40	-1746.25	  468.78
      8.1700	  664.00	  585.28	-1746.25	  468.66
      8.2700	  639.00	  585.16	-1746.25	  468.54
      8.3700	  611.00	  585.04	-1746.25	  468.41
      8.4700	  631.00	  584.91	-1746.25	  468.28
      8.5700	  622.00	  584.77	-1746.25	  468.15
      8.6700	  602.00	  584.64	-1746.25	  468.01
      8.7700	  637.00	  584.50	-1746.25	  467.87
      8.8700	  622.00	  584.35	-1746.25	  467.73
      8.9700	  612.00	  584.21	-1746.25	  467.58
      9.0700	  600.00	  584.05	-1746.25	  467.43
      9.1700	  576.00	  583.90	-1746.25	  467.28
      9.2700	  608.00	  583.74	-1746.25	  467.12
      9.3700	  641.00	  583.58	-1746.25	  466.96
      9.4700	  670.00	  583.41	-1746.25	  466.79
      9.5700	  579.00	  583.25	-1746.25	  466.62
      9.6700	  608.00	  583.07	-1746.25	  466.45
      9.7700	  588.00	  582.90	-1746.25	  466.27
      9.8700	  609.00	  582.72	-1746.25	  466.10
      9.9700	  628.00	  582.54	-1746.25	  465.91
     10.0700	  648.00	  583.01	-1681.26	  465.73
     10.1700	  654.00	  582.89	-1675.14	  465.54
     10.2700	  596.00	  582.78	-1733.03	  465.35
     10.3700	  623.00	  582.69	-1705.94	  465.16
     10.4700	  614.00	  582.64	-1714.89	  464.96
     10.5700	  627.00	  582.69	-1701.94	  464.76
     10.6700	  563.00	  582.93	-1766.18	  464.56
     10.7700	  590.00	  583.46	-1739.71	  464.35
     10.8700	  555.00	  584.36	-1775.61	  464.14
     10.9700	  556.00	  585.61	-1775.86	  463.93
     11.0700	  562.00	  587.18	-1771.43	  463.71
     11.1700	  589.00	  589.05	-1746.30	  463.50
     11.2700	  612.00	  591.26	-1725.51	  463.28
     11.3700	  636.00	  593.88	-1704.13	  463.05
     11.4700	  552.00	  597.03	-1791.28	  462.83
     11.5700	  653.00	  600.89	-1694.14	  462.60
     11.6700	  574.00	  605.78	-1778.03	  462.37
     11.7700	  649.00	  612.28	-1709.53	  462.13
     11.8700	  612.00	  621.33	-1755.58	  461.90
     11.9700	  655.00	  633.85	-1725.10	  461.66
     12.0700	  641.00	  648.69	-1753.94	  461.42
     12.1700	  680.00	  659.70	-1725.95	  461.18
     12.2700	  678.00	  656.64	-1724.89	  460.93
     12.3700	  632.00	  636.21	-1750.46	  460.68
     12.4700	  639.00	  611.41	-1718.66	  460.43
     12.5700	  612.00	  593.84	-1728.09	  460.18
     12.6700	  595.00	  584.83	-1736.08	  459.92
     12.7700	  599.00	  580.99	-1728.24	  459.67
     12.8700	  598.00	  579.28	-1727.53	  459.41
     12.9700	  580.00	  578.27	-1744.52	  459.14
     13.0700	  553.00	  577.53	-1770.78	  458.88
     13.1700	  545.00	  576.92	-1778.17	  458.62
     13.2700	  537.00	  576.40	-1785.65	  458.35
     13.3700	  599.00	  575.93	-1723.18	  458.08
     13.4700	  503.00	  575.51	-1818.76	  457.81
     13.5700	  534.00	  575.11	-1787.36	  457.53
     13.6700	  570.00	  574.74	-1750.99	  457.26
     13.7700	  552.00	  574.38	-1768.63	  456.98
     13.8700	  542.00	  574.03	-1778.28	  456.70
     13.9700	  550.00	  573.69	-1769.94	  456.42
     14.0700	  548.00	  573.36	-1771.61	  456.13
     14.1700	  600.00	  573.04	-1719.29	  455.85
     14.2700	  533.00	  572.71	-1785.96	  455.56
     14.3700	  578.00	  572.39	-1740.64	  455.27
     14.4700	  552.00	  572.08	-1766.33	  454.98
     14.5700	  563.00	  571.76	-1755.01	  454.69
     14.6700	  603.00	  571.45	-1714.70	  454.40
     14.7700	  604.00	  571.13	-1713.38	  454.10
     14.8700	  575.00	  570.82	-1742.07	  453.81
     14.9700	  547.00	  570.51	-1769.76	  453.51
     15.0700	  576.00	  570.19	-1740.44	  453.21
     15.1700	  613.00	  569.88	-1703.13	  452.91
     15.2700	  545.00	  569.57	-1770.82	  452.61
     15.3700	  565.00	  569.25	-1750.50	  452.30
     15.4700	  601.00	  568.94	-1714.19	  452.00
     15.5700	  563.00	  568.62	-1751.87	  451.69
     15.6700	  550.00	  568.31	-1764.56	  451.38
     15.7700	  585.00	  567.99	-1729.24	  451.07
     15.8700	  539.00	  567.68	-1774.93	  450.76
     15.9700	  561.00	  567.36	-1752.61	  450.45
     16.0700	  565.00	  567.04	-1748.29	  450.14
     16.1700	  580.00	  566.72	-1732.97	  449.82
     16.2700	  561.00	  566.40	-1751.65	  449.51
     16.3700	  550.00	  566.08	-1762.33	  449.19
     16.4700	  531.00	  565.76	-1781.01	  448.87
     16.5700	  567.00	  565.46	-1744.71	  448.56
     16.6700	  560.00	  565.14	-1751.39	  448.24
     16.7700	  599.00	  564.82	-1712.07	  447.92
     16.8700	  555.00	  564.49	-1755.74	  447.59
     16.9700	  544.00	  564.17	-1766.42	  447.27
     17.0700	  543.00	  563.84	-1767.09	  446.95
     17.1700	  574.00	  563.52	-1735.77	  446.62
     17.2700	  550.00	  563.19	-1759.44	  446.30
     17.3700	  531.00	  562.86	-1778.11	  445.97
     17.4700	  534.00	  562.53	-1774.78	  445.65
     17.5700	  573.00	  562.20	-1735.45	  445.32
     17.6700	  549.00	  561.88	-1759.13	  444.99
     17.7700	  550.00	  561.55	-1757.80	  444.66
     17.8700	  567.00	  561.32	-1740.57	  444.33
     17.9700	  587.00	  560.99	-1720.24	  444.00
     18.0700	  550.00	  560.66	-1756.91	  443.67
     18.1700	  547.00	  560.33	-1759.58	  443.34
     18.2700	  540.00	  560.00	-1766.25	  443.00
     18.3700	  537.00	  559.67	-1768.92	  442.67
     18.4700	  565.00	  559.34	-1740.59	  442.34
     18.5700	  552.00	  559.01	-1753.26	  442.00
     18.6700	  536.00	  558.67	-1768.92	  441.67
     18.7700	  570.00	  558.34	-1734.59	  441.33
     18.8700	  549.00	  558.10	-1755.35	  441.00
     18.9700	  565.00	  557.77	-1739.02	  440.66
     19.0700	  549.00	  557.43	-1754.68	  440.32
     19.1700	  516.00	  557.10	-1787.35	  439.99
     19.2700	  568.00	  556.77	-1735.02	  439.65
     19.3700	  591.00	  556.44	-1711.69	  439.31
     19.4700	  569.00	  556.11	-1733.36	  438.97
     19.5700	  568.00	  555.78	-1734.03	  438.63
     19.6700	  525.00	  555.45	-1776.70	  438.29
     19.7700	  508.00	  555.11	-1793.36	  437.95
     19.8700	  533.00	  554.78	-1768.03	  437.61
     19.9700	  581.00	  554.45	-1719.70	  437.28
     20.0700	  578.00	  554.12	-1722.37	  436.94
     20.1700	  487.00	  553.79	-1813.04	  436.60
     20.2700	  539.00	  553.44	-1760.69	  436.25
     20.3700	  566.00	  553.11	-1733.36	  435.91
     20.4700	  517.00	  552.78	-1782.03	  435.57
     20.5700	  560.00	  552.45	-1738.70	  435.23
     20.6700	  585.00	  552.12	-1713.37	  434.89
     20.7700	  502.00	  551.80	-1796.05	  434.55
     20.8700	  535.00	  551.47	-1762.72	  434.21
     20.9700	  556.00	  551.18	-1741.43	  433.87
     21.0700	  551.00	  550.86	-1746.11	  433.53
     21.1700	  563.00	  550.54	-1733.79	  433.19
     21.2700	  554.00	  550.21	-1742.46	  432.85
     21.3700	  598.00	  549.89	-1698.14	  432.51
     21.4700	  525.00	  549.57	-1770.82	  432.17
     21.5700	  591.00	  549.26	-1704.51	  431.83
     21.6700	  523.00	  548.94	-1772.19	  431.49
     21.7700	  544.00	  548.63	-1750.88	  431.14
     21.8700	  545.00	  548.31	-1749.56	  430.80
     21.9700	  571.00	  548.00	-1723.25	  430.46
     22.0700	  528.00	  547.70	-1765.95	  430.13
     22.1700	  569.00	  547.39	-1724.64	  429.79
     22.2700	  533.00	  547.09	-1760.34	  429.45
     22.3700	  562.00	  546.79	-1731.04	  429.11
     22.4700	  579.00	  546.50	-1713.75	  428.77
     22.5700	  494.00	  546.21	-1798.46	  428.43
     22.6700	  542.00	  545.93	-1750.18	  428.09
     22.7700	  565.00	  545.65	-1726.90	  427.75
     22.8700	  570.00	  545.39	-1721.64	  427.42
     22.9700	  514.00	  545.13	-1777.38	  427.08
     23.0700	  581.00	  544.88	-1710.13	  426.74
     23.1700	  557.00	  544.65	-1733.90	  426.41
     23.2700	  571.00	  544.43	-1719.68	  426.07
     23.3700	  527.00	  544.24	-1763.49	  425.74
     23.4700	  564.00	  544.08	-1726.33	  425.40
     23.5700	  514.00	  543.96	-1776.21	  425.07
     23.6700	  571.00	  543.90	-1719.15	  424.73
     23.7700	  565.00	  543.93	-1725.18	  424.40
     23.8700	  575.00	  544.27	-1715.52	  424.07
     23.9700	  559.00	  544.88	-1732.13	  423.73
     24.0700	  548.00	  546.32	-1744.57	  423.40
     24.1700	  547.00	  549.29	-1748.54	  423.07
     24.2700	  556.00	  554.67	-1744.92	  422.74
     24.3700	  570.00	  563.48	-1739.73	  422.41
     24.4700	  586.00	  576.97	-1737.22	  422.08
     24.5700	  578.00	  595.87	-1764.12	  421.75
     24.6700	  614.00	  617.73	-1749.98	  421.42
     24.7700	  629.00	  633.93	-1751.18	  421.09
     24.8700	  671.00	  632.04	-1707.29	  420.77
     24.9700	  556.00	  609.36	-1799.61	  420.44
     25.0700	  629.00	  581.00	-1698.25	  420.12
     25.1700	  576.00	  560.04	-1730.29	  419.79
     25.2700	  556.00	  548.75	-1739.00	  419.47
     25.3700	  499.00	  543.80	-1791.05	  419.14
     25.4700	  539.00	  541.70	-1748.95	  418.82
     25.5700	  554.00	  540.63	-1732.88	  418.50
     25.6700	  557.00	  539.93	-1729.18	  418.18
     25.7700	  542.00	  539.42	-1743.67	  417.86
     25.8700	  562.00	  539.04	-1723.29	  417.54
     25.9700	  569.00	  538.76	-1716.01	  417.22
     26.0700	  590.00	  538.56	-1694.81	  416.90
     26.1700	  534.00	  538.44	-1750.69	  416.59
     26.2700	  518.00	  538.38	-1766.64	  416.27
     26.3700	  562.00	  538.41	-1722.66	  415.95
     26.4700	  515.00	  538.53	-1769.78	  415.64
     26.5700	  559.00	  538.74	-1725.99	  415.33
     26.6700	  529.00	  539.06	-1756.31	  415.02
     26.7700	  539.00	  539.53	-1746.78	  414.70
     26.8700	  567.00	  540.18	-1719.43	  414.39
     26.9700	  533.00	  541.06	-1754.31	  414.08
     27.0700	  557.00	  542.26	-1731.51	  413.78
     27.1700	  579.00	  543.91	-1711.16	  413.47
     27.2700	  566.00	  546.27	-1726.52	  413.16
     27.3700	  582.00	  549.87	-1714.12	  412.86
     27.4700	  574.00	  555.71	-1727.96	  412.55
     27.5700	  582.00	  565.56	-1729.81	  412.25
     27.6700	  534.00	  582.21	-1794.46	  411.95
     27.7700	  564.00	  609.17	-1791.42	  411.65
     27.8700	  643.00	  649.41	-1752.66	  411.35
     27.9700	  691.00	  702.85	-1758.10	  411.05
     28.0700	  743.00	  763.23	-1766.48	  410.75
     28.1700	  907.00	  815.51	-1654.76	  410.45
     28.2700	 1013.00	  837.38	-1570.63	  410.16
     28.3700	  939.00	  816.27	-1623.52	  409.86
     28.4700	  805.00	  773.91	-1715.16	  409.57
     28.5700	  710.00	  745.24	-1781.49	  409.28
     28.6700	  696.00	  746.11	-1796.36	  408.98
     28.7700	  749.00	  771.53	-1768.78	  408.69
     28.8700	  848.00	  801.10	-1699.35	  408.41
     28.9700	  830.00	  805.89	-1722.14	  408.12
     29.0700	  764.00	  767.62	-1749.87	  407.83
     29.1700	  671.00	  702.66	-1777.91	  407.55
     29.2700	  616.00	  640.81	-1771.06	  407.26
     29.3700	  635.00	  596.23	-1707.48	  406.98
     29.4700	  601.00	  569.34	-1714.59	  406.70
     29.5700	  586.00	  554.83	-1715.08	  406.42
     29.6700	  619.00	  547.20	-1674.45	  406.14
     29.7700	  593.00	  542.90	-1696.15	  405.86
     29.8700	  598.00	  540.26	-1688.51	  405.59
     29.9700	  564.00	  538.62	-1720.87	  405.31
     30.0700	  567.00	  537.83	-1717.08	  405.04
     30.1700	  554.00	  538.10	-1730.35	  404.77
     30.2700	  575.00	  540.02	-1711.27	  404.49
     30.3700	  549.00	  544.82	-1742.07	  404.22
     30.4700	  572.00	  554.35	-1728.60	  403.96
     30.5700	  554.00	  570.60	-1762.85	  403.69
     30.6700	  547.00	  594.24	-1793.49	  403.42
     30.7700	  589.00	  622.45	-1779.70	  403.16
     30.8700	  625.00	  647.24	-1768.49	  402.90
     30.9700	  612.00	  656.31	-1790.56	  402.63
     31.0700	  623.00	  641.09	-1764.34	  402.37
     31.1700	  585.00	  609.60	-1770.85	  402.12
     31.2700	  574.00	  577.93	-1750.18	  401.86
     31.3700	  577.00	  554.69	-1723.94	  401.60
     31.4700	  550.00	  540.67	-1736.92	  401.35
     31.5700	  531.00	  533.28	-1748.53	  401.09
     31.6700	  531.00	  529.53	-1744.78	  400.84
     31.7700	  504.00	  527.48	-1769.73	  400.59
     31.8700	  585.00	  526.20	-1687.45	  400.34
     31.9700	  524.00	  525.30	-1747.55	  400.10
     32.0700	  500.00	  524.66	-1770.91	  399.85
     32.1700	  514.00	  524.21	-1756.46	  399.61
     32.2700	  492.00	  523.92	-1778.17	  399.36
     32.3700	  559.00	  523.79	-1711.04	  399.12
     32.4700	  569.00	  523.81	-1701.06	  398.88
     32.5700	  558.00	  524.00	-1712.25	  398.64
     32.6700	  542.00	  524.37	-1728.62	  398.40
     32.7700	  514.00	  524.97	-1757.22	  398.17
     32.8700	  565.00	  525.86	-1707.11	  397.93
     32.9700	  545.00	  527.14	-1728.39	  397.70
     33.0700	  511.00	  529.00	-1764.25	  397.47
     33.1700	  562.00	  531.86	-1716.11	  397.24
     33.2700	  505.00	  536.68	-1777.93	  397.01
     33.3700	  559.00	  545.57	-1732.82	  396.79
     33.4700	  512.00	  562.82	-1797.07	  396.56
     33.5700	  623.00	  595.35	-1718.60	  396.34
     33.6700	  676.00	  651.55	-1721.80	  396.12
     33.7700	  783.00	  735.83	-1699.08	  395.90
     33.8700	  880.00	  839.86	-1706.11	  395.68
     33.9700	 1003.00	  936.13	-1679.38	  395.46
     34.0700	  991.00	  981.14	-1736.39	  395.25
     34.1700	 1042.00	  941.34	-1645.59	  395.03
     34.2700	  876.00	  836.99	-1707.24	  394.82
     34.3700	  719.00	  723.38	-1750.63	  394.61
     34.4700	  661.00	  635.54	-1720.79	  394.40
     34.5700	  568.00	  580.90	-1759.15	  394.19
     34.6700	  547.00	  551.85	-1751.10	  393.98
     34.7700	  583.00	  537.58	-1700.83	  393.78
     34.8700	  536.00	  530.28	-1740.53	  393.58
     34.9700	  508.00	  525.97	-1764.22	  393.38
     35.0700	  482.00	  523.00	-1787.25	  393.18
     35.1700	  524.00	  520.77	-1743.02	  392.98
     35.2700	  505.00	  519.00	-1760.25	  392.78
     35.3700	  527.00	  517.57	-1736.82	  392.59
     35.4700	  532.00	  516.41	-1730.66	  392.39
     35.5700	  561.00	  515.41	-1700.66	  392.20
     35.6700	  506.00	  514.56	-1754.81	  392.01
     35.7700	  557.00	  513.82	-1703.07	  391.82
     35.8700	  529.00	  513.66	-1730.91	  391.64
     35.9700	  509.00	  513.10	-1750.35	  391.45
     36.0700	  479.00	  512.59	-1779.84	  391.27
     36.1700	  478.00	  512.14	-1780.39	  391.09
     36.2700	  493.00	  511.74	-1764.99	  390.91
     36.3700	  461.00	  511.37	-1796.62	  390.73
     36.4700	  506.00	  511.04	-1751.29	  390.55
     36.5700	  498.00	  510.75	-1759.00	  390.38
     36.6700	  515.00	  510.49	-1741.74	  390.20
     36.7700	  486.00	  510.27	-1770.52	  390.03
     36.8700	  548.00	  510.10	-1708.35	  389.86
     36.9700	  497.00	  510.02	-1759.27	  389.69
     37.0700	  515.00	  510.14	-1741.39	  389.53
     37.1700	  546.00	  510.63	-1710.88	  389.36
     37.2700	  500.00	  511.84	-1758.09	  389.20
     37.3700	  541.00	  514.17	-1719.42	  389.03
     37.4700	  543.00	  517.81	-1721.06	  388.87
     37.5700	  536.00	  522.40	-1732.65	  388.72
     37.6700	  494.00	  526.82	-1779.07	  388.56
     37.7700	  551.00	  529.56	-1724.81	  388.40
     37.8700	  529.00	  529.84	-1747.09	  388.25
     37.9700	  486.00	  528.25	-1788.50	  388.10
     38.0700	  503.00	  525.34	-1768.59	  387.95
     38.1700	  501.00	  521.27	-1766.52	  387.80
     38.2700	  524.00	  516.79	-1739.04	  387.65
     38.3700	  465.00	  512.92	-1794.17	  387.51
     38.4700	  513.00	  510.10	-1743.35	  387.36
     38.5700	  510.00	  508.31	-1744.56	  387.22
     38.6700	  515.00	  507.28	-1738.53	  387.08
     38.7700	  463.00	  506.59	-1789.84	  386.94
     38.8700	  496.00	  506.22	-1756.47	  386.81
     38.9700	  525.00	  505.95	-1727.20	  386.67
     39.0700	  512.00	  505.73	-1739.98	  386.54
     39.1700	  501.00	  505.45	-1750.70	  386.41
     39.2700	  492.00	  505.28	-1759.53	  386.28
     39.3700	  505.00	  505.13	-1746.38	  386.15
     39.4700	  488.00	  504.99	-1763.24	  386.02
     39.5700	  519.00	  504.86	-1732.11	  385.90
     39.6700	  513.00	  504.75	-1738.00	  385.77
     39.7700	  551.00	  504.64	-1699.89	  385.65
     39.8700	  501.00	  504.66	-1749.91	  385.53
     39.9700	  490.00	  504.58	-1760.83	  385.42
     40.0700	  483.00	  504.50	-1767.75	  385.30
     40.1700	  559.00	  504.44	-1691.69	  385.18
     40.2700	  528.00	  504.38	-1722.63	  385.07
     40.3700	  537.00	  504.34	-1713.59	  384.96
     40.4700	  489.00	  504.31	-1761.56	  384.85
     40.5700	  485.00	  504.30	-1765.55	  384.74
     40.6700	  480.00	  504.30	-1770.55	  384.63
     40.7700	  486.00	  504.32	-1764.57	  384.53
     40.8700	  523.00	  504.37	-1727.62	  384.43
     40.9700	  446.00	  504.44	-1804.69	  384.33
     41.0700	  511.00	  504.54	-1739.79	  384.23
     41.1700	  544.00	  504.64	-1706.89	  384.13
     41.2700	  596.00	  504.83	-1655.08	  384.03
     41.3700	  530.00	  505.08	-1721.33	  383.94
     41.4700	  507.00	  505.41	-1744.66	  383.84
     41.5700	  454.00	  505.86	-1798.11	  383.75
     41.6700	  482.00	  506.88	-1771.13	  383.66
     41.7700	  495.00	  507.77	-1759.02	  383.57
     41.8700	  485.00	  509.24	-1770.49	  383.49
     41.9700	  514.00	  511.97	-1744.22	  383.40
     42.0700	  499.00	  517.36	-1764.61	  383.32
     42.1700	  527.00	  527.81	-1747.06	  383.24
     42.2700	  536.00	  546.42	-1756.67	  383.16
     42.3700	  550.00	  575.16	-1771.41	  383.08
     42.4700	  571.00	  612.56	-1787.81	  383.00
     42.5700	  597.00	  650.84	-1800.09	  382.93
     42.6700	  629.00	  676.61	-1793.86	  382.85
     42.7700	  599.00	  676.45	-1823.70	  382.78
     42.8700	  608.00	  649.61	-1787.86	  382.71
     42.9700	  562.00	  609.86	-1794.11	  382.64
     43.0700	  547.00	  571.98	-1771.23	  382.58
     43.1700	  513.00	  543.57	-1776.82	  382.51
     43.2700	  552.00	  525.77	-1720.02	  382.45
     43.3700	  509.00	  516.08	-1753.33	  382.39
     43.4700	  528.00	  511.25	-1729.50	  382.32
     43.5700	  508.00	  508.84	-1747.09	  382.27
     43.6700	  525.00	  507.52	-1728.77	  382.21
     43.7700	  518.00	  506.86	-1735.11	  382.15
     43.8700	  523.00	  506.27	-1729.52	  382.10
     43.9700	  546.00	  505.83	-1706.08	  382.05
     44.0700	  505.00	  505.50	-1746.75	  382.00
     44.1700	  533.00	  505.25	-1718.50	  381.95
     44.2700	  499.00	  505.06	-1752.31	  381.90
     44.3700	  513.00	  504.95	-1738.20	  381.85
     44.4700	  467.00	  504.74	-1783.99	  381.81
     44.5700	  512.00	  504.69	-1738.94	  381.77
     44.6700	  526.00	  504.66	-1724.92	  381.72
     44.7700	  477.00	  504.67	-1773.92	  381.68
     44.8700	  522.00	  504.70	-1728.95	  381.65
     44.9700	  509.00	  504.75	-1742.00	  381.61
     45.0700	  501.00	  504.83	-1750.08	  381.57
     45.1700	  513.00	  504.93	-1738.18	  381.54
     45.2700	  504.00	  505.22	-1747.47	  381.51
     45.3700	  547.00	  505.37	-1704.62	  381.48
     45.4700	  509.00	  505.53	-1742.78	  381.45
     45.5700	  526.00	  505.72	-1725.97	  381.42
     45.6700	  515.00	  505.93	-1737.18	  381.39
     45.7700	  537.00	  506.16	-1715.41	  381.37
     45.8700	  500.00	  506.42	-1752.67	  381.35
     45.9700	  506.00	  506.71	-1746.96	  381.33
     46.0700	  525.00	  507.03	-1728.28	  381.31
     46.1700	  549.00	  507.39	-1704.64	  381.29
     46.2700	  526.00	  507.79	-1728.04	  381.27
     46.3700	  508.00	  508.23	-1746.48	  381.26
     46.4700	  526.00	  508.73	-1728.98	  381.24
     46.5700	  520.00	  509.29	-1735.54	  381.23
     46.6700	  522.00	  509.92	-1734.17	  381.22
     46.7700	  502.00	  510.65	-1754.90	  381.21
     46.8700	  504.00	  511.51	-1753.76	  381.20
     46.9700	  533.00	  512.60	-1725.85	  381.19
     47.0700	  539.00	  514.11	-1721.36	  381.19
     47.1700	  461.00	  516.48	-1801.73	  381.18
     47.2700	  509.00	  520.51	-1757.76	  381.18
     47.3700	  523.00	  527.27	-1750.52	  381.18
     47.4700	  548.00	  537.99	-1736.24	  381.18
     47.5700	  560.00	  553.02	-1739.27	  381.18
     47.6700	  589.00	  571.15	-1728.40	  381.19
     47.7700	  586.00	  588.76	-1749.01	  381.19
     47.8700	  561.00	  600.35	-1785.60	  381.20
     47.9700	  580.00	  601.21	-1767.46	  381.21
     48.0700	  601.00	  591.58	-1736.83	  381.21
     48.1700	  573.00	  576.73	-1749.98	  381.22
     48.2700	  560.00	  562.33	-1748.58	  381.24
     48.3700	  581.00	  551.78	-1717.03	  381.25
     48.4700	  520.00	  546.03	-1772.28	  381.26
     48.5700	  490.00	  544.57	-1800.82	  381.28
     48.6700	  578.00	  546.32	-1714.57	  381.30
     48.7700	  582.00	  550.37	-1714.62	  381.32
     48.8700	  549.00	  556.29	-1753.54	  381.34
     48.9700	  560.00	  564.19	-1750.44	  381.36
     49.0700	  550.00	  574.82	-1771.07	  381.38
     49.1700	  631.00	  589.89	-1705.14	  381.40
     49.2700	  669.00	  612.98	-1690.23	  381.43
     49.3700	  645.00	  650.81	-1752.06	  381.46
     49.4700	  755.00	  714.53	-1705.78	  381.48
     49.5700	  841.00	  819.97	-1725.22	  381.51
     49.6700	  966.00	  985.24	-1765.49	  381.54
     49.7700	 1146.00	 1222.86	-1823.11	  381.57
     49.8700	 1425.00	 1531.14	-1852.39	  381.61
     49.9700	 1792.00	 1881.68	-1835.93	  381.64
     50.0700	 2152.00	 2210.37	-1804.62	  381.68
     50.1700	 2512.00	 2421.67	-1655.92	  381.71
     50.2700	 2519.00	 2429.46	-1656.71	  381.75
     50.3700	 2207.00	 2227.93	-1767.18	  381.79
     50.4700	 1977.00	 1901.11	-1670.36	  381.83
     50.5700	 1457.00	 1550.10	-1839.35	  381.87
     50.6700	 1086.00	 1242.29	-1902.54	  381.92
     50.7700	  831.00	 1007.71	-1922.96	  381.96
     50.8700	  730.00	  848.80	-1865.05	  382.01
     50.9700	  624.00	  751.35	-1873.60	  382.05
     51.0700	  594.00	  695.04	-1847.29	  382.10
     51.1700	  606.00	  660.91	-1801.16	  382.15
     51.2700	  596.00	  635.98	-1786.23	  382.20
     51.3700	  602.00	  614.47	-1758.72	  382.25
     51.4700	  559.00	  595.53	-1782.78	  382.30
     51.5700	  614.00	  579.83	-1712.08	  382.36
     51.6700	  595.00	  567.84	-1719.09	  382.41
     51.7700	  575.00	  559.34	-1730.59	  382.47
     51.8700	  572.00	  553.59	-1727.84	  382.53
     51.9700	  582.00	  549.71	-1713.96	  382.58
     52.0700	  552.00	  547.06	-1741.31	  382.64
     52.1700	  544.00	  545.30	-1747.55	  382.70
     52.2700	  558.00	  544.34	-1732.59	  382.76
     52.3700	  538.00	  544.28	-1752.53	  382.83
     52.4700	  573.00	  545.66	-1718.91	  382.89
     52.5700	  561.00	  548.86	-1734.11	  382.96
     52.6700	  545.00	  555.91	-1757.16	  383.02
     52.7700	  598.00	  570.35	-1718.60	  383.09
     52.8700	  617.00	  598.11	-1727.36	  383.16
     52.9700	  771.00	  647.10	-1622.35	  383.23
     53.0700	  746.00	  724.93	-1725.18	  383.30
     53.1700	  886.00	  834.25	-1694.50	  383.37
     53.2700	 1026.00	  967.14	-1687.39	  383.44
     53.3700	 1093.00	 1101.29	-1754.54	  383.51
     53.4700	 1203.00	 1201.19	-1744.44	  383.59
     53.5700	 1189.00	 1230.18	-1787.43	  383.66
     53.6700	 1146.00	 1175.07	-1775.32	  383.74
     53.7700	  961.00	 1059.01	-1844.26	  383.81
     53.8700	  800.00	  921.42	-1867.67	  383.89
     53.9700	  751.00	  794.50	-1789.75	  383.97
     54.0700	  690.00	  695.59	-1751.84	  384.05
     54.1700	  604.00	  628.44	-1770.69	  384.13
     54.2700	  555.00	  587.98	-1779.23	  384.21
     54.3700	  537.00	  565.99	-1775.24	  384.30
     54.4700	  576.00	  554.97	-1725.22	  384.38
     54.5700	  544.00	  549.76	-1752.01	  384.47
     54.6700	  571.00	  547.48	-1722.73	  384.55
     54.7700	  552.00	  546.75	-1741.00	  384.64
     54.8700	  532.00	  546.97	-1761.22	  384.72
     54.9700	  539.00	  547.92	-1755.17	  384.81
     55.0700	  553.00	  549.55	-1742.80	  384.90
     55.1700	  516.00	  551.86	-1782.11	  384.99
     55.2700	  585.00	  554.91	-1716.16	  385.08
     55.3700	  552.00	  558.83	-1753.08	  385.17
     55.4700	  599.00	  563.82	-1711.07	  385.27
     55.5700	  563.00	  570.20	-1753.45	  385.36
     55.6700	  557.00	  578.71	-1767.96	  385.45
     55.7700	  582.00	  590.84	-1755.09	  385.55
     55.8700	  632.00	  609.64	-1723.89	  385.64
     55.9700	  584.00	  640.97	-1803.22	  385.74
     56.0700	  649.00	  694.82	-1792.07	  385.84
     56.1700	  687.00	  786.17	-1845.42	  385.94
     56.2700	  842.00	  933.37	-1837.62	  386.03
     56.3700	 1090.00	 1153.32	-1809.57	  386.13
     56.4700	 1403.00	 1452.58	-1795.83	  386.23
     56.5700	 1750.00	 1817.03	-1813.28	  386.34
     56.6700	 2116.00	 2203.59	-1833.84	  386.44
     56.7700	 2477.00	 2537.25	-1806.50	  386.54
     56.8700	 2623.00	 2724.06	-1847.31	  386.64
     56.9700	 2602.00	 2695.53	-1839.78	  386.75
     57.0700	 2360.00	 2462.61	-1848.86	  386.85
     57.1700	 2085.00	 2107.16	-1768.41	  386.96
     57.2700	 1746.00	 1722.37	-1722.62	  387.06
     57.3700	 1335.00	 1375.31	-1786.56	  387.17
     57.4700	 1071.00	 1100.72	-1775.97	  387.28
     57.5700	  842.00	  906.38	-1810.63	  387.38
     57.6700	  813.00	  782.24	-1715.49	  387.49
     57.7700	  753.00	  711.04	-1704.29	  387.60
     57.8700	  709.00	  676.25	-1713.50	  387.71
     57.9700	  657.00	  666.18	-1755.43	  387.82
     58.0700	  690.00	  674.61	-1730.86	  387.93
     58.1700	  711.00	  699.48	-1734.73	  388.04
     58.2700	  759.00	  740.92	-1728.17	  388.16
     58.3700	  831.00	  799.35	-1714.60	  388.27
     58.4700	  968.00	  873.72	-1651.97	  388.38
     58.5700	 1111.00	  959.85	-1595.10	  388.50
     58.6700	 1202.00	 1049.74	-1593.99	  388.61
     58.7700	 1380.00	 1133.57	-1499.82	  388.72
     58.8700	 1548.00	 1203.97	-1402.22	  388.84
     58.9700	 1625.00	 1256.34	-1377.59	  388.96
     59.0700	 1641.00	 1284.84	-1390.09	  389.07
     59.1700	 1580.00	 1284.23	-1450.48	  389.19
     59.2700	 1481.00	 1258.00	-1523.25	  389.31
     59.3700	 1408.00	 1219.32	-1557.57	  389.42
     59.4700	 1274.00	 1182.25	-1654.50	  389.54
     59.5700	 1148.00	 1156.06	-1754.31	  389.66
     59.6700	 1115.00	 1147.41	-1778.66	  389.78
     59.7700	 1179.00	 1163.71	-1730.96	  389.90
     59.8700	 1108.00	 1210.43	-1848.68	  390.02
     59.9700	 1361.00	 1284.84	-1670.09	  390.14
     60.0700	 1488.00	 1372.34	-1630.59	  390.26
     60.1700	 1549.00	 1446.61	-1643.86	  390.38
     60.2700	 1539.00	 1475.77	-1683.02	  390.50
     60.3700	 1594.00	 1438.62	-1590.87	  390.63
     60.4700	 1348.00	 1339.69	-1737.94	  390.75
     60.5700	 1302.00	 1204.10	-1648.35	  390.87
     60.6700	 1101.00	 1059.88	-1705.13	  390.99
     60.7700	  918.00	  927.99	-1756.24	  391.12
     60.8700	  815.00	  820.42	-1751.67	  391.24
     60.9700	  744.00	  741.53	-1743.78	  391.36
     61.0700	  654.00	  690.51	-1782.76	  391.49
     61.1700	  659.00	  664.25	-1751.50	  391.61
     61.2700	  630.00	  660.18	-1776.43	  391.74
     61.3700	  610.00	  677.91	-1814.16	  391.86
     61.4700	  635.00	  719.54	-1830.79	  391.99
     61.5700	  725.00	  788.50	-1809.75	  392.11
     61.6700	  836.00	  887.10	-1797.35	  392.24
     61.7700	  903.00	 1013.53	-1856.78	  392.37
     61.8700	 1070.00	 1159.07	-1835.32	  392.49
     61.9700	 1255.00	 1306.19	-1797.44	  392.62
     62.0700	 1357.00	 1428.44	-1817.69	  392.75
     62.1700	 1443.00	 1495.11	-1798.36	  392.87
     62.2700	 1408.00	 1484.75	-1823.00	  393.00
     62.3700	 1274.00	 1400.27	-1872.52	  393.13
     62.4700	 1201.00	 1266.76	-1812.01	  393.25
     62.5700	 1037.00	 1114.96	-1824.21	  393.38
     62.6700	  917.00	  969.27	-1798.52	  393.51
     62.7700	  756.00	  844.90	-1835.15	  393.64
     62.8700	  658.00	  748.32	-1836.57	  393.77
     62.9700	  628.00	  679.26	-1797.51	  393.89
     63.0700	  630.00	  633.36	-1749.61	  394.02
     63.1700	  578.00	  604.69	-1772.94	  394.15
     63.2700	  568.00	  587.76	-1766.01	  394.28
     63.3700	  577.00	  578.42	-1747.67	  394.41
     63.4700	  623.00	  574.16	-1697.41	  394.54
     63.5700	  557.00	  573.98	-1763.23	  394.67
     63.6700	  561.00	  578.14	-1763.39	  394.79
     63.7700	  571.00	  588.01	-1763.26	  394.92
     63.8700	  621.00	  605.65	-1730.90	  395.05
     63.9700	  660.00	  633.43	-1719.68	  395.18
     64.0700	  668.00	  673.13	-1751.38	  395.31
     64.1700	  756.00	  724.95	-1715.20	  395.44
     64.2700	  811.00	  786.49	-1721.74	  395.57
     64.3700	  912.00	  851.95	-1686.20	  395.70
     64.4700	  934.00	  912.15	-1724.40	  395.83
     64.5700	 1053.00	  955.64	-1648.89	  395.95
     64.6700	 1004.00	  972.46	-1714.71	  396.08
     64.7700	 1012.00	  960.51	-1694.76	  396.21
     64.8700	  982.00	  923.77	-1688.02	  396.34
     64.9700	  916.00	  871.27	-1701.52	  396.47
     65.0700	  843.00	  813.25	-1716.50	  396.60
     65.1700	  792.00	  758.13	-1712.38	  396.72
     65.2700	  759.00	  710.83	-1698.08	  396.85
     65.3700	  771.00	  672.79	-1648.04	  396.98
     65.4700	  637.00	  643.13	-1752.38	  397.11
     65.5700	  660.00	  620.18	-1706.43	  397.24
     65.6700	  609.00	  602.46	-1739.71	  397.36
     65.7700	  543.00	  588.96	-1792.21	  397.49
     65.8700	  532.00	  578.96	-1793.21	  397.62
     65.9700	  550.00	  571.92	-1768.17	  397.75
     66.0700	  556.00	  567.42	-1757.67	  397.87
     66.1700	  530.00	  565.06	-1781.31	  398.00
     66.2700	  536.00	  564.46	-1774.71	  398.13
     66.3700	  541.00	  565.32	-1770.57	  398.25
     66.4700	  549.00	  567.45	-1764.70	  398.38
     66.5700	  504.00	  570.88	-1813.13	  398.51
     66.6700	  580.00	  575.91	-1742.16	  398.63
     66.7700	  557.00	  583.31	-1772.56	  398.76
     66.8700	  557.00	  594.73	-1783.98	  398.88
     66.9700	  583.00	  612.73	-1775.98	  399.01
     67.0700	  605.00	  641.86	-1783.11	  399.13
     67.1700	  684.00	  688.66	-1750.91	  399.26
     67.2700	  742.00	  761.70	-1765.95	  399.38
     67.3700	  867.00	  870.41	-1749.66	  399.50
     67.4700	 1061.00	 1023.36	-1708.61	  399.63
     67.5700	 1212.00	 1224.40	-1758.65	  399.75
     67.6700	 1511.00	 1469.13	-1704.38	  399.87
     67.7700	 1744.00	 1742.24	-1744.49	  399.99
     67.8700	 2042.00	 2015.46	-1719.71	  400.12
     67.9700	 2418.00	 2248.46	-1576.71	  400.24
     68.0700	 2379.00	 2394.75	-1762.00	  400.36
     68.1700	 2407.00	 2417.59	-1756.84	  400.48
     68.2700	 2343.00	 2310.53	-1713.78	  400.60
     68.3700	 2040.00	 2102.01	-1808.26	  400.72
     68.4700	 1865.00	 1837.64	-1718.89	  400.84
     68.5700	 1602.00	 1561.01	-1705.26	  400.96
     68.6700	 1344.00	 1304.66	-1706.91	  401.08
     68.7700	 1086.00	 1088.25	-1748.50	  401.20
     68.8700	  845.00	  919.55	-1820.80	  401.31
     68.9700	  799.00	  797.11	-1744.36	  401.43
     69.0700	  700.00	  713.54	-1759.79	  401.55
     69.1700	  690.00	  659.35	-1715.60	  401.66
     69.2700	  636.00	  625.54	-1735.79	  401.78
     69.3700	  618.00	  604.84	-1733.09	  401.90
     69.4700	  576.00	  592.08	-1762.33	  402.01
     69.5700	  612.00	  584.00	-1718.25	  402.13
     69.6700	  579.00	  578.64	-1745.89	  402.24
     69.7700	  601.00	  574.96	-1720.21	  402.35
     69.8700	  601.00	  572.40	-1717.65	  402.47
     69.9700	  551.00	  570.70	-1765.95	  402.58
     70.0700	  538.00	  569.71	-1777.96	  402.69
     70.1700	  543.00	  569.37	-1772.62	  402.80
     70.2700	  600.00	  569.70	-1715.95	  402.91
     70.3700	  558.00	  570.81	-1759.06	  403.02
     70.4700	  525.00	  572.84	-1794.09	  403.13
     70.5700	  542.00	  576.23	-1780.48	  403.24
     70.6700	  582.00	  581.76	-1746.01	  403.35
     70.7700	  596.00	  590.78	-1741.03	  403.45
     70.8700	  624.00	  605.56	-1727.81	  403.56
     70.9700	  594.00	  629.53	-1781.78	  403.67
     71.0700	  627.00	  667.42	-1786.67	  403.77
     71.1700	  722.00	  725.09	-1749.34	  403.88
     71.2700	  819.00	  808.74	-1735.99	  403.98
     71.3700	  916.00	  924.32	-1754.57	  404.09
     71.4700	 1027.00	 1072.18	-1791.43	  404.19
     71.5700	 1244.00	 1249.96	-1752.21	  404.29
     71.6700	 1376.00	 1447.55	-1817.80	  404.39
     71.7700	 1597.00	 1647.19	-1796.44	  404.49
     71.8700	 1821.00	 1823.91	-1749.16	  404.59
     71.9700	 1852.00	 1948.27	-1842.52	  404.69
     72.0700	 1925.00	 1994.28	-1815.53	  404.79
     72.1700	 1908.00	 1951.13	-1789.38	  404.89
     72.2700	 1913.00	 1829.15	-1662.40	  404.99
     72.3700	 1708.00	 1655.13	-1693.38	  405.08
     72.4700	 1543.00	 1457.98	-1661.23	  405.18
     72.5700	 1406.00	 1262.56	-1602.81	  405.27
     72.6700	 1171.00	 1086.44	-1661.69	  405.37
     72.7700	 1099.00	  939.37	-1586.62	  405.46
     72.8700	  992.00	  824.23	-1578.48	  405.55
     72.9700	  960.00	  738.98	-1525.23	  405.64
     73.0700	  823.00	  678.74	-1601.99	  405.73
     73.1700	  771.00	  637.66	-1612.91	  405.82
     73.2700	  761.00	  610.26	-1595.51	  405.91
     73.3700	  672.00	  592.12	-1666.37	  406.00
     73.4700	  628.00	  580.06	-1698.31	  406.09
     73.5700	  629.00	  571.95	-1689.20	  406.17
     73.6700	  563.00	  566.49	-1749.74	  406.26
     73.7700	  578.00	  562.93	-1731.18	  406.34
     73.8700	  600.00	  560.80	-1707.05	  406.43
     73.9700	  595.00	  559.84	-1711.09	  406.51
     74.0700	  596.00	  559.86	-1710.11	  406.59
     74.1700	  690.00	  560.65	-1616.90	  406.67
     74.2700	  588.00	  561.96	-1720.21	  406.75
     74.3700	  632.00	  563.48	-1677.73	  406.83
     74.4700	  633.00	  564.83	-1678.08	  406.91
     74.5700	  627.00	  565.61	-1684.86	  406.99
     74.6700	  620.00	  565.47	-1691.72	  407.07
     74.7700	  631.00	  564.29	-1679.54	  407.14
     74.8700	  629.00	  562.21	-1679.46	  407.22
     74.9700	  606.00	  559.55	-1699.80	  407.29
     75.0700	  604.00	  556.82	-1699.07	  407.36
     75.1700	  562.00	  554.41	-1738.66	  407.43
     75.2700	  585.00	  552.75	-1714.00	  407.50
     75.3700	  576.00	  552.22	-1722.47	  407.57
     75.4700	  535.00	  553.35	-1764.60	  407.64
     75.5700	  589.00	  556.59	-1713.84	  407.71
     75.6700	  533.00	  562.35	-1775.60	  407.78
     75.7700	  563.00	  571.33	-1754.58	  407.84
     75.8700	  580.00	  583.78	-1750.03	  407.91
     75.9700	  594.00	  599.76	-1752.01	  407.97
     76.0700	  621.00	  618.85	-1744.10	  408.03
     76.1700	  656.00	  640.04	-1730.29	  408.09
     76.2700	  657.00	  661.65	-1750.90	  408.15
     76.3700	  660.00	  681.38	-1767.63	  408.21
     76.4700	  724.00	  696.52	-1718.77	  408.27
     76.5700	  696.00	  704.45	-1754.70	  408.33
     76.6700	  695.00	  703.55	-1754.80	  408.38
     76.7700	  733.00	  693.98	-1707.23	  408.44
     76.8700	  627.00	  677.59	-1796.84	  408.49
     76.9700	  654.00	  656.89	-1749.14	  408.54
     77.0700	  652.00	  634.90	-1729.15	  408.60
     77.1700	  625.00	  613.63	-1734.88	  408.65
     77.2700	  591.00	  594.60	-1749.85	  408.70
     77.3700	  576.00	  578.68	-1748.93	  408.74
     77.4700	  594.00	  566.15	-1718.40	  408.79
     77.5700	  527.00	  556.81	-1776.06	  408.84
     77.6700	  545.00	  550.17	-1751.42	  408.88
     77.7700	  524.00	  545.67	-1767.92	  408.92
     77.8700	  501.00	  542.71	-1787.96	  408.97
     77.9700	  547.00	  540.82	-1740.07	  409.01
     78.0700	  565.00	  539.63	-1720.88	  409.05
     78.1700	  489.00	  538.88	-1796.13	  409.09
     78.2700	  525.00	  538.41	-1759.66	  409.12
     78.3700	  521.00	  538.12	-1763.37	  409.16
     78.4700	  554.00	  537.95	-1730.20	  409.19
     78.5700	  537.00	  537.87	-1747.12	  409.23
     78.6700	  509.00	  537.88	-1775.13	  409.26
     78.7700	  507.00	  537.98	-1777.23	  409.29
     78.8700	  528.00	  538.19	-1756.44	  409.32
     78.9700	  526.00	  538.53	-1758.78	  409.35
     79.0700	  523.00	  539.04	-1762.29	  409.38
     79.1700	  521.00	  539.78	-1765.03	  409.41
     79.2700	  541.00	  540.61	-1745.86	  409.43
     79.3700	  520.00	  541.97	-1768.22	  409.46
     79.4700	  504.00	  543.74	-1785.99	  409.48
     79.5700	  541.00	  546.03	-1751.28	  409.50
     79.6700	  539.00	  548.91	-1756.16	  409.52
     79.7700	  543.00	  552.53	-1755.78	  409.54
     79.8700	  539.00	  557.02	-1764.27	  409.56
     79.9700	  478.00	  562.58	-1830.83	  409.57
     80.0700	  544.00	  569.44	-1771.69	  409.59
     80.1700	  536.00	  577.87	-1788.12	  409.60
     80.2700	  572.00	  588.15	-1762.40	  409.61
     80.3700	  552.00	  600.53	-1794.78	  409.62
     80.4700	  584.00	  615.08	-1777.33	  409.63
     80.5700	  604.00	  631.63	-1773.88	  409.64
     80.6700	  647.00	  649.66	-1748.91	  409.65
     80.7700	  651.00	  668.25	-1763.50	  409.66
     80.8700	  681.00	  686.17	-1751.42	  409.66
     80.9700	  686.00	  701.96	-1762.21	  409.66
     81.0700	  731.00	  714.31	-1729.56	  409.67
     81.1700	  723.00	  722.20	-1745.45	  409.67
     81.2700	  692.00	  725.07	-1779.32	  409.67
     81.3700	  747.00	  722.73	-1721.98	  409.66
     81.4700	  766.00	  715.52	-1695.77	  409.66
     81.5700	  804.00	  704.21	-1646.46	  409.65
     81.6700	  724.00	  689.81	-1712.06	  409.65
     81.7700	  702.00	  673.37	-1717.62	  409.64
     81.8700	  714.00	  655.86	-1688.11	  409.63
     81.9700	  680.00	  638.37	-1704.62	  409.62
     82.0700	  664.00	  621.73	-1703.98	  409.61
     82.1700	  677.00	  606.55	-1675.80	  409.60
     82.2700	  596.00	  593.22	-1743.47	  409.58
     82.3700	  680.00	  581.90	-1648.15	  409.57
     82.4700	  598.00	  572.54	-1720.79	  409.55
     82.5700	  608.00	  565.13	-1703.38	  409.53
     82.6700	  563.00	  559.49	-1742.74	  409.51
     82.7700	  539.00	  555.48	-1762.73	  409.49
     82.8700	  552.00	  552.98	-1747.23	  409.47
     82.9700	  524.00	  551.86	-1774.11	  409.44
     83.0700	  548.00	  552.03	-1750.28	  409.42
     83.1700	  530.00	  553.41	-1769.66	  409.39
     83.2700	  512.00	  555.88	-1790.13	  409.36
     83.3700	  533.00	  559.33	-1772.58	  409.33
     83.4700	  569.00	  563.54	-1740.79	  409.30
     83.5700	  572.00	  568.23	-1742.48	  409.27
     83.6700	  556.00	  573.02	-1763.27	  409.23
     83.7700	  543.00	  577.45	-1780.70	  409.20
     83.8700	  574.00	  581.01	-1753.26	  409.16
     83.9700	  532.00	  583.18	-1797.43	  409.12
     84.0700	  572.00	  583.60	-1757.85	  409.08
     84.1700	  542.00	  582.14	-1786.39	  409.04
     84.2700	  561.00	  579.02	-1764.27	  408.99
     84.3700	  553.00	  574.66	-1767.91	  408.95
     84.4700	  563.00	  569.54	-1752.79	  408.90
     84.5700	  527.00	  564.15	-1783.40	  408.86
     84.6700	  553.00	  558.89	-1752.14	  408.81
     84.7700	  479.00	  554.05	-1821.30	  408.76
     84.8700	  505.00	  549.83	-1791.08	  408.71
     84.9700	  496.00	  546.33	-1796.58	  408.65
     85.0700	  485.00	  543.56	-1804.81	  408.60
     85.1700	  554.00	  541.51	-1733.76	  408.54
     85.2700	  521.00	  540.10	-1765.35	  408.49
     85.3700	  493.00	  539.24	-1792.49	  408.43
     85.4700	  512.00	  538.85	-1773.10	  408.37
     85.5700	  492.00	  538.87	-1793.12	  408.30
     85.6700	  523.00	  539.23	-1762.48	  408.24
     85.7700	  542.00	  539.91	-1744.16	  408.18
     85.8700	  528.00	  540.90	-1759.15	  408.11
     85.9700	  540.00	  542.22	-1748.47	  408.04
     86.0700	  504.00	  543.89	-1786.14	  407.97
     86.1700	  561.00	  546.00	-1731.25	  407.90
     86.2700	  519.00	  548.62	-1775.87	  407.83
     86.3700	  558.00	  551.86	-1740.11	  407.76
     86.4700	  527.00	  555.85	-1775.10	  407.68
     86.5700	  585.00	  560.70	-1721.95	  407.60
     86.6700	  604.00	  566.20	-1708.45	  407.53
     86.7700	  577.00	  572.94	-1742.19	  407.45
     86.8700	  574.00	  580.47	-1752.72	  407.36
     86.9700	  581.00	  588.51	-1753.76	  407.28
     87.0700	  605.00	  596.61	-1737.86	  407.20
     87.1700	  654.00	  604.18	-1696.43	  407.11
     87.2700	  696.00	  610.53	-1660.78	  407.03
     87.3700	  669.00	  614.96	-1692.21	  406.94
     87.4700	  666.00	  616.89	-1697.14	  406.85
     87.5700	  634.00	  616.02	-1728.27	  406.76
     87.6700	  646.00	  612.48	-1712.73	  406.66
     87.7700	  617.00	  606.78	-1736.03	  406.57
     87.8700	  622.00	  599.68	-1723.93	  406.47
     87.9700	  590.00	  592.00	-1748.25	  406.38
     88.0700	  624.00	  584.55	-1706.80	  406.28
     88.1700	  558.00	  578.01	-1766.26	  406.18
     88.2700	  581.00	  572.92	-1738.17	  406.07
     88.3700	  527.00	  569.67	-1788.92	  405.97
     88.4700	  605.00	  568.47	-1709.72	  405.87
     88.5700	  562.00	  569.35	-1753.60	  405.76
     88.6700	  549.00	  572.19	-1769.44	  405.65
     88.7700	  590.00	  576.70	-1732.95	  405.54
     88.8700	  583.00	  582.49	-1745.74	  405.43
     88.9700	  587.00	  589.03	-1748.28	  405.32
     89.0700	  581.00	  595.70	-1760.95	  405.21
     89.1700	  612.00	  601.82	-1736.07	  405.09
     89.2700	  662.00	  606.68	-1690.93	  404.98
     89.3700	  664.00	  609.66	-1691.91	  404.86
     89.4700	  614.00	  610.29	-1742.54	  404.74
     89.5700	  620.00	  608.44	-1734.69	  404.62
     89.6700	  597.00	  604.33	-1753.58	  404.50
     89.7700	  566.00	  598.44	-1778.69	  404.37
     89.8700	  531.00	  591.36	-1806.61	  404.25
     89.9700	  546.00	  583.70	-1783.95	  404.12
     90.0700	  538.00	  575.98	-1784.23	  403.99
     90.1700	  564.00	  568.63	-1750.88	  403.86
     90.2700	  490.00	  561.96	-1818.21	  403.73
     90.3700	  555.00	  556.17	-1747.42	  403.60
     90.4700	  512.00	  551.34	-1785.59	  403.47
     90.5700	  529.00	  547.48	-1764.73	  403.33
     90.6700	  512.00	  544.52	-1778.77	  403.19
     90.7700	  519.00	  542.36	-1769.61	  403.06
     90.8700	  540.00	  540.88	-1747.13	  402.92
     90.9700	  533.00	  539.97	-1753.22	  402.77
     91.0700	  534.00	  539.53	-1751.78	  402.63
     91.1700	  501.00	  539.50	-1784.75	  402.49
     91.2700	  529.00	  539.85	-1757.10	  402.34
     91.3700	  575.00	  540.61	-1711.86	  402.20
     91.4700	  531.00	  541.82	-1757.07	  402.05
     91.5700	  567.00	  543.57	-1722.82	  401.90
     91.6700	  515.00	  546.00	-1777.25	  401.75
     91.7700	  496.00	  549.06	-1799.31	  401.60
     91.8700	  532.00	  553.35	-1767.60	  401.44
     91.9700	  535.00	  558.84	-1770.09	  401.29
     92.0700	  538.00	  565.68	-1773.93	  401.13
     92.1700	  535.00	  574.01	-1785.26	  400.98
     92.2700	  622.00	  583.86	-1708.11	  400.82
     92.3700	  575.00	  595.22	-1766.47	  400.66
     92.4700	  645.00	  607.91	-1709.16	  400.49
     92.5700	  645.00	  621.69	-1722.94	  400.33
     92.6700	  605.00	  636.17	-1777.42	  400.17
     92.7700	  675.00	  650.85	-1722.10	  400.00
     92.8700	  673.00	  665.17	-1738.42	  399.83
     92.9700	  705.00	  678.53	-1719.78	  399.67
     93.0700	  786.00	  690.44	-1650.69	  399.50
     93.1700	  776.00	  700.63	-1670.88	  399.33
     93.2700	  792.00	  709.19	-1663.44	  399.15
     93.3700	  797.00	  716.56	-1665.81	  398.98
     93.4700	  769.00	  723.38	-1700.63	  398.80
     93.5700	  808.00	  730.39	-1668.64	  398.63
     93.6700	  824.00	  738.26	-1660.51	  398.45
     93.7700	  830.00	  747.56	-1663.81	  398.27
     93.8700	  835.00	  758.76	-1670.01	  398.09
     93.9700	  847.00	  772.19	-1671.44	  397.91
     94.0700	  873.00	  788.07	-1661.32	  397.73
     94.1700	  866.00	  806.38	-1686.63	  397.54
     94.2700	  877.00	  826.74	-1695.99	  397.36
     94.3700	  876.00	  848.38	-1718.63	  397.17
     94.4700	  905.00	  870.09	-1711.34	  396.99
     94.5700	  914.00	  890.26	-1722.51	  396.80
     94.6700	  942.00	  907.02	-1711.27	  396.61
     94.7700	  960.00	  918.38	-1704.63	  396.42
     94.8700	  944.00	  922.65	-1724.90	  396.22
     94.9700	  889.00	  918.81	-1776.06	  396.03
     95.0700	  910.00	  906.84	-1743.09	  395.83
     95.1700	  862.00	  887.68	-1771.93	  395.64
     95.2700	  831.00	  863.03	-1778.28	  395.44
     95.3700	  828.00	  834.94	-1753.19	  395.24
     95.4700	  764.00	  805.53	-1787.78	  395.04
     95.5700	  741.00	  776.82	-1782.07	  394.84
     95.6700	  717.00	  750.67	-1779.92	  394.64
     95.7700	  730.00	  728.74	-1744.99	  394.44
     95.8700	  666.00	  712.55	-1792.80	  394.23
     95.9700	  656.00	  703.40	-1793.65	  394.03
     96.0700	  623.00	  702.45	-1825.70	  393.82
     96.1700	  679.00	  710.68	-1777.93	  393.62
     96.2700	  704.00	  728.90	-1771.15	  393.41
     96.3700	  733.00	  757.66	-1770.91	  393.20
     96.4700	  780.00	  797.21	-1763.46	  392.99
     96.5700	  797.00	  847.35	-1796.60	  392.78
     96.6700	  916.00	  907.38	-1737.63	  392.56
     96.7700	  863.00	  975.96	-1859.21	  392.35
     96.8700	 1025.00	 1051.03	-1772.28	  392.13
     96.9700	 1093.00	 1129.80	-1783.05	  391.92
     97.0700	 1201.00	 1208.77	-1754.02	  391.70
     97.1700	 1308.00	 1283.77	-1722.02	  391.48
     97.2700	 1329.00	 1350.25	-1767.50	  391.26
     97.3700	 1447.00	 1403.52	-1702.77	  391.04
     97.4700	 1456.00	 1439.38	-1729.63	  390.82
     97.5700	 1447.00	 1454.82	-1754.07	  390.60
     97.6700	 1429.00	 1448.74	-1765.99	  390.38
     97.7700	 1434.00	 1422.15	-1734.40	  390.16
     97.8700	 1312.00	 1377.84	-1812.09	  389.93
     97.9700	 1358.00	 1319.85	-1708.10	  389.71
     98.0700	 1262.00	 1252.64	-1736.89	  389.48
     98.1700	 1160.00	 1180.69	-1766.94	  389.25
     98.2700	 1059.00	 1108.19	-1795.44	  389.02
     98.3700	 1090.00	 1038.79	-1695.04	  388.79
     98.4700	  960.00	  975.60	-1761.85	  388.56
     98.5700	  917.00	  921.12	-1750.37	  388.33
     98.6700	  934.00	  877.24	-1689.49	  388.10
     98.7700	  832.00	  845.39	-1759.64	  387.87
     98.8700	  786.00	  826.56	-1786.81	  387.64
     98.9700	  797.00	  821.42	-1770.67	  387.40
     99.0700	  771.00	  830.39	-1805.64	  387.17
     99.1700	  829.00	  853.70	-1770.95	  386.93
     99.2700	  884.00	  891.35	-1753.60	  386.69
     99.3700	  936.00	  943.17	-1753.42	  386.46
     99.4700	  998.00	 1008.68	-1756.93	  386.22
     99.5700	 1010.00	 1087.10	-1823.35	  385.98
     99.6700	 1127.00	 1177.19	-1796.44	  385.74
     99.7700	 1209.00	 1277.14	-1814.39	  385.50
     99.8700	 1381.00	 1384.53	-1749.78	  385.26
     99.9700	 1530.00	 1496.21	-1712.46	  385.02
    100.0700	 1579.00	 1608.38	-1775.63	  384.78
    100.1700	 1746.00	 1716.68	-1716.93	  384.53
    100.2700	 1827.00	 1816.58	-1735.83	  384.29
    100.3700	 1943.00	 1903.92	-1707.17	  384.05
    100.4700	 2024.00	 1975.23	-1697.48	  383.80
    100.5700	 2072.00	 2028.09	-1702.34	  383.56
    100.6700	 2133.00	 2060.83	-1674.08	  383.31
    100.7700	 2159.00	 2072.43	-1659.68	  383.06
    100.8700	 2153.00	 2062.40	-1655.65	  382.82
    100.9700	 2049.00	 2030.90	-1728.15	  382.57
    101.0700	 2053.00	 1979.18	-1672.43	  382.32
    101.1700	 1914.00	 1909.83	-1742.08	  382.07
    101.2700	 1865.00	 1826.84	-1708.09	  381.82
    101.3700	 1776.00	 1735.06	-1705.31	  381.57
    101.4700	 1670.00	 1639.67	-1715.92	  381.32
    101.5700	 1587.00	 1545.48	-1704.73	  381.07
    101.6700	 1443.00	 1456.64	-1759.89	  380.82
    101.7700	 1360.00	 1376.33	-1762.58	  380.57
    101.8700	 1348.00	 1306.58	-1704.83	  380.32
    101.9700	 1210.00	 1248.41	-1784.66	  380.07
    102.0700	 1193.00	 1201.70	-1754.95	  379.81
    102.1700	 1204.00	 1165.40	-1707.65	  379.56
    102.2700	 1172.00	 1137.67	-1711.92	  379.31
    102.3700	 1193.00	 1116.03	-1669.28	  379.05
    102.4700	 1037.00	 1097.71	-1806.96	  378.80
    102.5700	 1070.00	 1079.92	-1756.17	  378.55
    102.6700	 1041.00	 1060.27	-1765.52	  378.29
    102.7700	  987.00	 1037.04	-1796.29	  378.04
    102.8700	  988.00	 1009.36	-1767.61	  377.78
    102.9700	  965.00	  977.25	-1758.50	  377.53
    103.0700	  959.00	  941.34	-1728.59	  377.27
    103.1700	  911.00	  902.68	-1737.93	  377.02
    103.2700	  849.00	  862.54	-1759.79	  376.76
    103.3700	  859.00	  822.18	-1709.43	  376.50
    103.4700	  819.00	  782.82	-1710.07	  376.25
    103.5700	  730.00	  745.47	-1761.72	  375.99
    103.6700	  710.00	  710.97	-1747.22	  375.74
    103.7700	  685.00	  679.91	-1741.16	  375.48
    103.8700	  700.00	  652.66	-1698.91	  375.22
    103.9700	  628.00	  629.35	-1747.60	  374.97
    104.0700	  608.00	  609.93	-1748.18	  374.71
    104.1700	  622.00	  594.20	-1718.45	  374.45
    104.2700	  572.00	  581.84	-1756.09	  374.20
    104.3700	  565.00	  572.49	-1753.74	  373.94
    104.4700	  592.00	  565.76	-1720.01	  373.68
    104.5700	  536.00	  561.23	-1771.48	  373.43
    104.6700	  548.00	  558.53	-1756.78	  373.17
    104.7700	  561.00	  557.31	-1742.56	  372.92
    104.8700	  489.00	  557.27	-1814.52	  372.66
    104.9700	  563.00	  558.14	-1741.39	  372.40
    105.0700	  510.00	  559.72	-1795.97	  372.15
    105.1700	  521.00	  561.81	-1787.06	  371.89
    105.2700	  549.00	  564.27	-1761.52	  371.64
    105.3700	  544.00	  566.99	-1769.24	  371.38
    105.4700	  546.00	  569.95	-1770.20	  371.13
    105.5700	  538.00	  573.11	-1781.36	  370.88
    105.6700	  548.00	  576.52	-1774.77	  370.62
    105.7700	  521.00	  580.27	-1805.52	  370.37
    105.8700	  614.00	  584.49	-1716.74	  370.11
    105.9700	  552.00	  589.32	-1783.57	  369.86
    106.0700	  568.00	  594.87	-1773.12	  369.61
    106.1700	  546.00	  601.25	-1801.50	  369.36
    106.2700	  581.00	  608.48	-1773.73	  369.10
    106.3700	  589.00	  616.53	-1773.78	  368.85
    106.4700	  597.00	  625.30	-1774.55	  368.60
    106.5700	  621.00	  634.59	-1759.84	  368.35
    106.6700	  660.00	  644.15	-1730.40	  368.10
    106.7700	  620.00	  653.64	-1779.89	  367.85
    106.8700	  669.00	  662.68	-1739.93	  367.60
    106.9700	  695.00	  670.87	-1722.12	  367.35
    107.0700	  713.00	  677.80	-1711.05	  367.11
    107.1700	  692.00	  683.14	-1737.39	  366.86
    107.2700	  640.00	  686.66	-1792.91	  366.61
    107.3700	  706.00	  688.32	-1728.57	  366.37
    107.4700	  691.00	  688.24	-1743.49	  366.12
    107.5700	  680.00	  686.72	-1752.97	  365.88
    107.6700	  657.00	  684.17	-1773.42	  365.64
    107.7700	  644.00	  681.06	-1783.31	  365.39
    107.8700	  666.00	  677.84	-1758.09	  365.15
    107.9700	  669.00	  674.90	-1752.15	  364.91
    108.0700	  644.00	  672.55	-1774.80	  364.67
    108.1700	  665.00	  671.01	-1752.26	  364.43
    108.2700	  657.00	  670.33	-1759.58	  364.19
    108.3700	  630.00	  670.48	-1786.73	  363.95
    108.4700	  600.00	  671.30	-1817.55	  363.72
    108.5700	  756.00	  672.52	-1662.77	  363.48
    108.6700	  688.00	  673.78	-1732.03	  363.25
    108.7700	  651.00	  674.68	-1769.93	  363.01
    108.8700	  659.00	  674.81	-1762.06	  362.78
    108.9700	  690.00	  673.79	-1730.04	  362.55
    109.0700	  645.00	  671.33	-1772.58	  362.32
    109.1700	  680.00	  667.29	-1733.54	  362.09
    109.2700	  632.00	  661.63	-1775.88	  361.86
    109.3700	  666.00	  654.50	-1734.75	  361.64
    109.4700	  633.00	  646.12	-1759.38	  361.41
    109.5700	  651.00	  636.81	-1732.06	  361.19
    109.6700	  657.00	  626.89	-1716.14	  360.96
    109.7700	  618.00	  616.70	-1744.95	  360.74
    109.8700	  629.00	  606.57	-1723.82	  360.52
    109.9700	  579.00	  596.77	-1764.02	  360.30
    110.0700	  588.00	  587.56	-1745.81	  360.08
    110.1700	  563.00	  579.12	-1762.37	  359.87
    110.2700	  580.00	  571.58	-1737.83	  359.65
    110.3700	  568.00	  565.04	-1743.29	  359.44
    110.4700	  569.00	  559.53	-1736.78	  359.23
    110.5700	  551.00	  555.03	-1750.28	  359.02
    110.6700	  560.00	  551.50	-1737.75	  358.81
    110.7700	  545.00	  548.89	-1750.14	  358.60
    110.8700	  580.00	  547.09	-1713.34	  358.39
    110.9700	  543.00	  546.02	-1749.27	  358.19
    111.0700	  567.00	  545.59	-1724.84	  357.99
    111.1700	  510.00	  545.71	-1781.96	  357.79
    111.2700	  547.00	  546.30	-1745.55	  357.59
    111.3700	  543.00	  547.29	-1750.54	  357.39
    111.4700	  587.00	  548.61	-1707.86	  357.19
    111.5700	  528.00	  550.22	-1768.47	  357.00
    111.6700	  538.00	  552.09	-1760.34	  356.81
    111.7700	  553.00	  554.18	-1747.43	  356.62
    111.8700	  541.00	  556.49	-1761.74	  356.43
    111.9700	  555.00	  559.01	-1750.26	  356.24
    112.0700	  564.00	  561.73	-1743.98	  356.06
    112.1700	  500.00	  564.68	-1810.93	  355.88
    112.2700	  592.00	  567.87	-1722.12	  355.70
    112.3700	  585.00	  571.33	-1732.58	  355.52
    112.4700	  596.00	  575.11	-1725.36	  355.34
    112.5700	  580.00	  579.24	-1745.49	  355.17
    112.6700	  620.00	  583.81	-1710.06	  355.00
    112.7700	  677.00	  588.90	-1658.15	  354.83
    112.8700	  638.00	  594.61	-1702.86	  354.66
    112.9700	  656.00	  601.10	-1691.35	  354.49
    113.0700	  660.00	  608.55	-1694.80	  354.33
    113.1700	  711.00	  617.22	-1652.47	  354.17
    113.2700	  741.00	  627.42	-1632.67	  354.01
    113.3700	  745.00	  639.53	-1640.78	  353.86
    113.4700	  763.00	  654.08	-1637.33	  353.70
    113.5700	  861.00	  671.68	-1556.93	  353.55
    113.6700	  942.00	  693.12	-1497.37	  353.40
    113.7700	  913.00	  719.35	-1552.60	  353.26
    113.8700	  995.00	  751.48	-1502.73	  353.11
    113.9700	 1010.00	  790.87	-1527.12	  352.97
    114.0700	 1040.00	  839.05	-1545.30	  352.83
    114.1700	 1086.00	  897.78	-1558.03	  352.70
    114.2700	 1094.00	  969.04	-1621.29	  352.57
    114.3700	 1220.00	 1054.93	-1581.18	  352.44
    114.4700	 1414.00	 1157.70	-1489.95	  352.31
    114.5700	 1444.00	 1279.65	-1581.90	  352.18
    114.6700	 1565.00	 1423.03	-1604.28	  352.06
    114.7700	 1771.00	 1590.01	-1565.26	  351.94
    114.8700	 1960.00	 1782.39	-1568.64	  351.83
    114.9700	 2082.00	 2001.61	-1665.86	  351.71
    115.0700	 2326.00	 2248.47	-1668.72	  351.60
    115.1700	 2567.00	 2523.13	-1702.38	  351.50
    115.2700	 2822.00	 2824.90	-1749.15	  351.39
    115.3700	 3066.00	 3151.98	-1832.23	  351.29
    115.4700	 3349.00	 3501.56	-1898.81	  351.19
    115.5700	 3729.00	 3869.55	-1886.80	  351.10
    115.6700	 3934.00	 4250.80	-2063.05	  351.01
    115.7700	 4378.00	 4638.96	-2007.21	  350.92
    115.8700	 4618.00	 5026.37	-2154.62	  350.84
    115.9700	 5152.00	 5404.35	-1998.60	  350.75
    116.0700	 5580.00	 5763.21	-1929.46	  350.68
    116.1700	 5977.00	 6092.64	-1861.89	  350.60
    116.2700	 6298.00	 6381.97	-1830.22	  350.53
    116.3700	 6686.00	 6620.63	-1680.88	  350.46
    116.4700	 6675.00	 6799.08	-1870.33	  350.40
    116.5700	 6890.00	 6909.57	-1765.82	  350.34
    116.6700	 6985.00	 6947.15	-1708.40	  350.28
    116.7700	 6890.00	 6910.17	-1766.42	  350.22
    116.8700	 6740.00	 6800.58	-1806.83	  350.17
    116.9700	 6717.00	 6623.66	-1652.91	  350.13
    117.0700	 6362.00	 6387.38	-1771.63	  350.09
    117.1700	 6097.00	 6101.37	-1750.62	  350.05
    117.2700	 5844.00	 5776.10	-1678.35	  350.01
    117.3700	 5505.00	 5422.28	-1663.53	  349.98
    117.4700	 5097.00	 5050.16	-1699.41	  349.95
    117.5700	 4719.00	 4669.26	-1696.51	  349.93
    117.6700	 4424.00	 4288.03	-1610.28	  349.91
    117.7700	 4163.00	 3913.76	-1497.01	  349.90
    117.8700	 3845.00	 3552.68	-1453.93	  349.88
    117.9700	 3338.00	 3209.73	-1617.98	  349.88
    118.0700	 3086.00	 2888.71	-1548.96	  349.87
    118.1700	 2686.00	 2592.17	-1652.42	  349.88
    118.2700	 2251.00	 2321.61	-1816.86	  349.88
    118.3700	 1983.00	 2077.69	-1840.94	  349.89
    118.4700	 1720.00	 1860.21	-1886.46	  349.90
    118.5700	 1621.00	 1668.36	-1793.61	  349.92
    118.6700	 1357.00	 1500.75	-1890.00	  349.95
    118.7700	 1251.00	 1355.61	-1850.86	  349.97
    118.8700	 1118.00	 1231.01	-1859.26	  350.00
    118.9700	 1051.00	 1124.83	-1820.08	  350.04
    119.0700	  959.00	 1034.96	-1822.21	  350.08
    119.1700	  844.00	  959.31	-1861.56	  350.13
    119.2700	  783.00	  895.91	-1859.16	  350.18
    119.3700	  785.00	  842.98	-1804.23	  350.23
    119.4700	  695.00	  798.90	-1850.15	  350.29
    119.5700	  648.00	  762.24	-1860.49	  350.36
    119.6700	  721.00	  731.77	-1757.02	  350.42
    119.7700	  630.00	  706.43	-1822.68	  350.50
    119.8700	  576.00	  685.34	-1855.59	  350.58
    119.9700	  641.00	  667.76	-1773.01	  350.66
    120.0700	  621.00	  653.09	-1778.34	  350.75
    120.1700	  599.00	  640.84	-1788.09	  350.84
    120.2700	  590.00	  630.60	-1786.85	  350.94
    120.3700	  528.00	  622.05	-1840.30	  351.05
    120.4700	  569.00	  614.95	-1792.20	  351.16
    120.5700	  610.00	  609.10	-1745.35	  351.27
    120.6700	  616.00	  604.32	-1734.57	  351.39
    120.7700	  561.00	  600.51	-1785.76	  351.52
    120.8700	  583.00	  597.56	-1760.81	  351.65
    120.9700	  517.00	  595.41	-1824.66	  351.79
    121.0700	  569.00	  593.98	-1771.23	  351.93
    121.1700	  560.00	  593.24	-1779.49	  352.07
    121.2700	  584.00	  593.14	-1755.39	  352.23
    121.3700	  518.00	  593.64	-1821.89	  352.39
    121.4700	  569.00	  594.70	-1771.95	  352.55
    121.5700	  572.00	  596.27	-1770.52	  352.72
    121.6700	  626.00	  598.29	-1718.54	  352.90
    121.7700	  587.00	  600.69	-1759.94	  353.08
    121.8700	  582.00	  603.44	-1767.69	  353.26
    121.9700	  563.00	  606.43	-1789.68	  353.46
    122.0700	  635.00	  609.57	-1720.82	  353.66
    122.1700	  588.00	  612.78	-1771.03	  353.86
    122.2700	  624.00	  615.94	-1738.19	  354.07
    122.3700	  639.00	  618.96	-1726.21	  354.29
    122.4700	  597.00	  621.72	-1770.97	  354.52
    122.5700	  625.00	  624.11	-1745.36	  354.75
    122.6700	  642.00	  626.03	-1730.28	  354.98
    122.7700	  668.00	  627.41	-1705.66	  355.22
    122.8700	  595.00	  628.17	-1779.42	  355.47
    122.9700	  654.00	  628.29	-1720.54	  355.73
    123.0700	  640.00	  627.75	-1734.00	  355.99
    123.1700	  625.00	  626.58	-1747.83	  356.26
    123.2700	  640.00	  624.81	-1731.06	  356.53
    123.3700	  647.00	  622.51	-1721.76	  356.82
    123.4700	  665.00	  619.74	-1700.99	  357.10
    123.5700	  631.00	  616.59	-1731.84	  357.40
    123.6700	  650.00	  613.13	-1709.38	  357.70
    123.7700	  658.00	  609.45	-1697.70	  358.01
    123.8700	  645.00	  605.63	-1706.88	  358.33
    123.9700	  631.00	  601.73	-1716.98	  358.65
    124.0700	  631.00	  597.82	-1713.07	  358.98
    124.1700	  609.00	  593.97	-1731.22	  359.31
    124.2700	  585.00	  590.22	-1751.47	  359.66
    124.3700	  591.00	  586.61	-1741.86	  360.01
    124.4700	  623.00	  583.18	-1706.43	  360.37
    124.5700	  570.00	  579.96	-1756.21	  360.73
    124.6700	  619.00	  576.95	-1704.20	  361.11
    124.7700	  620.00	  574.18	-1700.43	  361.49
    124.8700	  613.00	  571.65	-1704.90	  361.87
    124.9700	  584.00	  478.89	-1641.14	  362.27
    125.0700	  607.00	  479.30	-1746.25	  362.67
    125.1700	  572.00	  479.71	-1746.25	  363.08
    125.2700	  594.00	  480.12	-1746.25	  363.50
    125.3700	  527.00	  480.55	-1746.25	  363.93
    125.4700	  573.00	  480.98	-1746.25	  364.36
    125.5700	  566.00	  481.43	-1746.25	  364.80
    125.6700	  583.00	  481.87	-1746.25	  365.25
    125.7700	  551.00	  482.33	-1746.25	  365.71
    125.8700	  562.00	  482.80	-1746.25	  366.17
    125.9700	  548.00	  483.27	-1746.25	  366.65
    126.0700	  611.00	  483.75	-1746.25	  367.13
    126.1700	  598.00	  484.24	-1746.25	  367.62
    126.2700	  591.00	  484.74	-1746.25	  368.11
    126.3700	  552.00	  485.25	-1746.25	  368.62
    126.4700	  606.00	  485.76	-1746.25	  369.14
    126.5700	  585.00	  486.28	-1746.25	  369.66
    126.6700	  628.00	  486.81	-1746.25	  370.19
    126.7700	  617.00	  487.35	-1746.25	  370.73
    126.8700	  630.00	  487.90	-1746.25	  371.28
    126.9700	  630.00	  488.46	-1746.25	  371.84
    127.0700	  623.00	  489.03	-1746.25	  372.40
    127.1700	  672.00	  489.60	-1746.25	  372.98
    127.2700	  608.00	  490.18	-1746.25	  373.56
    127.3700	  600.00	  490.78	-1746.25	  374.15
    127.4700	  649.00	  491.38	-1746.25	  374.75
    127.5700	  659.00	  491.99	-1746.25	  375.36
    127.6700	  673.00	  492.61	-1746.25	  375.98
    127.7700	  721.00	  493.24	-1746.25	  376.61
    127.8700	  738.00	  493.87	-1746.25	  377.25
    127.9700	  697.00	  494.52	-1746.25	  377.90
    128.0700	  793.00	  495.18	-1746.25	  378.55
    128.1700	  756.00	  495.84	-1746.25	  379.22
    128.2700	  736.00	  496.52	-1746.25	  379.89
    128.3700	  745.00	  497.20	-1746.25	  380.58
    128.4700	  780.00	  497.90	-1746.25	  381.27
    128.5700	    0.00	  498.60	-1746.25	  381.98
    128.6700	    0.00	  499.32	-1746.25	  382.69
     12.3071	        	        	        	        	       0	(  0  0  2)	  0  1
     24.8943	        	        	        	        	       0	(  0  0  4)	  0  1
     28.3308	        	        	        	        	       0	(  1  0  0)	  0  1
     29.0284	        	        	        	        	       0	(  1  0  1)	  0  1
     31.0357	        	        	        	        	       0	(  1  0  2)	  0  1
     34.1455	        	        	        	        	       0	(  1  0  3)	  0  1
     37.7979	        	        	        	        	       0	(  0  0  6)	  0  1
     38.1245	        	        	        	        	       0	(  1  0  4)	  0  1
     42.7767	        	        	        	        	       0	(  1  0  5)	  0  1
     47.9629	        	        	        	        	       0	(  1  0  6)	  0  1
     50.2701	        	        	        	        	       0	(  1  1  0)	  0  1
     51.2243	        	        	        	        	       0	(  0  0  8)	  0  1
     51.9940	        	        	        	        	       0	(  1  1  2)	  0  1
     53.5958	        	        	        	        	       0	(  1  0  7)	  0  1
     56.9445	        	        	        	        	       0	(  1  1  4)	  0  1
     58.7681	        	        	        	        	       0	(  2  0  0)	  0  1
     59.1598	        	        	        	        	       0	(  2  0  1)	  0  1
     59.6287	        	        	        	        	       0	(  1  0  8)	  0  1
     60.3259	        	        	        	        	       0	(  2  0  2)	  0  1
     62.2402	        	        	        	        	       0	(  2  0  3)	  0  1
     64.6432	        	        	        	        	       0	(  1  1  6)	  0  1
     64.8657	        	        	        	        	       0	(  2  0  4)	  0  1
     65.4588	        	        	        	        	       0	(  0  0 10)	  0  1
     66.0478	        	        	        	        	       0	(  1  0  9)	  0  1
     68.1617	        	        	        	        	       0	(  2  0  5)	  0  1
     72.0913	        	        	        	        	       0	(  2  0  6)	  0  1
     72.8670	        	        	        	        	       0	(  1  0 10)	  0  1
     74.6860	        	        	        	        	       0	(  1  1  8)	  0  1
     76.6278	        	        	        	        	       0	(  2  0  7)	  0  1
     80.1281	        	        	        	        	       0	(  1  0 11)	  0  1
     80.9460	        	        	        	        	       0	(  0  0 12)	  0  1
     81.0124	        	        	        	        	       0	(  2  1  0)	  0  1
     81.3525	        	        	        	        	       0	(  2  1  1)	  0  1
     81.7609	        	        	        	        	       0	(  2  0  8)	  0  1
     82.3709	        	        	        	        	       0	(  2  1  2)	  0  1
     84.0632	        	        	        	        	       0	(  2  1  3)	  0  1
     86.4243	        	        	        	        	       0	(  2  1  4)	  0  1
     86.9639	        	        	        	        	       0	(  1  1 10)	  0  1
     87.5021	        	        	        	        	       0	(  2  0  9)	  0  1
     87.9065	        	        	        	        	       0	(  1  0 12)	  0  1
     89.4519	        	        	        	        	       0	(  2  1  5)	  0  1
     93.1515	        	        	        	        	       0	(  2  1  6)	  0  1
     93.8933	        	        	        	        	       0	(  2  0 10)	  0  1
     94.9038	        	        	        	        	       0	(  3  0  0)	  0  1
     95.2414	        	        	        	        	       0	(  3  0  1)	  0  1
     96.2553	        	        	        	        	       0	(  3  0  2)	  0  1
     96.3248	        	        	        	        	       0	(  1  0 13)	  0  1
     97.5429	        	        	        	        	       0	(  2  1  7)	  0  1
     97.9496	        	        	        	        	       0	(  3  0  3)	  0  1
     98.4954	        	        	        	        	       0	(  0  0 14)	  0  1
    100.3342	        	        	        	        	       0	(  3  0  4)	  0  1
    101.0198	        	        	        	        	       0	(  2  0 11)	  0  1
    101.8436	        	        	        	        	       0	(  1  1 12)	  0  1
    102.6687	        	        	        	        	       0	(  2  1  8)	  0  1
    103.4278	        	        	        	        	       0	(  3  0  5)	  0  1
    105.5840	        	        	        	        	       0	(  1  0 14)	  0  1
    107.2655	        	        	        	        	       0	(  3  0  6)	  0  1
    108.6097	        	        	        	        	       0	(  2  1  9)	  0  1
    109.0370	        	        	        	        	       0	(  2  0 12)	  0  1
    111.9092	        	        	        	        	       0	(  3  0  7)	  0  1
    115.5121	        	        	        	        	       0	(  2  1 10)	  0  1
    116.0368	        	        	        	        	       0	(  1  0 15)	  0  1
    116.6349	        	        	        	        	       0	(  2  2  0)	  0  1
    117.4670	        	        	        	        	       0	(  3  0  8)	  0  1
    118.1512	        	        	        	        	       0	(  2  2  2)	  0  1
    118.2297	        	        	        	        	       0	(  2  0 13)	  0  1
    120.0031	        	        	        	        	       0	(  0  0 16)	  0  1
    120.7045	        	        	        	        	       0	(  1  1 14)	  0  1
    122.8405	        	        	        	        	       0	(  2  2  4)	  0  1
    123.6470	        	        	        	        	       0	(  2  1 11)	  0  1
    124.1331	        	        	        	        	       0	(  3  0  9)	  0  1
    124.7034	        	        	        	        	       0	(  3  1  0)	  0  1
    125.1140	        	        	        	        	       0	(  3  1  1)	  0  1
    126.3585	        	        	        	        	       0	(  3  1  2)	  0  1
    128.3962	        	        	        	        	       0	(  1  0 16)	  0  1
    128.4787	        	        	        	        	       0	(  3  1  3)	  0  1
    129.1730	        	        	        	        	       0	(  2  0 14)	  0  1
    131.2884	        	        	        	        	       0	(  2  2  6)	  0  1
    131.5576	        	        	        	        	       0	(  3  1  4)	  0  1
    132.2833	        	        	        	        	       0	(  3  0 10)	  0  1
    133.5722	        	        	        	        	       0	(  2  1 12)	  0  1
    135.7493	        	        	        	        	       0	(  3  1  5)	  0  1
    141.3523	        	        	        	        	       0	(  3  1  6)	  0  1
    142.7798	        	        	        	        	       0	(  3  0 11)	  0  1
    143.3428	        	        	        	        	       0	(  2  0 15)	  0  1
    144.6054	        	        	        	        	       0	(  1  0 17)	  0  1
    145.5436	        	        	        	        	       0	(  2  2  8)	  0  1
    146.7568	        	        	        	        	       0	(  2  1 13)	  0  1
    149.0400	        	        	        	        	       0	(  3  1  7)	  0  1
    149.7070	        	        	        	        	       0	(  1  1 16)	  0  1
    154.1583	        	        	        	        	       0	(  0  0 18)	  0  1
    158.7196	        	        	        	        	       0	(  3  0 12)	  0  1
    158.9023	        	        	        	        	       0	(  4  0  0)	  0  1
    159.8628	        	        	        	        	       0	(  4  0  1)	  0  1
    161.0795	        	        	        	        	       0	(  3  1  8)	  0  1
    163.0566	        	        	        	        	       0	(  4  0  2)	  0  1
    170.0889	        	        	        	        	       0	(  2  0 16)	  0  1
    170.4761	        	        	        	        	       0	(  4  0  3)	  0  1
    174.7525	        	        	        	        	       0	(  2  1 14)	  0  1
