MSG Master    CELL:    5.91936   5.91936  23.27192   90.0000   90.0000  120.0000   SPGR: P 63/m m c             TEMP:   1074.85
  1   1280     2.52000     0.00000    -0.12322     0.00000     0.00000    0
    99     0     2
       0.00000      10.00000
     125.00000     130.00000
 2Theta	Yobs	Ycal	Yobs-Ycal	Backg	Posr	(hkl)	K
      0.7700	    0.00	  563.92	-1751.50	  446.34
      0.8700	    0.00	  564.56	-1751.50	  446.98
      0.9700	   46.00	  565.18	-1751.50	  447.60
      1.0700	   40.00	  565.79	-1751.50	  448.22
      1.1700	   45.00	  566.40	-1751.50	  448.82
      1.2700	   53.00	  566.99	-1751.50	  449.41
      1.3700	   47.00	  567.57	-1751.50	  449.99
      1.4700	   92.00	  568.14	-1751.50	  450.56
      1.5700	  258.00	  568.70	-1751.50	  451.12
      1.6700	  451.00	  569.25	-1751.50	  451.67
      1.7700	  538.00	  569.79	-1751.50	  452.21
      1.8700	  607.00	  570.32	-1751.50	  452.74
      1.9700	  738.00	  570.84	-1751.50	  453.26
      2.0700	  760.00	  571.35	-1751.50	  453.77
      2.1700	  827.00	  571.84	-1751.50	  454.27
      2.2700	  756.00	  572.33	-1751.50	  454.76
      2.3700	  734.00	  572.81	-1751.50	  455.23
      2.4700	  749.00	  573.28	-1751.50	  455.70
      2.5700	  649.00	  573.74	-1751.50	  456.16
      2.6700	  684.00	  574.19	-1751.50	  456.61
      2.7700	  637.00	  574.63	-1751.50	  457.05
      2.8700	  686.00	  575.06	-1751.50	  457.48
      2.9700	  615.00	  575.48	-1751.50	  457.90
      3.0700	  563.00	  575.89	-1751.50	  458.31
      3.1700	  622.00	  576.29	-1751.50	  458.72
      3.2700	  622.00	  576.69	-1751.50	  459.11
      3.3700	  650.00	  577.07	-1751.50	  459.49
      3.4700	  750.00	  577.45	-1751.50	  459.87
      3.5700	  833.00	  577.81	-1751.50	  460.23
      3.6700	  851.00	  578.17	-1751.50	  460.59
      3.7700	  890.00	  578.52	-1751.50	  460.94
      3.8700	  962.00	  578.85	-1751.50	  461.28
      3.9700	 1012.00	  579.18	-1751.50	  461.61
      4.0700	 1018.00	  579.51	-1751.50	  461.93
      4.1700	 1081.00	  579.82	-1751.50	  462.24
      4.2700	 1053.00	  580.12	-1751.50	  462.55
      4.3700	 1110.00	  580.42	-1751.50	  462.84
      4.4700	 1033.00	  580.71	-1751.50	  463.13
      4.5700	 1089.00	  580.98	-1751.50	  463.41
      4.6700	  962.00	  581.26	-1751.50	  463.68
      4.7700	 1019.00	  581.52	-1751.50	  463.94
      4.8700	  933.00	  581.77	-1751.50	  464.19
      4.9700	  972.00	  582.02	-1751.50	  464.44
      5.0700	  968.00	  582.26	-1751.50	  464.68
      5.1700	  896.00	  582.49	-1751.50	  464.91
      5.2700	  928.00	  582.71	-1751.50	  465.13
      5.3700	  898.00	  582.92	-1751.50	  465.35
      5.4700	  878.00	  583.13	-1751.50	  465.55
      5.5700	  869.00	  583.33	-1751.50	  465.75
      5.6700	  879.00	  583.52	-1751.50	  465.94
      5.7700	  832.00	  583.70	-1751.50	  466.13
      5.8700	  856.00	  583.88	-1751.50	  466.30
      5.9700	  798.00	  584.05	-1751.50	  466.47
      6.0700	  821.00	  584.21	-1751.50	  466.63
      6.1700	  787.00	  584.36	-1751.50	  466.79
      6.2700	  782.00	  584.51	-1751.50	  466.93
      6.3700	  806.00	  584.65	-1751.50	  467.07
      6.4700	  766.00	  584.78	-1751.50	  467.21
      6.5700	  726.00	  584.91	-1751.50	  467.33
      6.6700	  755.00	  585.03	-1751.50	  467.45
      6.7700	  747.00	  585.14	-1751.50	  467.56
      6.8700	  644.00	  585.24	-1751.50	  467.67
      6.9700	  669.00	  585.34	-1751.50	  467.76
      7.0700	  751.00	  585.43	-1751.50	  467.86
      7.1700	  733.00	  585.52	-1751.50	  467.94
      7.2700	  711.00	  585.60	-1751.50	  468.02
      7.3700	  624.00	  585.67	-1751.50	  468.09
      7.4700	  657.00	  585.73	-1751.50	  468.15
      7.5700	  634.00	  585.79	-1751.50	  468.21
      7.6700	  636.00	  585.84	-1751.50	  468.26
      7.7700	  678.00	  585.89	-1751.50	  468.31
      7.8700	  661.00	  585.93	-1751.50	  468.35
      7.9700	  646.00	  585.96	-1751.50	  468.38
      8.0700	  659.00	  585.99	-1751.50	  468.41
      8.1700	  650.00	  586.01	-1751.50	  468.43
      8.2700	  646.00	  586.02	-1751.50	  468.44
      8.3700	  613.00	  586.03	-1751.50	  468.45
      8.4700	  636.00	  586.03	-1751.50	  468.45
      8.5700	  681.00	  586.03	-1751.50	  468.45
      8.6700	  648.00	  586.02	-1751.50	  468.44
      8.7700	  612.00	  586.01	-1751.50	  468.43
      8.8700	  580.00	  585.98	-1751.50	  468.41
      8.9700	  635.00	  585.96	-1751.50	  468.38
      9.0700	  632.00	  585.93	-1751.50	  468.35
      9.1700	  611.00	  585.89	-1751.50	  468.31
      9.2700	  608.00	  585.85	-1751.50	  468.27
      9.3700	  611.00	  585.80	-1751.50	  468.22
      9.4700	  566.00	  585.75	-1751.50	  468.17
      9.5700	  641.00	  585.69	-1751.50	  468.11
      9.6700	  606.00	  585.62	-1751.50	  468.04
      9.7700	  607.00	  585.55	-1751.50	  467.98
      9.8700	  646.00	  585.48	-1751.50	  467.90
      9.9700	  638.00	  585.40	-1751.50	  467.82
     10.0700	  578.00	  586.00	-1759.50	  467.74
     10.1700	  561.00	  585.98	-1776.48	  467.65
     10.2700	  608.00	  585.97	-1729.47	  467.55
     10.3700	  624.00	  585.98	-1713.48	  467.45
     10.4700	  602.00	  586.04	-1735.54	  467.35
     10.5700	  581.00	  586.19	-1756.69	  467.24
     10.6700	  592.00	  586.53	-1746.03	  467.13
     10.7700	  612.00	  587.16	-1726.66	  467.01
     10.8700	  603.00	  588.15	-1736.65	  466.88
     10.9700	  571.00	  589.50	-1770.00	  466.76
     11.0700	  571.00	  591.17	-1771.67	  466.62
     11.1700	  527.00	  593.15	-1817.65	  466.49
     11.2700	  630.00	  595.48	-1716.98	  466.35
     11.3700	  570.00	  598.21	-1779.71	  466.20
     11.4700	  559.00	  601.48	-1793.98	  466.05
     11.5700	  614.00	  605.46	-1742.96	  465.90
     11.6700	  624.00	  610.48	-1737.98	  465.74
     11.7700	  652.00	  617.09	-1716.59	  465.58
     11.8700	  635.00	  626.24	-1742.74	  465.41
     11.9700	  674.00	  638.74	-1716.24	  465.24
     12.0700	  714.00	  653.44	-1690.94	  465.06
     12.1700	  694.00	  664.42	-1721.92	  464.88
     12.2700	  683.00	  661.81	-1730.31	  464.70
     12.3700	  662.00	  642.07	-1731.57	  464.52
     12.4700	  662.00	  617.55	-1707.05	  464.32
     12.5700	  617.00	  599.81	-1734.31	  464.13
     12.6700	  591.00	  590.48	-1750.98	  463.93
     12.7700	  537.00	  586.42	-1800.92	  463.73
     12.8700	  570.00	  584.61	-1766.11	  463.53
     12.9700	  569.00	  583.58	-1766.08	  463.32
     13.0700	  575.00	  582.85	-1759.35	  463.10
     13.1700	  584.00	  582.26	-1749.76	  462.89
     13.2700	  574.00	  581.77	-1759.27	  462.67
     13.3700	  553.00	  581.33	-1779.83	  462.45
     13.4700	  581.00	  580.94	-1751.44	  462.22
     13.5700	  566.00	  580.58	-1766.08	  461.99
     13.6700	  567.00	  580.24	-1764.74	  461.76
     13.7700	  550.00	  579.92	-1781.42	  461.52
     13.8700	  579.00	  579.60	-1752.10	  461.28
     13.9700	  539.00	  579.30	-1791.80	  461.04
     14.0700	  562.00	  579.00	-1768.50	  460.79
     14.1700	  595.00	  578.71	-1735.21	  460.54
     14.2700	  565.00	  578.42	-1764.92	  460.29
     14.3700	  638.00	  578.13	-1691.63	  460.04
     14.4700	  567.00	  577.84	-1762.34	  459.78
     14.5700	  565.00	  577.56	-1764.06	  459.52
     14.6700	  551.00	  577.27	-1777.77	  459.26
     14.7700	  573.00	  576.98	-1755.48	  458.99
     14.8700	  582.00	  576.70	-1746.20	  458.72
     14.9700	  588.00	  576.41	-1739.91	  458.45
     15.0700	  585.00	  576.12	-1742.62	  458.17
     15.1700	  593.00	  575.83	-1734.33	  457.90
     15.2700	  576.00	  575.54	-1751.04	  457.62
     15.3700	  586.00	  575.24	-1740.74	  457.34
     15.4700	  561.00	  574.95	-1765.45	  457.05
     15.5700	  570.00	  574.65	-1756.15	  456.76
     15.6700	  563.00	  574.36	-1762.86	  456.47
     15.7700	  575.00	  574.06	-1750.56	  456.18
     15.8700	  553.00	  573.75	-1772.25	  455.89
     15.9700	  559.00	  573.45	-1765.95	  455.59
     16.0700	  553.00	  573.15	-1771.65	  455.29
     16.1700	  567.00	  572.84	-1757.34	  454.99
     16.2700	  600.00	  572.53	-1724.03	  454.69
     16.3700	  583.00	  572.25	-1740.75	  454.38
     16.4700	  563.00	  571.93	-1760.43	  454.07
     16.5700	  606.00	  571.62	-1717.12	  453.76
     16.6700	  575.00	  571.31	-1747.81	  453.45
     16.7700	  493.00	  570.99	-1829.49	  453.14
     16.8700	  543.00	  570.67	-1779.17	  452.82
     16.9700	  567.00	  570.35	-1754.85	  452.50
     17.0700	  548.00	  570.03	-1773.53	  452.18
     17.1700	  559.00	  569.70	-1762.20	  451.86
     17.2700	  595.00	  569.38	-1725.88	  451.54
     17.3700	  536.00	  569.05	-1784.55	  451.21
     17.4700	  549.00	  568.72	-1771.22	  450.89
     17.5700	  585.00	  568.39	-1734.89	  450.56
     17.6700	  574.00	  568.06	-1745.56	  450.23
     17.7700	  619.00	  567.73	-1700.23	  449.90
     17.8700	  554.00	  567.40	-1764.90	  449.56
     17.9700	  581.00	  567.15	-1737.65	  449.23
     18.0700	  547.00	  566.82	-1771.32	  448.89
     18.1700	  562.00	  566.48	-1755.98	  448.55
     18.2700	  551.00	  566.14	-1766.64	  448.21
     18.3700	  507.00	  565.81	-1810.31	  447.87
     18.4700	  564.00	  565.47	-1752.97	  447.53
     18.5700	  574.00	  565.12	-1742.62	  447.18
     18.6700	  589.00	  564.78	-1727.28	  446.84
     18.7700	  557.00	  564.44	-1758.94	  446.49
     18.8700	  556.00	  564.18	-1759.68	  446.15
     18.9700	  578.00	  563.84	-1737.34	  445.80
     19.0700	  556.00	  563.49	-1758.99	  445.45
     19.1700	  574.00	  563.15	-1740.65	  445.09
     19.2700	  587.00	  562.80	-1727.30	  444.74
     19.3700	  552.00	  562.45	-1761.95	  444.39
     19.4700	  571.00	  562.10	-1742.60	  444.03
     19.5700	  575.00	  561.75	-1738.25	  443.68
     19.6700	  543.00	  561.40	-1769.90	  443.32
     19.7700	  542.00	  561.05	-1770.55	  442.96
     19.8700	  548.00	  560.70	-1764.20	  442.61
     19.9700	  576.00	  560.35	-1735.85	  442.25
     20.0700	  579.00	  560.00	-1732.50	  441.89
     20.1700	  603.00	  559.65	-1708.15	  441.52
     20.2700	  549.00	  559.30	-1761.80	  441.16
     20.3700	  545.00	  558.92	-1765.42	  440.80
     20.4700	  580.00	  558.56	-1730.06	  440.44
     20.5700	  531.00	  558.21	-1778.71	  440.07
     20.6700	  551.00	  557.86	-1758.36	  439.71
     20.7700	  591.00	  557.51	-1718.01	  439.34
     20.8700	  541.00	  557.16	-1767.66	  438.97
     20.9700	  556.00	  556.84	-1752.34	  438.61
     21.0700	  530.00	  556.49	-1777.99	  438.24
     21.1700	  542.00	  556.14	-1765.64	  437.87
     21.2700	  549.00	  555.79	-1758.29	  437.50
     21.3700	  525.00	  555.44	-1781.94	  437.14
     21.4700	  498.00	  555.09	-1808.59	  436.77
     21.5700	  554.00	  554.74	-1752.24	  436.40
     21.6700	  572.00	  554.40	-1733.90	  436.03
     21.7700	  556.00	  554.05	-1749.55	  435.65
     21.8700	  574.00	  553.71	-1731.21	  435.28
     21.9700	  572.00	  553.37	-1732.87	  434.91
     22.0700	  565.00	  553.03	-1739.53	  434.54
     22.1700	  558.00	  552.69	-1746.19	  434.17
     22.2700	  577.00	  552.35	-1726.85	  433.80
     22.3700	  509.00	  552.02	-1794.52	  433.42
     22.4700	  563.00	  551.69	-1740.19	  433.05
     22.5700	  547.00	  551.37	-1755.87	  432.68
     22.6700	  581.00	  551.05	-1721.55	  432.31
     22.7700	  568.00	  550.74	-1734.24	  431.93
     22.8700	  550.00	  550.44	-1751.94	  431.56
     22.9700	  548.00	  550.14	-1753.64	  431.19
     23.0700	  538.00	  549.86	-1763.36	  430.81
     23.1700	  550.00	  549.59	-1751.09	  430.44
     23.2700	  567.00	  549.34	-1733.84	  430.07
     23.3700	  566.00	  549.11	-1734.61	  429.70
     23.4700	  551.00	  548.91	-1749.41	  429.32
     23.5700	  542.00	  548.75	-1758.25	  428.95
     23.6700	  537.00	  548.65	-1763.15	  428.58
     23.7700	  559.00	  548.65	-1741.15	  428.20
     23.8700	  556.00	  548.97	-1744.47	  427.83
     23.9700	  557.00	  549.55	-1744.05	  427.46
     24.0700	  535.00	  550.95	-1767.45	  427.09
     24.1700	  560.00	  553.81	-1745.31	  426.72
     24.2700	  616.00	  558.99	-1694.49	  426.34
     24.3700	  583.00	  567.45	-1735.95	  425.97
     24.4700	  608.00	  580.33	-1723.83	  425.60
     24.5700	  581.00	  598.18	-1768.68	  425.23
     24.6700	  612.00	  618.51	-1758.01	  424.86
     24.7700	  620.00	  633.24	-1764.74	  424.49
     24.8700	  562.00	  630.97	-1820.47	  424.12
     24.9700	  625.00	  609.57	-1736.07	  423.75
     25.0700	  591.00	  583.09	-1743.59	  423.38
     25.1700	  570.00	  563.43	-1744.94	  423.02
     25.2700	  571.00	  552.65	-1733.15	  422.65
     25.3700	  586.00	  547.78	-1713.28	  422.28
     25.4700	  527.00	  545.63	-1770.13	  421.92
     25.5700	  537.00	  544.48	-1758.98	  421.55
     25.6700	  568.00	  543.72	-1727.22	  421.18
     25.7700	  551.00	  543.15	-1743.65	  420.82
     25.8700	  559.00	  542.70	-1735.20	  420.45
     25.9700	  563.00	  542.35	-1730.85	  420.09
     26.0700	  585.00	  542.08	-1708.58	  419.73
     26.1700	  528.00	  541.88	-1765.38	  419.37
     26.2700	  606.00	  541.75	-1687.25	  419.00
     26.3700	  544.00	  541.69	-1749.19	  418.64
     26.4700	  572.00	  541.71	-1721.21	  418.28
     26.5700	  551.00	  541.82	-1742.32	  417.92
     26.6700	  525.00	  542.04	-1768.54	  417.56
     26.7700	  599.00	  542.39	-1694.89	  417.21
     26.8700	  536.00	  542.90	-1758.40	  416.85
     26.9700	  546.00	  543.62	-1749.12	  416.49
     27.0700	  517.00	  544.61	-1779.11	  416.14
     27.1700	  534.00	  546.02	-1763.52	  415.78
     27.2700	  556.00	  548.05	-1743.55	  415.43
     27.3700	  554.00	  551.19	-1748.69	  415.08
     27.4700	  571.00	  556.29	-1736.79	  414.72
     27.5700	  542.00	  564.96	-1774.46	  414.37
     27.6700	  618.00	  579.69	-1713.19	  414.02
     27.7700	  537.00	  603.67	-1818.17	  413.67
     27.8700	  605.00	  639.71	-1786.21	  413.33
     27.9700	  680.00	  687.92	-1759.42	  412.98
     28.0700	  762.00	  742.92	-1732.42	  412.63
     28.1700	  870.00	  791.34	-1672.84	  412.29
     28.2700	  925.00	  813.03	-1639.53	  411.94
     28.3700	  897.00	  796.00	-1650.50	  411.60
     28.4700	  811.00	  759.49	-1699.99	  411.26
     28.5700	  691.00	  735.92	-1796.42	  410.92
     28.6700	  703.00	  740.36	-1788.86	  410.58
     28.7700	  737.00	  768.15	-1782.65	  410.24
     28.8700	  778.00	  799.57	-1773.07	  409.90
     28.9700	  811.00	  806.22	-1746.72	  409.57
     29.0700	  779.00	  769.47	-1741.97	  409.23
     29.1700	  746.00	  705.07	-1710.57	  408.90
     29.2700	  616.00	  643.09	-1778.59	  408.57
     29.3700	  587.00	  598.20	-1762.70	  408.23
     29.4700	  599.00	  571.04	-1723.54	  407.90
     29.5700	  626.00	  556.38	-1681.88	  407.58
     29.6700	  649.00	  548.68	-1651.18	  407.25
     29.7700	  598.00	  544.36	-1697.86	  406.92
     29.8700	  631.00	  541.68	-1662.18	  406.60
     29.9700	  565.00	  540.00	-1726.50	  406.27
     30.0700	  531.00	  539.15	-1759.65	  405.95
     30.1700	  562.00	  539.30	-1728.80	  405.63
     30.2700	  612.00	  541.04	-1680.54	  405.31
     30.3700	  507.00	  545.49	-1789.99	  404.99
     30.4700	  546.00	  554.40	-1759.90	  404.67
     30.5700	  522.00	  569.66	-1799.16	  404.36
     30.6700	  603.00	  591.89	-1740.39	  404.04
     30.7700	  625.00	  618.46	-1744.96	  403.73
     30.8700	  652.00	  641.93	-1741.43	  403.42
     30.9700	  603.00	  650.71	-1799.21	  403.11
     31.0700	  599.00	  636.58	-1789.08	  402.80
     31.1700	  572.00	  606.88	-1786.38	  402.49
     31.2700	  592.00	  576.86	-1736.36	  402.19
     31.3700	  506.00	  554.64	-1800.14	  401.88
     31.4700	  552.00	  541.17	-1740.67	  401.58
     31.5700	  561.00	  534.02	-1724.52	  401.28
     31.6700	  562.00	  530.36	-1719.86	  400.98
     31.7700	  539.00	  528.35	-1740.85	  400.68
     31.8700	  529.00	  527.07	-1749.57	  400.39
     31.9700	  553.00	  526.18	-1724.68	  400.09
     32.0700	  521.00	  525.54	-1756.04	  399.80
     32.1700	  505.00	  525.09	-1771.59	  399.50
     32.2700	  529.00	  524.80	-1747.30	  399.21
     32.3700	  544.00	  524.67	-1732.17	  398.93
     32.4700	  578.00	  524.69	-1698.19	  398.64
     32.5700	  536.00	  524.88	-1740.38	  398.35
     32.6700	  531.00	  525.27	-1745.77	  398.07
     32.7700	  567.00	  525.89	-1710.39	  397.79
     32.8700	  560.00	  526.82	-1718.32	  397.51
     32.9700	  511.00	  528.17	-1768.67	  397.23
     33.0700	  554.00	  530.13	-1727.63	  396.95
     33.1700	  566.00	  533.16	-1718.66	  396.67
     33.2700	  593.00	  538.26	-1696.76	  396.40
     33.3700	  548.00	  547.69	-1751.19	  396.13
     33.4700	  539.00	  565.86	-1778.36	  395.86
     33.5700	  611.00	  599.99	-1740.49	  395.59
     33.6700	  647.00	  658.65	-1763.15	  395.32
     33.7700	  764.00	  746.22	-1733.72	  395.06
     33.8700	  877.00	  853.87	-1728.37	  394.79
     33.9700	 1024.00	  953.14	-1680.64	  394.53
     34.0700	 1060.00	  999.24	-1690.74	  394.27
     34.1700	 1002.00	  957.78	-1707.28	  394.01
     34.2700	  930.00	  849.86	-1671.36	  393.75
     34.3700	  775.00	  732.36	-1708.86	  393.50
     34.4700	  613.00	  641.29	-1779.79	  393.25
     34.5700	  590.00	  584.36	-1745.86	  392.99
     34.6700	  565.00	  553.87	-1740.37	  392.74
     34.7700	  558.00	  538.78	-1732.28	  392.50
     34.8700	  527.00	  531.01	-1755.51	  392.25
     34.9700	  496.00	  526.40	-1781.90	  392.01
     35.0700	  557.00	  523.22	-1717.72	  391.76
     35.1700	  523.00	  520.82	-1749.32	  391.52
     35.2700	  548.00	  518.92	-1722.42	  391.28
     35.3700	  499.00	  517.38	-1769.88	  391.05
     35.4700	  521.00	  516.10	-1746.60	  390.81
     35.5700	  525.00	  515.02	-1741.52	  390.58
     35.6700	  520.00	  514.09	-1745.58	  390.35
     35.7700	  516.00	  513.27	-1748.77	  390.12
     35.8700	  549.00	  512.55	-1715.05	  389.89
     35.9700	  517.00	  512.40	-1746.90	  389.66
     36.0700	  513.00	  511.84	-1750.34	  389.44
     36.1700	  482.00	  511.32	-1780.82	  389.22
     36.2700	  525.00	  510.86	-1737.36	  389.00
     36.3700	  494.00	  510.43	-1767.93	  388.78
     36.4700	  496.00	  510.05	-1765.55	  388.56
     36.5700	  483.00	  509.70	-1778.20	  388.35
     36.6700	  531.00	  509.38	-1729.88	  388.13
     36.7700	  525.00	  509.11	-1735.61	  387.92
     36.8700	  486.00	  508.88	-1774.38	  387.71
     36.9700	  519.00	  508.76	-1741.26	  387.51
     37.0700	  513.00	  508.82	-1747.32	  387.30
     37.1700	  539.00	  509.26	-1721.76	  387.10
     37.2700	  524.00	  510.38	-1737.88	  386.90
     37.3700	  535.00	  512.53	-1729.03	  386.70
     37.4700	  505.00	  515.78	-1762.28	  386.50
     37.5700	  475.00	  519.64	-1796.14	  386.31
     37.6700	  511.00	  522.97	-1763.47	  386.11
     37.7700	  543.00	  524.35	-1732.85	  385.92
     37.8700	  466.00	  523.31	-1808.81	  385.73
     37.9700	  487.00	  520.79	-1785.29	  385.54
     38.0700	  494.00	  517.69	-1775.19	  385.36
     38.1700	  549.00	  514.36	-1716.86	  385.17
     38.2700	  511.00	  511.22	-1751.72	  384.99
     38.3700	  502.00	  508.68	-1758.18	  384.81
     38.4700	  496.00	  506.87	-1762.37	  384.63
     38.5700	  504.00	  505.70	-1753.20	  384.46
     38.6700	  490.00	  504.98	-1766.48	  384.28
     38.7700	  506.00	  504.43	-1749.93	  384.11
     38.8700	  477.00	  504.11	-1778.61	  383.94
     38.9700	  494.00	  503.85	-1761.35	  383.77
     39.0700	  479.00	  503.62	-1776.12	  383.61
     39.1700	  510.00	  503.42	-1744.92	  383.44
     39.2700	  487.00	  503.15	-1767.65	  383.28
     39.3700	  545.00	  502.97	-1709.47	  383.12
     39.4700	  499.00	  502.81	-1755.31	  382.96
     39.5700	  513.00	  502.66	-1741.16	  382.81
     39.6700	  492.00	  502.52	-1762.02	  382.65
     39.7700	  527.00	  502.51	-1727.01	  382.50
     39.8700	  497.00	  502.38	-1756.88	  382.35
     39.9700	  524.00	  502.27	-1729.77	  382.20
     40.0700	  431.00	  502.17	-1822.67	  382.06
     40.1700	  537.00	  502.08	-1716.58	  381.91
     40.2700	  478.00	  502.00	-1775.50	  381.77
     40.3700	  465.00	  501.93	-1788.43	  381.63
     40.4700	  506.00	  501.87	-1747.37	  381.49
     40.5700	  514.00	  501.83	-1739.33	  381.35
     40.6700	  513.00	  501.80	-1740.30	  381.22
     40.7700	  490.00	  501.80	-1763.30	  381.09
     40.8700	  475.00	  501.81	-1778.31	  380.96
     40.9700	  485.00	  501.86	-1768.36	  380.83
     41.0700	  505.00	  501.93	-1748.43	  380.70
     41.1700	  521.00	  502.01	-1732.51	  380.58
     41.2700	  516.00	  502.17	-1737.67	  380.45
     41.3700	  486.00	  502.39	-1767.89	  380.33
     41.4700	  497.00	  502.70	-1757.20	  380.22
     41.5700	  529.00	  503.12	-1725.62	  380.10
     41.6700	  492.00	  504.12	-1763.62	  379.98
     41.7700	  538.00	  504.99	-1718.49	  379.87
     41.8700	  521.00	  506.46	-1736.96	  379.76
     41.9700	  515.00	  509.19	-1745.69	  379.65
     42.0700	  491.00	  514.59	-1775.09	  379.55
     42.1700	  509.00	  524.93	-1767.43	  379.44
     42.2700	  512.00	  543.09	-1782.59	  379.34
     42.3700	  573.00	  570.75	-1749.25	  379.24
     42.4700	  501.00	  606.19	-1856.69	  379.14
     42.5700	  603.00	  641.84	-1790.34	  379.04
     42.6700	  582.00	  664.91	-1834.41	  378.95
     42.7700	  576.00	  663.47	-1838.97	  378.85
     42.8700	  521.00	  637.31	-1867.81	  378.76
     42.9700	  551.00	  599.78	-1800.28	  378.67
     43.0700	  561.00	  564.42	-1754.92	  378.59
     43.1700	  501.00	  538.02	-1788.52	  378.50
     43.2700	  484.00	  521.46	-1788.96	  378.42
     43.3700	  507.00	  512.39	-1756.89	  378.34
     43.4700	  430.00	  507.82	-1829.32	  378.26
     43.5700	  496.00	  505.51	-1761.01	  378.18
     43.6700	  528.00	  504.22	-1727.72	  378.10
     43.7700	  508.00	  503.56	-1747.06	  378.03
     43.8700	  511.00	  502.97	-1743.47	  377.96
     43.9700	  519.00	  502.53	-1735.03	  377.89
     44.0700	  521.00	  502.19	-1732.69	  377.82
     44.1700	  512.00	  501.93	-1741.43	  377.75
     44.2700	  517.00	  501.76	-1736.26	  377.69
     44.3700	  550.00	  501.61	-1703.11	  377.63
     44.4700	  486.00	  501.50	-1767.00	  377.57
     44.5700	  513.00	  501.31	-1739.81	  377.51
     44.6700	  494.00	  501.27	-1758.77	  377.45
     44.7700	  520.00	  501.26	-1732.76	  377.40
     44.8700	  509.00	  501.28	-1743.78	  377.35
     44.9700	  486.00	  501.32	-1766.82	  377.30
     45.0700	  510.00	  501.38	-1742.88	  377.25
     45.1700	  487.00	  501.46	-1765.96	  377.20
     45.2700	  495.00	  501.74	-1758.24	  377.16
     45.3700	  497.00	  501.87	-1756.37	  377.11
     45.4700	  526.00	  502.02	-1727.52	  377.07
     45.5700	  470.00	  502.19	-1783.69	  377.03
     45.6700	  488.00	  502.38	-1765.88	  376.99
     45.7700	  462.00	  502.60	-1792.10	  376.96
     45.8700	  485.00	  502.85	-1769.35	  376.92
     45.9700	  501.00	  503.12	-1753.62	  376.89
     46.0700	  511.00	  503.42	-1743.92	  376.86
     46.1700	  480.00	  503.76	-1775.26	  376.83
     46.2700	  513.00	  504.14	-1742.64	  376.81
     46.3700	  524.00	  504.57	-1732.07	  376.78
     46.4700	  475.00	  505.04	-1781.54	  376.76
     46.5700	  498.00	  505.58	-1759.08	  376.74
     46.6700	  516.00	  506.18	-1741.68	  376.72
     46.7700	  520.00	  506.88	-1738.38	  376.70
     46.8700	  468.00	  507.71	-1791.21	  376.69
     46.9700	  529.00	  508.75	-1731.25	  376.67
     47.0700	  503.00	  510.21	-1758.71	  376.66
     47.1700	  507.00	  512.47	-1756.97	  376.65
     47.2700	  503.00	  516.27	-1764.77	  376.64
     47.3700	  524.00	  522.52	-1750.02	  376.63
     47.4700	  519.00	  532.26	-1764.76	  376.63
     47.5700	  551.00	  545.65	-1746.15	  376.63
     47.6700	  564.00	  561.51	-1749.01	  376.62
     47.7700	  578.00	  576.59	-1750.09	  376.62
     47.8700	  603.00	  586.12	-1734.62	  376.63
     47.9700	  583.00	  586.29	-1754.79	  376.63
     48.0700	  583.00	  577.71	-1746.21	  376.64
     48.1700	  515.00	  565.06	-1801.56	  376.64
     48.2700	  546.00	  553.15	-1758.65	  376.65
     48.3700	  543.00	  544.60	-1753.10	  376.66
     48.4700	  547.00	  540.24	-1744.74	  376.67
     48.5700	  511.00	  539.58	-1780.08	  376.69
     48.6700	  549.00	  541.71	-1744.21	  376.70
     48.7700	  558.00	  545.90	-1739.40	  376.72
     48.8700	  542.00	  551.86	-1761.36	  376.74
     48.9700	  541.00	  559.73	-1770.23	  376.76
     49.0700	  539.00	  570.26	-1782.76	  376.78
     49.1700	  616.00	  585.19	-1720.69	  376.81
     49.2700	  593.00	  608.07	-1766.57	  376.83
     49.3700	  665.00	  645.62	-1732.12	  376.86
     49.4700	  719.00	  709.08	-1741.58	  376.89
     49.5700	  803.00	  814.42	-1762.92	  376.92
     49.6700	  886.00	  980.05	-1845.55	  376.95
     49.7700	 1172.00	 1218.73	-1798.23	  376.98
     49.8700	 1444.00	 1528.92	-1836.42	  377.02
     49.9700	 1810.00	 1881.76	-1823.26	  377.05
     50.0700	 2238.00	 2212.41	-1725.91	  377.09
     50.1700	 2499.00	 2424.28	-1676.78	  377.13
     50.2700	 2512.00	 2430.71	-1670.21	  377.17
     50.3700	 2357.00	 2226.53	-1621.03	  377.22
     50.4700	 1912.00	 1897.08	-1736.58	  377.26
     50.5700	 1440.00	 1544.25	-1855.75	  377.31
     50.6700	 1039.00	 1235.79	-1948.29	  377.35
     50.7700	  830.00	 1001.59	-1923.09	  377.40
     50.8700	  692.00	  843.55	-1903.05	  377.45
     50.9700	  677.00	  746.98	-1821.48	  377.51
     51.0700	  631.00	  691.08	-1811.58	  377.56
     51.1700	  567.00	  656.80	-1841.30	  377.61
     51.2700	  603.00	  631.44	-1779.94	  377.67
     51.3700	  563.00	  609.61	-1798.11	  377.73
     51.4700	  613.00	  590.57	-1729.07	  377.79
     51.5700	  585.00	  574.89	-1741.39	  377.85
     51.6700	  576.00	  562.94	-1738.44	  377.91
     51.7700	  566.00	  554.45	-1739.95	  377.97
     51.8700	  528.00	  548.71	-1772.21	  378.04
     51.9700	  509.00	  544.96	-1787.46	  378.11
     52.0700	  583.00	  542.56	-1711.06	  378.17
     52.1700	  542.00	  541.17	-1750.67	  378.24
     52.2700	  608.00	  540.66	-1684.16	  378.31
     52.3700	  564.00	  541.28	-1728.78	  378.39
     52.4700	  604.00	  542.99	-1690.49	  378.46
     52.5700	  521.00	  546.90	-1777.40	  378.53
     52.6700	  601.00	  555.03	-1705.53	  378.61
     52.7700	  635.00	  571.24	-1687.74	  378.69
     52.8700	  625.00	  601.69	-1728.19	  378.77
     52.9700	  724.00	  654.30	-1681.80	  378.85
     53.0700	  804.00	  736.17	-1683.67	  378.93
     53.1700	  905.00	  848.83	-1695.33	  379.01
     53.2700	  995.00	  982.92	-1739.42	  379.10
     53.3700	 1102.00	 1114.73	-1764.23	  379.18
     53.4700	 1198.00	 1208.24	-1761.74	  379.27
     53.5700	 1168.00	 1228.24	-1811.74	  379.36
     53.6700	 1155.00	 1165.41	-1761.91	  379.44
     53.7700	 1018.00	 1045.77	-1779.27	  379.53
     53.8700	  837.00	  908.52	-1823.02	  379.63
     53.9700	  752.00	  784.02	-1783.52	  379.72
     54.0700	  650.00	  688.02	-1789.52	  379.81
     54.1700	  630.00	  623.23	-1744.73	  379.91
     54.2700	  556.00	  584.30	-1779.80	  380.00
     54.3700	  614.00	  563.06	-1700.56	  380.10
     54.4700	  627.00	  552.34	-1676.84	  380.20
     54.5700	  566.00	  547.23	-1732.73	  380.30
     54.6700	  559.00	  544.95	-1737.45	  380.40
     54.7700	  534.00	  544.20	-1761.70	  380.50
     54.8700	  525.00	  544.41	-1770.91	  380.61
     54.9700	  550.00	  545.36	-1746.86	  380.71
     55.0700	  613.00	  547.00	-1685.50	  380.82
     55.1700	  581.00	  549.33	-1719.83	  380.92
     55.2700	  553.00	  552.42	-1750.92	  381.03
     55.3700	  605.00	  556.41	-1702.91	  381.14
     55.4700	  556.00	  561.45	-1756.95	  381.25
     55.5700	  562.00	  567.94	-1757.44	  381.36
     55.6700	  577.00	  576.63	-1751.13	  381.47
     55.7700	  606.00	  589.06	-1734.56	  381.59
     55.8700	  597.00	  608.40	-1762.90	  381.70
     55.9700	  615.00	  640.63	-1777.13	  381.82
     56.0700	  664.00	  695.95	-1783.45	  381.93
     56.1700	  705.00	  789.31	-1835.81	  382.05
     56.2700	  849.00	  938.92	-1841.42	  382.17
     56.3700	 1059.00	 1161.05	-1853.55	  382.29
     56.4700	 1374.00	 1461.24	-1838.74	  382.41
     56.5700	 1664.00	 1824.26	-1911.76	  382.53
     56.6700	 2196.00	 2205.97	-1761.47	  382.65
     56.7700	 2405.00	 2531.02	-1877.52	  382.77
     56.8700	 2687.00	 2706.53	-1771.03	  382.90
     56.9700	 2598.00	 2667.62	-1821.12	  383.02
     57.0700	 2409.00	 2429.36	-1771.86	  383.15
     57.1700	 2046.00	 2074.59	-1780.09	  383.27
     57.2700	 1674.00	 1694.51	-1772.01	  383.40
     57.3700	 1282.00	 1353.79	-1823.29	  383.53
     57.4700	  934.00	 1085.39	-1902.89	  383.66
     57.5700	  869.00	  895.97	-1778.47	  383.79
     57.6700	  790.00	  775.25	-1736.75	  383.92
     57.7700	  730.00	  706.12	-1727.62	  384.05
     57.8700	  704.00	  672.46	-1719.96	  384.18
     57.9700	  662.00	  662.98	-1752.48	  384.31
     58.0700	  694.00	  671.74	-1729.24	  384.45
     58.1700	  702.00	  696.88	-1746.38	  384.58
     58.2700	  764.00	  738.65	-1726.15	  384.72
     58.3700	  865.00	  797.53	-1684.03	  384.85
     58.4700	  965.00	  872.53	-1659.03	  384.99
     58.5700	 1089.00	  959.49	-1621.99	  385.13
     58.6700	 1307.00	 1050.34	-1494.84	  385.27
     58.7700	 1437.00	 1135.24	-1449.74	  385.40
     58.8700	 1552.00	 1206.68	-1406.18	  385.54
     58.9700	 1557.00	 1259.62	-1454.12	  385.68
     59.0700	 1688.00	 1287.62	-1351.12	  385.83
     59.1700	 1585.00	 1285.04	-1451.54	  385.97
     59.2700	 1522.00	 1255.51	-1485.01	  386.11
     59.3700	 1373.00	 1212.74	-1591.24	  386.25
     59.4700	 1243.00	 1171.48	-1679.98	  386.40
     59.5700	 1168.00	 1142.06	-1725.56	  386.54
     59.6700	 1143.00	 1132.46	-1740.96	  386.68
     59.7700	 1141.00	 1150.79	-1761.29	  386.83
     59.8700	 1228.00	 1201.96	-1725.46	  386.98
     59.9700	 1290.00	 1281.87	-1743.37	  387.12
     60.0700	 1417.00	 1374.36	-1708.86	  387.27
     60.1700	 1522.00	 1451.78	-1681.28	  387.42
     60.2700	 1554.00	 1481.66	-1679.16	  387.56
     60.3700	 1542.00	 1443.25	-1652.75	  387.71
     60.4700	 1453.00	 1342.23	-1640.73	  387.86
     60.5700	 1218.00	 1204.60	-1738.10	  388.01
     60.6700	 1062.00	 1058.89	-1748.39	  388.16
     60.7700	  884.00	  926.09	-1793.59	  388.31
     60.8700	  810.00	  818.17	-1759.67	  388.46
     60.9700	  686.00	  739.32	-1804.82	  388.62
     61.0700	  644.00	  688.57	-1796.07	  388.77
     61.1700	  624.00	  662.75	-1790.25	  388.92
     61.2700	  626.00	  659.23	-1784.73	  389.07
     61.3700	  673.00	  677.63	-1756.13	  389.22
     61.4700	  708.00	  720.06	-1763.56	  389.38
     61.5700	  782.00	  789.85	-1759.35	  389.53
     61.6700	  833.00	  889.13	-1807.63	  389.69
     61.7700	 1003.00	 1015.85	-1764.35	  389.84
     61.8700	 1061.00	 1160.92	-1851.42	  390.00
     61.9700	 1215.00	 1306.58	-1843.08	  390.15
     62.0700	 1388.00	 1426.20	-1789.70	  390.31
     62.1700	 1391.00	 1489.31	-1849.81	  390.46
     62.2700	 1334.00	 1475.45	-1892.95	  390.62
     62.3700	 1301.00	 1388.73	-1839.23	  390.77
     62.4700	 1167.00	 1254.68	-1839.18	  390.93
     62.5700	  963.00	 1103.72	-1892.22	  391.09
     62.6700	  876.00	  959.71	-1835.21	  391.24
     62.7700	  765.00	  837.30	-1823.80	  391.40
     62.8700	  687.00	  742.60	-1807.10	  391.56
     62.9700	  669.00	  675.11	-1757.61	  391.72
     63.0700	  616.00	  630.37	-1765.87	  391.87
     63.1700	  541.00	  602.52	-1813.02	  392.03
     63.2700	  575.00	  586.13	-1762.63	  392.19
     63.3700	  597.00	  577.19	-1731.69	  392.35
     63.4700	  583.00	  573.27	-1741.77	  392.51
     63.5700	  567.00	  573.47	-1757.97	  392.67
     63.6700	  634.00	  578.14	-1695.64	  392.83
     63.7700	  620.00	  588.66	-1720.16	  392.98
     63.8700	  582.00	  607.11	-1776.61	  393.14
     63.9700	  631.00	  635.75	-1756.25	  393.30
     64.0700	  724.00	  676.17	-1703.67	  393.46
     64.1700	  752.00	  728.33	-1727.83	  393.62
     64.2700	  800.00	  789.48	-1740.98	  393.78
     64.3700	  905.00	  853.62	-1700.12	  393.94
     64.4700	  989.00	  911.40	-1673.90	  394.10
     64.5700	  977.00	  951.76	-1726.26	  394.26
     64.6700	 1069.00	  965.24	-1647.74	  394.42
     64.7700	 1053.00	  950.80	-1649.30	  394.58
     64.8700	  994.00	  913.00	-1670.50	  394.74
     64.9700	  896.00	  860.92	-1716.42	  394.89
     65.0700	  889.00	  804.37	-1666.87	  395.05
     65.1700	  774.00	  751.17	-1728.67	  395.21
     65.2700	  770.00	  705.71	-1687.21	  395.37
     65.3700	  677.00	  669.06	-1743.56	  395.53
     65.4700	  649.00	  640.27	-1742.77	  395.69
     65.5700	  618.00	  617.79	-1751.29	  395.85
     65.6700	  659.00	  600.38	-1692.88	  396.01
     65.7700	  583.00	  587.12	-1755.62	  396.16
     65.8700	  588.00	  577.35	-1740.85	  396.32
     65.9700	  549.00	  570.56	-1773.06	  396.48
     66.0700	  558.00	  566.32	-1759.82	  396.64
     66.1700	  541.00	  564.20	-1774.70	  396.80
     66.2700	  558.00	  563.83	-1757.33	  396.95
     66.3700	  528.00	  564.91	-1788.41	  397.11
     66.4700	  561.00	  567.24	-1757.74	  397.27
     66.5700	  546.00	  570.85	-1776.35	  397.43
     66.6700	  564.00	  576.09	-1763.59	  397.58
     66.7700	  570.00	  583.88	-1765.38	  397.74
     66.8700	  613.00	  595.63	-1734.13	  397.89
     66.9700	  606.00	  614.26	-1759.76	  398.05
     67.0700	  618.00	  644.34	-1777.84	  398.21
     67.1700	  660.00	  692.44	-1783.94	  398.36
     67.2700	  760.00	  767.06	-1758.56	  398.52
     67.3700	  829.00	  877.48	-1799.98	  398.67
     67.4700	  963.00	 1031.45	-1819.95	  398.82
     67.5700	 1190.00	 1232.46	-1793.96	  398.98
     67.6700	 1509.00	 1475.22	-1717.72	  399.13
     67.7700	 1776.00	 1743.76	-1719.26	  399.29
     67.8700	 1999.00	 2009.44	-1761.94	  399.44
     67.9700	 2297.00	 2232.08	-1686.58	  399.59
     68.0700	 2448.00	 2366.27	-1669.77	  399.74
     68.1700	 2355.00	 2377.85	-1774.35	  399.89
     68.2700	 2261.00	 2263.54	-1754.04	  400.05
     68.3700	 2016.00	 2053.35	-1788.85	  400.20
     68.4700	 1905.00	 1792.29	-1638.79	  400.35
     68.5700	 1551.00	 1522.23	-1722.73	  400.50
     68.6700	 1247.00	 1273.91	-1778.41	  400.64
     68.7700	 1003.00	 1065.61	-1814.11	  400.79
     68.8700	  901.00	  903.93	-1754.43	  400.94
     68.9700	  747.00	  786.93	-1791.43	  401.09
     69.0700	  732.00	  707.34	-1726.84	  401.24
     69.1700	  643.00	  655.82	-1764.32	  401.38
     69.2700	  651.00	  623.68	-1724.18	  401.53
     69.3700	  604.00	  603.97	-1751.47	  401.68
     69.4700	  584.00	  591.79	-1759.29	  401.82
     69.5700	  568.00	  584.05	-1767.55	  401.96
     69.6700	  542.00	  578.91	-1788.41	  402.11
     69.7700	  574.00	  575.38	-1752.88	  402.25
     69.8700	  657.00	  572.95	-1667.45	  402.39
     69.9700	  578.00	  571.34	-1744.84	  402.54
     70.0700	  576.00	  570.44	-1745.94	  402.68
     70.1700	  562.00	  570.20	-1759.70	  402.82
     70.2700	  598.00	  570.63	-1724.13	  402.96
     70.3700	  575.00	  571.84	-1748.34	  403.10
     70.4700	  576.00	  574.01	-1749.51	  403.24
     70.5700	  581.00	  577.59	-1748.09	  403.37
     70.6700	  526.00	  583.41	-1808.91	  403.51
     70.7700	  597.00	  592.87	-1747.37	  403.65
     70.8700	  574.00	  608.33	-1785.83	  403.78
     70.9700	  614.00	  633.22	-1770.72	  403.92
     71.0700	  615.00	  672.32	-1808.82	  404.05
     71.1700	  692.00	  731.36	-1790.86	  404.19
     71.2700	  786.00	  816.28	-1781.78	  404.32
     71.3700	  949.00	  932.59	-1735.09	  404.45
     71.4700	 1033.00	 1080.02	-1798.52	  404.58
     71.5700	 1224.00	 1255.67	-1783.17	  404.71
     71.6700	 1415.00	 1448.93	-1785.43	  404.84
     71.7700	 1636.00	 1641.70	-1757.20	  404.97
     71.8700	 1762.00	 1809.15	-1798.65	  405.10
     71.9700	 1872.00	 1922.61	-1802.11	  405.23
     72.0700	 1920.00	 1957.90	-1789.40	  405.35
     72.1700	 1983.00	 1906.61	-1675.11	  405.48
     72.2700	 1745.00	 1780.90	-1787.40	  405.60
     72.3700	 1659.00	 1607.65	-1700.15	  405.73
     72.4700	 1552.00	 1414.76	-1614.26	  405.85
     72.5700	 1306.00	 1225.63	-1671.13	  405.97
     72.6700	 1148.00	 1056.47	-1659.97	  406.09
     72.7700	 1118.00	  916.14	-1549.64	  406.21
     72.8700	  953.00	  806.93	-1605.43	  406.33
     72.9700	  901.00	  726.58	-1577.08	  406.45
     73.0700	  880.00	  670.17	-1541.67	  406.57
     73.1700	  789.00	  632.01	-1594.51	  406.68
     73.2700	  739.00	  606.78	-1619.28	  406.80
     73.3700	  671.00	  590.26	-1670.76	  406.91
     73.4700	  655.00	  579.39	-1675.89	  407.03
     73.5700	  621.00	  572.18	-1702.68	  407.14
     73.6700	  598.00	  567.42	-1720.92	  407.25
     73.7700	  549.00	  564.39	-1766.89	  407.36
     73.8700	  578.00	  562.73	-1736.23	  407.47
     73.9700	  594.00	  562.18	-1719.68	  407.58
     74.0700	  609.00	  562.57	-1705.07	  407.68
     74.1700	  615.00	  563.69	-1700.19	  407.79
     74.2700	  601.00	  565.29	-1715.79	  407.90
     74.3700	  663.00	  567.03	-1655.53	  408.00
     74.4700	  623.00	  568.51	-1697.01	  408.10
     74.5700	  592.00	  569.30	-1728.80	  408.20
     74.6700	  659.00	  569.06	-1661.56	  408.30
     74.7700	  630.00	  567.70	-1689.20	  408.40
     74.8700	  627.00	  565.42	-1689.92	  408.50
     74.9700	  627.00	  562.62	-1687.12	  408.60
     75.0700	  609.00	  559.74	-1702.24	  408.70
     75.1700	  575.00	  557.28	-1733.78	  408.79
     75.2700	  574.00	  555.66	-1733.16	  408.88
     75.3700	  611.00	  555.25	-1695.75	  408.98
     75.4700	  568.00	  556.62	-1740.12	  409.07
     75.5700	  545.00	  560.20	-1766.70	  409.16
     75.6700	  552.00	  566.40	-1765.90	  409.25
     75.7700	  561.00	  575.91	-1766.41	  409.33
     75.8700	  609.00	  588.93	-1731.43	  409.42
     75.9700	  648.00	  605.45	-1708.95	  409.51
     76.0700	  657.00	  624.97	-1719.47	  409.59
     76.1700	  649.00	  646.38	-1748.88	  409.67
     76.2700	  666.00	  667.93	-1753.43	  409.75
     76.3700	  684.00	  687.23	-1754.73	  409.83
     76.4700	  694.00	  701.55	-1759.05	  409.91
     76.5700	  700.00	  708.35	-1759.85	  409.99
     76.6700	  727.00	  706.21	-1730.71	  410.07
     76.7700	  676.00	  695.58	-1771.08	  410.14
     76.8700	  658.00	  678.46	-1771.96	  410.22
     76.9700	  631.00	  657.41	-1777.91	  410.29
     77.0700	  638.00	  635.39	-1748.89	  410.36
     77.1700	  611.00	  614.33	-1754.83	  410.43
     77.2700	  583.00	  595.65	-1764.15	  410.50
     77.3700	  562.00	  580.14	-1769.64	  410.57
     77.4700	  546.00	  568.01	-1773.51	  410.63
     77.5700	  569.00	  559.00	-1741.50	  410.70
     77.6700	  574.00	  552.64	-1730.14	  410.76
     77.7700	  511.00	  548.33	-1788.83	  410.82
     77.8700	  520.00	  545.51	-1777.01	  410.88
     77.9700	  520.00	  543.72	-1775.22	  410.94
     78.0700	  561.00	  542.59	-1733.09	  411.00
     78.1700	  542.00	  541.89	-1751.39	  411.05
     78.2700	  550.00	  541.46	-1742.96	  411.11
     78.3700	  516.00	  541.19	-1776.69	  411.16
     78.4700	  521.00	  541.05	-1771.55	  411.21
     78.5700	  510.00	  541.01	-1782.51	  411.26
     78.6700	  501.00	  541.06	-1791.56	  411.31
     78.7700	  563.00	  541.20	-1729.70	  411.36
     78.8700	  513.00	  541.47	-1779.97	  411.41
     78.9700	  514.00	  541.89	-1779.39	  411.45
     79.0700	  525.00	  542.50	-1769.00	  411.50
     79.1700	  526.00	  543.36	-1768.86	  411.54
     79.2700	  530.00	  544.36	-1765.86	  411.58
     79.3700	  508.00	  545.91	-1789.41	  411.62
     79.4700	  509.00	  547.90	-1790.40	  411.65
     79.5700	  538.00	  550.44	-1763.94	  411.69
     79.6700	  543.00	  553.60	-1762.10	  411.72
     79.7700	  551.00	  557.52	-1758.02	  411.76
     79.8700	  556.00	  562.33	-1757.83	  411.79
     79.9700	  543.00	  568.23	-1776.73	  411.82
     80.0700	  566.00	  575.44	-1760.94	  411.85
     80.1700	  548.00	  584.25	-1787.75	  411.87
     80.2700	  554.00	  594.94	-1792.44	  411.90
     80.3700	  612.00	  607.75	-1747.25	  411.92
     80.4700	  589.00	  622.71	-1785.21	  411.94
     80.5700	  625.00	  639.61	-1766.11	  411.96
     80.6700	  640.00	  657.84	-1769.34	  411.98
     80.7700	  634.00	  676.45	-1793.95	  412.00
     80.8700	  661.00	  694.10	-1784.60	  412.02
     80.9700	  705.00	  709.36	-1755.86	  412.03
     81.0700	  692.00	  720.94	-1780.44	  412.04
     81.1700	  725.00	  728.00	-1754.50	  412.05
     81.2700	  775.00	  730.10	-1706.60	  412.06
     81.3700	  760.00	  727.23	-1718.73	  412.07
     81.4700	  714.00	  719.83	-1757.33	  412.08
     81.5700	  781.00	  708.64	-1679.14	  412.08
     81.6700	  757.00	  694.60	-1689.10	  412.08
     81.7700	  750.00	  678.66	-1680.16	  412.09
     81.8700	  752.00	  661.78	-1661.28	  412.09
     81.9700	  707.00	  644.85	-1689.35	  412.08
     82.0700	  711.00	  628.78	-1669.28	  412.08
     82.1700	  658.00	  614.08	-1707.58	  412.08
     82.2700	  613.00	  601.07	-1739.57	  412.07
     82.3700	  623.00	  589.86	-1718.36	  412.06
     82.4700	  619.00	  580.43	-1712.93	  412.05
     82.5700	  604.00	  572.70	-1720.20	  412.04
     82.6700	  562.00	  566.63	-1756.13	  412.02
     82.7700	  568.00	  562.10	-1745.60	  412.01
     82.8700	  602.00	  559.03	-1708.53	  411.99
     82.9700	  586.00	  557.34	-1722.84	  411.97
     83.0700	  544.00	  556.96	-1764.46	  411.95
     83.1700	  523.00	  557.80	-1786.30	  411.93
     83.2700	  511.00	  559.77	-1800.27	  411.91
     83.3700	  514.00	  562.73	-1800.23	  411.88
     83.4700	  532.00	  566.47	-1785.97	  411.86
     83.5700	  569.00	  570.70	-1753.20	  411.83
     83.6700	  529.00	  575.04	-1797.54	  411.80
     83.7700	  525.00	  579.04	-1805.54	  411.77
     83.8700	  619.00	  582.21	-1714.71	  411.73
     83.9700	  556.00	  584.05	-1779.55	  411.70
     84.0700	  566.00	  584.23	-1769.73	  411.66
     84.1700	  535.00	  582.68	-1799.18	  411.62
     84.2700	  582.00	  579.59	-1749.09	  411.58
     84.3700	  556.00	  575.38	-1770.88	  411.54
     84.4700	  508.00	  570.52	-1814.02	  411.50
     84.5700	  541.00	  565.44	-1775.94	  411.45
     84.6700	  536.00	  560.50	-1776.00	  411.40
     84.7700	  543.00	  555.98	-1764.48	  411.36
     84.8700	  488.00	  552.04	-1815.54	  411.31
     84.9700	  486.00	  548.77	-1814.27	  411.25
     85.0700	  533.00	  546.18	-1764.68	  411.20
     85.1700	  531.00	  544.22	-1764.72	  411.14
     85.2700	  513.00	  542.84	-1781.34	  411.09
     85.3700	  539.00	  541.92	-1754.42	  411.03
     85.4700	  544.00	  541.41	-1748.91	  410.97
     85.5700	  528.00	  541.23	-1764.73	  410.90
     85.6700	  500.00	  541.34	-1792.84	  410.84
     85.7700	  503.00	  541.72	-1790.22	  410.77
     85.8700	  515.00	  542.39	-1778.89	  410.70
     85.9700	  549.00	  543.39	-1745.89	  410.64
     86.0700	  532.00	  544.78	-1764.28	  410.56
     86.1700	  518.00	  546.69	-1780.19	  410.49
     86.2700	  543.00	  549.22	-1757.72	  410.42
     86.3700	  546.00	  552.53	-1758.03	  410.34
     86.4700	  564.00	  556.76	-1744.26	  410.26
     86.5700	  526.00	  562.02	-1787.52	  410.18
     86.6700	  586.00	  568.36	-1733.86	  410.10
     86.7700	  545.00	  575.41	-1781.91	  410.02
     86.8700	  617.00	  583.59	-1718.09	  409.93
     86.9700	  602.00	  592.24	-1741.74	  409.84
     87.0700	  608.00	  600.84	-1744.34	  409.76
     87.1700	  626.00	  608.76	-1734.26	  409.67
     87.2700	  600.00	  615.27	-1766.77	  409.57
     87.3700	  653.00	  619.64	-1718.14	  409.48
     87.4700	  618.00	  621.31	-1754.81	  409.38
     87.5700	  657.00	  620.05	-1714.55	  409.29
     87.6700	  702.00	  616.08	-1665.58	  409.19
     87.7700	  615.00	  609.99	-1746.49	  409.09
     87.8700	  638.00	  602.56	-1716.06	  408.98
     87.9700	  612.00	  594.65	-1734.15	  408.88
     88.0700	  642.00	  587.01	-1696.51	  408.77
     88.1700	  578.00	  580.32	-1753.82	  408.67
     88.2700	  622.00	  575.10	-1704.60	  408.56
     88.3700	  570.00	  571.67	-1753.17	  408.45
     88.4700	  573.00	  570.22	-1748.72	  408.33
     88.5700	  558.00	  570.76	-1764.26	  408.22
     88.6700	  546.00	  573.13	-1778.63	  408.10
     88.7700	  565.00	  577.07	-1763.57	  407.98
     88.8700	  605.00	  582.16	-1728.66	  407.87
     88.9700	  571.00	  587.91	-1768.41	  407.74
     89.0700	  615.00	  593.75	-1730.25	  407.62
     89.1700	  583.00	  599.05	-1767.55	  407.50
     89.2700	  606.00	  603.16	-1748.66	  407.37
     89.3700	  601.00	  605.52	-1756.02	  407.24
     89.4700	  630.00	  605.77	-1727.27	  407.11
     89.5700	  555.00	  603.81	-1800.31	  406.98
     89.6700	  600.00	  599.88	-1751.38	  406.85
     89.7700	  554.00	  594.43	-1791.93	  406.71
     89.8700	  564.00	  587.99	-1775.49	  406.58
     89.9700	  571.00	  581.09	-1761.59	  406.44
     90.0700	  591.00	  574.20	-1734.70	  406.30
     90.1700	  540.00	  567.69	-1779.19	  406.16
     90.2700	  545.00	  561.83	-1768.33	  406.01
     90.3700	  471.00	  556.76	-1837.26	  405.87
     90.4700	  513.00	  552.57	-1791.07	  405.72
     90.5700	  482.00	  549.24	-1818.74	  405.57
     90.6700	  518.00	  546.71	-1780.21	  405.42
     90.7700	  478.00	  544.89	-1818.39	  405.27
     90.8700	  523.00	  543.68	-1772.18	  405.12
     90.9700	  519.00	  542.97	-1775.47	  404.96
     91.0700	  512.00	  542.70	-1782.20	  404.81
     91.1700	  541.00	  542.81	-1753.31	  404.65
     91.2700	  532.00	  543.30	-1762.80	  404.49
     91.3700	  547.00	  544.19	-1748.69	  404.33
     91.4700	  534.00	  545.56	-1763.06	  404.17
     91.5700	  507.00	  547.52	-1792.02	  404.00
     91.6700	  524.00	  550.20	-1777.70	  403.84
     91.7700	  537.00	  553.79	-1768.29	  403.67
     91.8700	  539.00	  558.27	-1770.77	  403.50
     91.9700	  566.00	  564.24	-1749.74	  403.33
     92.0700	  529.00	  571.66	-1794.16	  403.16
     92.1700	  548.00	  580.66	-1784.16	  402.98
     92.2700	  593.00	  591.28	-1749.78	  402.81
     92.3700	  608.00	  603.49	-1746.99	  402.63
     92.4700	  624.00	  617.11	-1744.61	  402.45
     92.5700	  626.00	  631.87	-1757.37	  402.27
     92.6700	  691.00	  647.36	-1707.86	  402.09
     92.7700	  678.00	  663.04	-1736.54	  401.91
     92.8700	  708.00	  678.32	-1721.82	  401.72
     92.9700	  773.00	  692.55	-1671.05	  401.54
     93.0700	  727.00	  705.24	-1729.74	  401.35
     93.1700	  803.00	  716.10	-1664.60	  401.16
     93.2700	  780.00	  725.25	-1696.75	  400.97
     93.3700	  763.00	  733.12	-1721.62	  400.78
     93.4700	  783.00	  740.34	-1708.84	  400.58
     93.5700	  832.00	  747.60	-1667.10	  400.39
     93.6700	  820.00	  755.52	-1687.02	  400.19
     93.7700	  835.00	  764.64	-1681.15	  400.00
     93.8700	  882.00	  775.43	-1644.93	  399.80
     93.9700	  827.00	  788.25	-1712.75	  399.60
     94.0700	  861.00	  803.37	-1693.87	  399.39
     94.1700	  837.00	  820.81	-1735.31	  399.19
     94.2700	  878.00	  840.22	-1713.72	  398.99
     94.3700	  903.00	  860.85	-1709.35	  398.78
     94.4700	  864.00	  881.48	-1768.98	  398.57
     94.5700	  878.00	  900.50	-1774.00	  398.36
     94.6700	  898.00	  916.00	-1769.50	  398.15
     94.7700	  945.00	  926.02	-1732.52	  397.94
     94.8700	  918.00	  928.92	-1762.42	  397.73
     94.9700	  907.00	  923.76	-1768.26	  397.51
     95.0700	  903.00	  910.61	-1759.11	  397.30
     95.1700	  846.00	  890.52	-1796.02	  397.08
     95.2700	  810.00	  865.23	-1806.73	  396.86
     95.3700	  847.00	  836.81	-1741.31	  396.64
     95.4700	  755.00	  807.38	-1803.88	  396.42
     95.5700	  732.00	  778.97	-1798.47	  396.20
     95.6700	  719.00	  753.43	-1785.93	  395.98
     95.7700	  713.00	  732.47	-1770.97	  395.75
     95.8700	  666.00	  717.57	-1803.07	  395.53
     95.9700	  694.00	  710.08	-1767.58	  395.30
     96.0700	  740.00	  711.14	-1722.64	  395.07
     96.1700	  741.00	  721.76	-1732.26	  394.84
     96.2700	  753.00	  742.72	-1741.22	  394.61
     96.3700	  822.00	  774.55	-1704.05	  394.38
     96.4700	  818.00	  817.42	-1750.92	  394.15
     96.5700	  817.00	  871.06	-1805.56	  393.91
     96.6700	  913.00	  934.63	-1773.13	  393.68
     96.7700	  983.00	 1006.63	-1775.13	  393.44
     96.8700	 1047.00	 1084.84	-1789.34	  393.20
     96.9700	 1159.00	 1166.25	-1758.75	  392.97
     97.0700	 1269.00	 1247.15	-1729.65	  392.73
     97.1700	 1317.00	 1323.18	-1757.68	  392.49
     97.2700	 1369.00	 1389.60	-1772.10	  392.24
     97.3700	 1372.00	 1441.66	-1821.16	  392.00
     97.4700	 1473.00	 1475.18	-1753.68	  391.76
     97.5700	 1436.00	 1487.39	-1802.89	  391.51
     97.6700	 1448.00	 1477.53	-1781.03	  391.27
     97.7700	 1429.00	 1446.98	-1769.48	  391.02
     97.8700	 1389.00	 1398.84	-1761.34	  390.77
     97.9700	 1369.00	 1337.34	-1719.84	  390.52
     98.0700	 1249.00	 1267.06	-1769.56	  390.27
     98.1700	 1238.00	 1192.54	-1706.04	  390.02
     98.2700	 1096.00	 1117.96	-1773.46	  389.77
     98.3700	 1015.00	 1046.99	-1783.49	  389.52
     98.4700	  974.00	  982.73	-1760.23	  389.27
     98.5700	  873.00	  927.64	-1806.14	  389.01
     98.6700	  875.00	  883.62	-1760.12	  388.76
     98.7700	  793.00	  852.06	-1810.56	  388.50
     98.8700	  792.00	  833.91	-1793.41	  388.25
     98.9700	  764.00	  829.83	-1817.33	  387.99
     99.0700	  818.00	  840.21	-1773.71	  387.73
     99.1700	  851.00	  865.23	-1765.73	  387.47
     99.2700	  892.00	  904.83	-1764.33	  387.21
     99.3700	  930.00	  958.78	-1780.28	  386.95
     99.4700	 1010.00	 1026.52	-1768.02	  386.69
     99.5700	 1104.00	 1107.13	-1754.63	  386.43
     99.6700	 1174.00	 1199.22	-1776.72	  386.17
     99.7700	 1241.00	 1300.80	-1811.30	  385.91
     99.8700	 1430.00	 1409.25	-1730.75	  385.64
     99.9700	 1553.00	 1521.21	-1719.71	  385.38
    100.0700	 1721.00	 1632.66	-1663.16	  385.11
    100.1700	 1737.00	 1739.07	-1753.57	  384.85
    100.2700	 1831.00	 1835.89	-1756.39	  384.58
    100.3700	 1912.00	 1918.96	-1758.46	  384.32
    100.4700	 2017.00	 1985.00	-1719.50	  384.05
    100.5700	 2030.00	 2031.67	-1753.17	  383.78
    100.6700	 2196.00	 2057.52	-1613.02	  383.51
    100.7700	 2079.00	 2061.75	-1734.25	  383.24
    100.8700	 2245.00	 2044.12	-1550.62	  382.98
    100.9700	 2020.00	 2005.24	-1736.74	  382.71
    101.0700	 2002.00	 1946.84	-1696.34	  382.44
    101.1700	 1916.00	 1872.10	-1707.60	  382.17
    101.2700	 1822.00	 1785.41	-1714.91	  381.90
    101.3700	 1739.00	 1691.79	-1704.29	  381.62
    101.4700	 1577.00	 1596.39	-1770.89	  381.35
    101.5700	 1522.00	 1503.84	-1733.34	  381.08
    101.6700	 1435.00	 1417.98	-1734.48	  380.81
    101.7700	 1329.00	 1341.61	-1764.11	  380.54
    101.8700	 1294.00	 1276.39	-1733.89	  380.27
    101.9700	 1207.00	 1222.95	-1767.45	  379.99
    102.0700	 1167.00	 1180.83	-1765.33	  379.72
    102.1700	 1124.00	 1148.72	-1776.22	  379.45
    102.2700	 1172.00	 1124.50	-1704.00	  379.17
    102.3700	 1099.00	 1105.54	-1758.04	  378.90
    102.4700	 1102.00	 1089.03	-1738.53	  378.63
    102.5700	 1085.00	 1072.22	-1738.72	  378.35
    102.6700	 1069.00	 1052.85	-1735.35	  378.08
    102.7700	 1008.00	 1029.42	-1772.92	  377.81
    102.8700	  943.00	 1001.29	-1809.79	  377.53
    102.9700	  953.00	  968.68	-1767.18	  377.26
    103.0700	  891.00	  932.36	-1792.86	  376.99
    103.1700	  879.00	  893.50	-1766.00	  376.71
    103.2700	  833.00	  853.37	-1771.87	  376.44
    103.3700	  852.00	  813.27	-1712.77	  376.17
    103.4700	  726.00	  774.37	-1799.87	  375.89
    103.5700	  728.00	  737.67	-1761.17	  375.62
    103.6700	  684.00	  703.95	-1771.45	  375.35
    103.7700	  678.00	  673.75	-1747.25	  375.07
    103.8700	  672.00	  647.38	-1726.88	  374.80
    103.9700	  641.00	  624.93	-1735.43	  374.53
    104.0700	  619.00	  606.30	-1738.80	  374.26
    104.1700	  584.00	  591.26	-1758.76	  373.99
    104.2700	  563.00	  579.47	-1767.97	  373.71
    104.3700	  605.00	  570.57	-1717.07	  373.44
    104.4700	  511.00	  564.14	-1804.64	  373.17
    104.5700	  557.00	  559.79	-1754.29	  372.90
    104.6700	  567.00	  557.14	-1741.64	  372.63
    104.7700	  564.00	  555.86	-1743.36	  372.36
    104.8700	  530.00	  555.67	-1777.17	  372.09
    104.9700	  568.00	  556.32	-1739.82	  371.82
    105.0700	  545.00	  557.61	-1764.11	  371.56
    105.1700	  560.00	  559.41	-1750.91	  371.29
    105.2700	  544.00	  561.60	-1769.10	  371.02
    105.3700	  530.00	  564.08	-1785.58	  370.76
    105.4700	  531.00	  566.88	-1787.38	  370.49
    105.5700	  553.00	  569.99	-1768.49	  370.23
    105.6700	  590.00	  573.49	-1734.99	  369.96
    105.7700	  540.00	  577.48	-1788.98	  369.70
    105.8700	  513.00	  582.11	-1820.61	  369.44
    105.9700	  568.00	  587.49	-1770.99	  369.17
    106.0700	  549.00	  593.74	-1796.24	  368.91
    106.1700	  595.00	  600.90	-1757.40	  368.65
    106.2700	  609.00	  608.99	-1751.49	  368.39
    106.3700	  645.00	  617.94	-1724.44	  368.13
    106.4700	  584.00	  627.59	-1795.09	  367.88
    106.5700	  597.00	  637.71	-1792.21	  367.62
    106.6700	  616.00	  648.02	-1783.52	  367.36
    106.7700	  655.00	  658.14	-1754.64	  367.11
    106.8700	  632.00	  667.68	-1787.18	  366.86
    106.9700	  654.00	  676.22	-1773.72	  366.60
    107.0700	  649.00	  683.34	-1785.84	  366.35
    107.1700	  693.00	  688.74	-1747.24	  366.10
    107.2700	  631.00	  692.22	-1812.72	  365.85
    107.3700	  600.00	  693.76	-1845.26	  365.60
    107.4700	  682.00	  693.55	-1763.05	  365.36
    107.5700	  630.00	  691.92	-1813.42	  365.11
    107.6700	  682.00	  689.30	-1758.80	  364.87
    107.7700	  688.00	  686.18	-1749.68	  364.63
    107.8700	  674.00	  683.00	-1760.50	  364.38
    107.9700	  674.00	  680.16	-1757.66	  364.14
    108.0700	  687.00	  677.93	-1742.43	  363.90
    108.1700	  682.00	  676.50	-1746.00	  363.67
    108.2700	  681.00	  675.91	-1746.41	  363.43
    108.3700	  685.00	  676.08	-1742.58	  363.20
    108.4700	  694.00	  676.82	-1734.32	  362.97
    108.5700	  719.00	  677.84	-1710.34	  362.73
    108.6700	  716.00	  678.76	-1714.26	  362.50
    108.7700	  736.00	  679.17	-1694.67	  362.28
    108.8700	  684.00	  678.67	-1746.17	  362.05
    108.9700	  693.00	  676.89	-1735.39	  361.83
    109.0700	  661.00	  673.60	-1764.10	  361.60
    109.1700	  688.00	  668.69	-1732.19	  361.38
    109.2700	  649.00	  662.21	-1764.71	  361.16
    109.3700	  632.00	  654.33	-1773.83	  360.95
    109.4700	  662.00	  645.31	-1734.81	  360.73
    109.5700	  588.00	  635.49	-1798.99	  360.52
    109.6700	  637.00	  625.20	-1739.70	  360.31
    109.7700	  580.00	  614.77	-1786.27	  360.10
    109.8700	  607.00	  604.52	-1749.02	  359.89
    109.9700	  638.00	  594.72	-1708.22	  359.69
    110.0700	  602.00	  585.59	-1735.09	  359.48
    110.1700	  587.00	  577.30	-1741.80	  359.28
    110.2700	  556.00	  569.97	-1765.47	  359.08
    110.3700	  567.00	  563.67	-1748.17	  358.89
    110.4700	  572.00	  558.41	-1737.91	  358.69
    110.5700	  574.00	  554.17	-1731.67	  358.50
    110.6700	  546.00	  550.89	-1756.39	  358.31
    110.7700	  505.00	  548.50	-1795.00	  358.13
    110.8700	  593.00	  546.92	-1705.42	  357.94
    110.9700	  576.00	  546.04	-1721.54	  357.76
    111.0700	  592.00	  545.78	-1705.28	  357.58
    111.1700	  531.00	  546.04	-1766.54	  357.40
    111.2700	  557.00	  546.75	-1741.25	  357.23
    111.3700	  493.00	  547.83	-1806.33	  357.06
    111.4700	  560.00	  549.23	-1740.73	  356.89
    111.5700	  564.00	  550.91	-1738.41	  356.72
    111.6700	  541.00	  552.83	-1763.33	  356.56
    111.7700	  590.00	  554.97	-1716.47	  356.40
    111.8700	  572.00	  557.30	-1736.80	  356.24
    111.9700	  563.00	  559.83	-1748.33	  356.08
    112.0700	  557.00	  562.56	-1757.06	  355.93
    112.1700	  532.00	  565.51	-1785.01	  355.78
    112.2700	  548.00	  568.69	-1772.19	  355.64
    112.3700	  589.00	  572.15	-1734.65	  355.49
    112.4700	  615.00	  575.91	-1712.41	  355.35
    112.5700	  605.00	  580.04	-1726.54	  355.22
    112.6700	  613.00	  584.61	-1723.11	  355.08
    112.7700	  677.00	  589.70	-1664.20	  354.95
    112.8700	  646.00	  595.43	-1700.93	  354.82
    112.9700	  678.00	  601.95	-1675.45	  354.70
    113.0700	  682.00	  609.47	-1678.97	  354.58
    113.1700	  728.00	  618.23	-1641.73	  354.46
    113.2700	  714.00	  628.55	-1666.05	  354.35
    113.3700	  781.00	  640.86	-1611.36	  354.24
    113.4700	  844.00	  655.65	-1563.15	  354.13
    113.5700	  919.00	  673.60	-1506.10	  354.03
    113.6700	  837.00	  695.49	-1609.99	  353.93
    113.7700	  909.00	  722.31	-1564.81	  353.83
    113.8700	 1000.00	  755.21	-1506.71	  353.74
    113.9700	  970.00	  795.56	-1577.06	  353.65
    114.0700	 1032.00	  844.95	-1564.45	  353.57
    114.1700	 1099.00	  905.20	-1557.70	  353.48
    114.2700	 1142.00	  978.28	-1587.78	  353.41
    114.3700	 1282.00	 1066.37	-1535.87	  353.33
    114.4700	 1314.00	 1171.72	-1609.22	  353.26
    114.5700	 1419.00	 1296.66	-1629.16	  353.20
    114.6700	 1606.00	 1443.48	-1588.98	  353.14
    114.7700	 1834.00	 1614.28	-1531.78	  353.08
    114.8700	 1901.00	 1810.85	-1661.35	  353.03
    114.9700	 2174.00	 2034.52	-1612.02	  352.98
    115.0700	 2358.00	 2286.06	-1679.56	  352.93
    115.1700	 2620.00	 2565.52	-1697.02	  352.89
    115.2700	 2850.00	 2871.97	-1773.47	  352.86
    115.3700	 3010.00	 3203.47	-1944.97	  352.83
    115.4700	 3367.00	 3556.92	-1941.42	  352.80
    115.5700	 3834.00	 3928.13	-1845.63	  352.78
    115.6700	 4069.00	 4311.71	-1994.21	  352.76
    115.7700	 4512.00	 4700.92	-1940.42	  352.75
    115.8700	 4741.00	 5087.93	-2098.43	  352.74
    115.9700	 5220.00	 5463.75	-1995.25	  352.73
    116.0700	 5547.00	 5818.60	-2023.10	  352.73
    116.1700	 5933.00	 6142.05	-1960.55	  352.74
    116.2700	 6253.00	 6423.25	-1921.75	  352.75
    116.3700	 6678.00	 6651.82	-1725.32	  352.77
    116.4700	 6825.00	 6818.41	-1744.91	  352.79
    116.5700	 6882.00	 6915.83	-1785.33	  352.81
    116.6700	 7006.00	 6939.69	-1685.19	  352.84
    116.7700	 6991.00	 6889.04	-1649.54	  352.88
    116.8700	 6967.00	 6766.53	-1551.03	  352.92
    116.9700	 6709.00	 6578.06	-1620.56	  352.96
    117.0700	 6306.00	 6331.95	-1777.45	  353.01
    117.1700	 6115.00	 6038.05	-1674.55	  353.07
    117.2700	 5674.00	 5707.00	-1784.50	  353.13
    117.3700	 5330.00	 5349.43	-1770.93	  353.20
    117.4700	 5034.00	 4975.51	-1693.01	  353.27
    117.5700	 4684.00	 4594.50	-1662.00	  353.35
    117.6700	 4313.00	 4214.60	-1653.10	  353.44
    117.7700	 4051.00	 3843.02	-1543.52	  353.53
    117.8700	 3605.00	 3485.68	-1632.18	  353.62
    117.9700	 3362.00	 3147.32	-1536.82	  353.72
    118.0700	 2923.00	 2831.42	-1659.92	  353.83
    118.1700	 2528.00	 2540.28	-1763.78	  353.94
    118.2700	 2255.00	 2275.33	-1771.83	  354.06
    118.3700	 1962.00	 2037.00	-1826.50	  354.18
    118.4700	 1815.00	 1824.98	-1761.48	  354.31
    118.5700	 1563.00	 1638.28	-1826.78	  354.45
    118.6700	 1390.00	 1475.44	-1836.94	  354.59
    118.7700	 1220.00	 1334.69	-1866.19	  354.74
    118.8700	 1174.00	 1214.02	-1791.52	  354.90
    118.9700	  986.00	 1111.35	-1876.85	  355.06
    119.0700	  905.00	 1024.52	-1871.02	  355.23
    119.1700	  907.00	  951.49	-1795.99	  355.40
    119.2700	  817.00	  890.33	-1824.83	  355.58
    119.3700	  749.00	  839.30	-1841.80	  355.77
    119.4700	  717.00	  796.82	-1831.32	  355.97
    119.5700	  678.00	  761.50	-1835.00	  356.17
    119.6700	  647.00	  732.15	-1836.65	  356.37
    119.7700	  656.00	  707.75	-1803.25	  356.59
    119.8700	  585.00	  687.47	-1853.97	  356.81
    119.9700	  619.00	  670.59	-1803.09	  357.04
    120.0700	  589.00	  656.53	-1819.03	  357.27
    120.1700	  567.00	  644.82	-1829.32	  357.52
    120.2700	  594.00	  635.08	-1792.58	  357.77
    120.3700	  579.00	  627.01	-1799.51	  358.02
    120.4700	  565.00	  620.36	-1806.86	  358.29
    120.5700	  531.00	  614.95	-1835.45	  358.56
    120.6700	  579.00	  610.62	-1783.12	  358.83
    120.7700	  598.00	  607.25	-1760.75	  359.12
    120.8700	  573.00	  604.76	-1783.26	  359.41
    120.9700	  581.00	  603.07	-1773.57	  359.71
    121.0700	  600.00	  602.14	-1753.64	  360.02
    121.1700	  559.00	  601.90	-1794.40	  360.34
    121.2700	  584.00	  602.31	-1769.81	  360.66
    121.3700	  583.00	  603.34	-1771.84	  360.99
    121.4700	  601.00	  604.94	-1755.44	  361.33
    121.5700	  584.00	  607.06	-1774.56	  361.68
    121.6700	  618.00	  609.64	-1743.14	  362.04
    121.7700	  581.00	  612.60	-1783.10	  362.40
    121.8700	  595.00	  615.89	-1772.39	  362.77
    121.9700	  593.00	  619.42	-1777.92	  363.15
    122.0700	  604.00	  623.09	-1770.59	  363.54
    122.1700	  630.00	  626.80	-1748.30	  363.93
    122.2700	  664.00	  630.43	-1717.93	  364.34
    122.3700	  628.00	  633.88	-1757.38	  364.75
    122.4700	  699.00	  637.03	-1689.53	  365.17
    122.5700	  669.00	  639.77	-1722.27	  365.60
    122.6700	  620.00	  641.99	-1773.49	  366.04
    122.7700	  644.00	  643.62	-1751.12	  366.49
    122.8700	  658.00	  644.60	-1738.10	  366.94
    122.9700	  664.00	  644.88	-1732.38	  367.41
    123.0700	  630.00	  644.47	-1765.97	  367.88
    123.1700	  672.00	  643.38	-1722.88	  368.37
    123.2700	  706.00	  641.67	-1687.17	  368.86
    123.3700	  694.00	  639.38	-1696.88	  369.36
    123.4700	  668.00	  636.61	-1720.11	  369.87
    123.5700	  628.00	  633.43	-1756.93	  370.39
    123.6700	  662.00	  629.92	-1719.42	  370.92
    123.7700	  609.00	  626.16	-1768.66	  371.45
    123.8700	  647.00	  622.24	-1726.74	  372.00
    123.9700	  627.00	  618.24	-1742.74	  372.56
    124.0700	  601.00	  614.23	-1764.73	  373.13
    124.1700	  622.00	  610.27	-1739.77	  373.70
    124.2700	  641.00	  606.42	-1716.92	  374.29
    124.3700	  597.00	  602.72	-1757.22	  374.88
    124.4700	  630.00	  599.23	-1720.73	  375.49
    124.5700	  633.00	  595.96	-1714.46	  376.11
    124.6700	  622.00	  592.94	-1722.44	  376.73
    124.7700	  599.00	  590.19	-1742.69	  377.37
    124.8700	  606.00	  587.73	-1733.23	  378.01
    124.9700	  594.00	  496.25	-1653.75	  378.67
    125.0700	  608.00	  496.92	-1751.50	  379.34
    125.1700	  568.00	  497.59	-1751.50	  380.02
    125.2700	  569.00	  498.28	-1751.50	  380.70
    125.3700	  554.00	  498.98	-1751.50	  381.40
    125.4700	  581.00	  499.69	-1751.50	  382.11
    125.5700	  576.00	  500.41	-1751.50	  382.83
    125.6700	  607.00	  501.14	-1751.50	  383.56
    125.7700	  587.00	  501.88	-1751.50	  384.30
    125.8700	  562.00	  502.63	-1751.50	  385.05
    125.9700	  562.00	  503.39	-1751.50	  385.82
    126.0700	  565.00	  504.17	-1751.50	  386.59
    126.1700	  546.00	  504.95	-1751.50	  387.38
    126.2700	  605.00	  505.75	-1751.50	  388.17
    126.3700	  613.00	  506.56	-1751.50	  388.98
    126.4700	  614.00	  507.38	-1751.50	  389.80
    126.5700	  530.00	  508.21	-1751.50	  390.63
    126.6700	  612.00	  509.05	-1751.50	  391.47
    126.7700	  655.00	  509.91	-1751.50	  392.33
    126.8700	  626.00	  510.77	-1751.50	  393.19
    126.9700	  593.00	  511.65	-1751.50	  394.07
    127.0700	  611.00	  512.54	-1751.50	  394.96
    127.1700	  614.00	  513.44	-1751.50	  395.86
    127.2700	  661.00	  514.35	-1751.50	  396.78
    127.3700	  619.00	  515.28	-1751.50	  397.70
    127.4700	  628.00	  516.22	-1751.50	  398.64
    127.5700	  692.00	  517.17	-1751.50	  399.59
    127.6700	  661.00	  518.13	-1751.50	  400.55
    127.7700	  691.00	  519.10	-1751.50	  401.53
    127.8700	  662.00	  520.09	-1751.50	  402.51
    127.9700	  716.00	  521.09	-1751.50	  403.51
    128.0700	  746.00	  522.11	-1751.50	  404.53
    128.1700	  795.00	  523.13	-1751.50	  405.55
    128.2700	  736.00	  524.17	-1751.50	  406.59
    128.3700	  804.00	  525.22	-1751.50	  407.64
    128.4700	  793.00	  526.28	-1751.50	  408.71
    128.5700	    0.00	  527.36	-1751.50	  409.78
    128.6700	    0.00	  528.45	-1751.50	  410.87
     12.3098	        	        	        	        	       0	(  0  0  2)	  0  1
     24.8922	        	        	        	        	       0	(  0  0  4)	  0  1
     28.3339	        	        	        	        	       0	(  1  0  0)	  0  1
     29.0311	        	        	        	        	       0	(  1  0  1)	  0  1
     31.0371	        	        	        	        	       0	(  1  0  2)	  0  1
     34.1453	        	        	        	        	       0	(  1  0  3)	  0  1
     37.7905	        	        	        	        	       0	(  0  0  6)	  0  1
     38.1221	        	        	        	        	       0	(  1  0  4)	  0  1
     42.7718	        	        	        	        	       0	(  1  0  5)	  0  1
     47.9554	        	        	        	        	       0	(  1  0  6)	  0  1
     50.2695	        	        	        	        	       0	(  1  1  0)	  0  1
     51.2110	        	        	        	        	       0	(  0  0  8)	  0  1
     51.9924	        	        	        	        	       0	(  1  1  2)	  0  1
     53.5853	        	        	        	        	       0	(  1  0  7)	  0  1
     56.9398	        	        	        	        	       0	(  1  1  4)	  0  1
     58.7659	        	        	        	        	       0	(  2  0  0)	  0  1
     59.1575	        	        	        	        	       0	(  2  0  1)	  0  1
     59.6151	        	        	        	        	       0	(  1  0  8)	  0  1
     60.3227	        	        	        	        	       0	(  2  0  2)	  0  1
     62.2358	        	        	        	        	       0	(  2  0  3)	  0  1
     64.6338	        	        	        	        	       0	(  1  1  6)	  0  1
     64.8596	        	        	        	        	       0	(  2  0  4)	  0  1
     65.4385	        	        	        	        	       0	(  0  0 10)	  0  1
     66.0307	        	        	        	        	       0	(  1  0  9)	  0  1
     68.1535	        	        	        	        	       0	(  2  0  5)	  0  1
     72.0806	        	        	        	        	       0	(  2  0  6)	  0  1
     72.8459	        	        	        	        	       0	(  1  0 10)	  0  1
     74.6703	        	        	        	        	       0	(  1  1  8)	  0  1
     76.6142	        	        	        	        	       0	(  2  0  7)	  0  1
     80.1026	        	        	        	        	       0	(  1  0 11)	  0  1
     80.9167	        	        	        	        	       0	(  0  0 12)	  0  1
     81.0054	        	        	        	        	       0	(  2  1  0)	  0  1
     81.3452	        	        	        	        	       0	(  2  1  1)	  0  1
     81.7438	        	        	        	        	       0	(  2  0  8)	  0  1
     82.3629	        	        	        	        	       0	(  2  1  2)	  0  1
     84.0540	        	        	        	        	       0	(  2  1  3)	  0  1
     86.4134	        	        	        	        	       0	(  2  1  4)	  0  1
     86.9400	        	        	        	        	       0	(  1  1 10)	  0  1
     87.4810	        	        	        	        	       0	(  2  0  9)	  0  1
     87.8756	        	        	        	        	       0	(  1  0 12)	  0  1
     89.4387	        	        	        	        	       0	(  2  1  5)	  0  1
     93.1356	        	        	        	        	       0	(  2  1  6)	  0  1
     93.8673	        	        	        	        	       0	(  2  0 10)	  0  1
     94.8928	        	        	        	        	       0	(  3  0  0)	  0  1
     95.2301	        	        	        	        	       0	(  3  0  1)	  0  1
     96.2432	        	        	        	        	       0	(  3  0  2)	  0  1
     96.2873	        	        	        	        	       0	(  1  0 13)	  0  1
     97.5234	        	        	        	        	       0	(  2  1  7)	  0  1
     97.9362	        	        	        	        	       0	(  3  0  3)	  0  1
     98.4529	        	        	        	        	       0	(  0  0 14)	  0  1
    100.3188	        	        	        	        	       0	(  3  0  4)	  0  1
    100.9879	        	        	        	        	       0	(  2  0 11)	  0  1
    101.8077	        	        	        	        	       0	(  1  1 12)	  0  1
    102.6450	        	        	        	        	       0	(  2  1  8)	  0  1
    103.4099	        	        	        	        	       0	(  3  0  5)	  0  1
    105.5381	        	        	        	        	       0	(  1  0 14)	  0  1
    107.2442	        	        	        	        	       0	(  3  0  6)	  0  1
    108.5806	        	        	        	        	       0	(  2  1  9)	  0  1
    108.9974	        	        	        	        	       0	(  2  0 12)	  0  1
    111.8835	        	        	        	        	       0	(  3  0  7)	  0  1
    115.4758	        	        	        	        	       0	(  2  1 10)	  0  1
    115.9789	        	        	        	        	       0	(  1  0 15)	  0  1
    116.6149	        	        	        	        	       0	(  2  2  0)	  0  1
    117.4356	        	        	        	        	       0	(  3  0  8)	  0  1
    118.1297	        	        	        	        	       0	(  2  2  2)	  0  1
    118.1795	        	        	        	        	       0	(  2  0 13)	  0  1
    119.9361	        	        	        	        	       0	(  0  0 16)	  0  1
    120.6474	        	        	        	        	       0	(  1  1 14)	  0  1
    122.8140	        	        	        	        	       0	(  2  2  4)	  0  1
    123.6006	        	        	        	        	       0	(  2  1 11)	  0  1
    124.0937	        	        	        	        	       0	(  3  0  9)	  0  1
    124.6786	        	        	        	        	       0	(  3  1  0)	  0  1
    125.0887	        	        	        	        	       0	(  3  1  1)	  0  1
    126.3318	        	        	        	        	       0	(  3  1  2)	  0  1
    128.3188	        	        	        	        	       0	(  1  0 16)	  0  1
    128.4493	        	        	        	        	       0	(  3  1  3)	  0  1
    129.1062	        	        	        	        	       0	(  2  0 14)	  0  1
    131.2512	        	        	        	        	       0	(  2  2  6)	  0  1
    131.5242	        	        	        	        	       0	(  3  1  4)	  0  1
    132.2318	        	        	        	        	       0	(  3  0 10)	  0  1
    133.5098	        	        	        	        	       0	(  2  1 12)	  0  1
    135.7097	        	        	        	        	       0	(  3  1  5)	  0  1
    141.3027	        	        	        	        	       0	(  3  1  6)	  0  1
    142.7064	        	        	        	        	       0	(  3  0 11)	  0  1
    143.2416	        	        	        	        	       0	(  2  0 15)	  0  1
    144.4836	        	        	        	        	       0	(  1  0 17)	  0  1
    145.4792	        	        	        	        	       0	(  2  2  8)	  0  1
    146.6605	        	        	        	        	       0	(  2  1 13)	  0  1
    148.9718	        	        	        	        	       0	(  3  1  7)	  0  1
    149.5744	        	        	        	        	       0	(  1  1 16)	  0  1
    153.9786	        	        	        	        	       0	(  0  0 18)	  0  1
    158.5764	        	        	        	        	       0	(  3  0 12)	  0  1
    158.8189	        	        	        	        	       0	(  4  0  0)	  0  1
    159.7745	        	        	        	        	       0	(  4  0  1)	  0  1
    160.9552	        	        	        	        	       0	(  3  1  8)	  0  1
    162.9484	        	        	        	        	       0	(  4  0  2)	  0  1
    169.6784	        	        	        	        	       0	(  2  0 16)	  0  1
    170.2725	        	        	        	        	       0	(  4  0  3)	  0  1
    174.0914	        	        	        	        	       0	(  2  1 14)	  0  1
