MSG Master    CELL:    5.91987   5.91987  23.27692   90.0000   90.0000  120.0000   SPGR: P 63/m m c             TEMP:   1074.85
  1   1280     2.52000     0.00000    -0.12386     0.00000     0.00000    0
    99     0     2
       0.00000      10.00000
     125.00000     130.00000
 2Theta	Yobs	Ycal	Yobs-Ycal	Backg	Posr	(hkl)	K
      0.7700	    0.00	  533.65	-1713.14	  415.93
      0.8700	    0.00	  534.55	-1713.14	  416.82
      0.9700	   32.00	  535.43	-1713.14	  417.70
      1.0700	   36.00	  536.29	-1713.14	  418.57
      1.1700	   66.00	  537.15	-1713.14	  419.43
      1.2700	   55.00	  537.99	-1713.14	  420.27
      1.3700	   53.00	  538.83	-1713.14	  421.10
      1.4700	  103.00	  539.65	-1713.14	  421.92
      1.5700	  261.00	  540.45	-1713.14	  422.73
      1.6700	  469.00	  541.25	-1713.14	  423.53
      1.7700	  543.00	  542.04	-1713.14	  424.31
      1.8700	  658.00	  542.81	-1713.14	  425.08
      1.9700	  717.00	  543.57	-1713.14	  425.85
      2.0700	  744.00	  544.32	-1713.14	  426.60
      2.1700	  808.00	  545.06	-1713.14	  427.33
      2.2700	  756.00	  545.79	-1713.14	  428.06
      2.3700	  766.00	  546.50	-1713.14	  428.78
      2.4700	  718.00	  547.21	-1713.14	  429.48
      2.5700	  732.00	  547.90	-1713.14	  430.18
      2.6700	  671.00	  548.58	-1713.14	  430.86
      2.7700	  656.00	  549.26	-1713.14	  431.53
      2.8700	  607.00	  549.92	-1713.14	  432.19
      2.9700	  638.00	  550.57	-1713.14	  432.84
      3.0700	  588.00	  551.21	-1713.14	  433.48
      3.1700	  565.00	  551.84	-1713.14	  434.11
      3.2700	  618.00	  552.45	-1713.14	  434.73
      3.3700	  683.00	  553.06	-1713.14	  435.34
      3.4700	  772.00	  553.66	-1713.14	  435.94
      3.5700	  836.00	  554.25	-1713.14	  436.52
      3.6700	  870.00	  554.82	-1713.14	  437.10
      3.7700	  929.00	  555.39	-1713.14	  437.67
      3.8700	  939.00	  555.95	-1713.14	  438.22
      3.9700	  978.00	  556.49	-1713.14	  438.77
      4.0700	 1053.00	  557.03	-1713.14	  439.31
      4.1700	 1138.00	  557.56	-1713.14	  439.83
      4.2700	 1123.00	  558.07	-1713.14	  440.35
      4.3700	 1055.00	  558.58	-1713.14	  440.86
      4.4700	 1078.00	  559.08	-1713.14	  441.35
      4.5700	 1019.00	  559.57	-1713.14	  441.84
      4.6700	 1011.00	  560.05	-1713.14	  442.32
      4.7700	  968.00	  560.51	-1713.14	  442.79
      4.8700	  879.00	  560.97	-1713.14	  443.25
      4.9700	  963.00	  561.42	-1713.14	  443.70
      5.0700	  932.00	  561.87	-1713.14	  444.14
      5.1700	  922.00	  562.30	-1713.14	  444.57
      5.2700	  904.00	  562.72	-1713.14	  445.00
      5.3700	  860.00	  563.13	-1713.14	  445.41
      5.4700	  834.00	  563.54	-1713.14	  445.81
      5.5700	  860.00	  563.93	-1713.14	  446.21
      5.6700	  866.00	  564.32	-1713.14	  446.60
      5.7700	  858.00	  564.70	-1713.14	  446.97
      5.8700	  773.00	  565.07	-1713.14	  447.34
      5.9700	  800.00	  565.43	-1713.14	  447.71
      6.0700	  813.00	  565.78	-1713.14	  448.06
      6.1700	  775.00	  566.13	-1713.14	  448.40
      6.2700	  772.00	  566.46	-1713.14	  448.74
      6.3700	  748.00	  566.79	-1713.14	  449.06
      6.4700	  757.00	  567.11	-1713.14	  449.38
      6.5700	  760.00	  567.42	-1713.14	  449.69
      6.6700	  772.00	  567.72	-1713.14	  450.00
      6.7700	  734.00	  568.01	-1713.14	  450.29
      6.8700	  779.00	  568.30	-1713.14	  450.58
      6.9700	  684.00	  568.58	-1713.14	  450.85
      7.0700	  705.00	  568.85	-1713.14	  451.12
      7.1700	  706.00	  569.11	-1713.14	  451.39
      7.2700	  707.00	  569.37	-1713.14	  451.64
      7.3700	  651.00	  569.61	-1713.14	  451.89
      7.4700	  637.00	  569.85	-1713.14	  452.13
      7.5700	  645.00	  570.09	-1713.14	  452.36
      7.6700	  681.00	  570.31	-1713.14	  452.58
      7.7700	  682.00	  570.53	-1713.14	  452.80
      7.8700	  655.00	  570.74	-1713.14	  453.01
      7.9700	  646.00	  570.94	-1713.14	  453.21
      8.0700	  616.00	  571.13	-1713.14	  453.41
      8.1700	  648.00	  571.32	-1713.14	  453.60
      8.2700	  622.00	  571.50	-1713.14	  453.78
      8.3700	  642.00	  571.67	-1713.14	  453.95
      8.4700	  666.00	  571.84	-1713.14	  454.12
      8.5700	  582.00	  572.00	-1713.14	  454.28
      8.6700	  634.00	  572.15	-1713.14	  454.43
      8.7700	  638.00	  572.30	-1713.14	  454.57
      8.8700	  630.00	  572.44	-1713.14	  454.71
      8.9700	  625.00	  572.57	-1713.14	  454.85
      9.0700	  645.00	  572.70	-1713.14	  454.97
      9.1700	  601.00	  572.81	-1713.14	  455.09
      9.2700	  591.00	  572.93	-1713.14	  455.20
      9.3700	  605.00	  573.03	-1713.14	  455.31
      9.4700	  593.00	  573.13	-1713.14	  455.41
      9.5700	  608.00	  573.23	-1713.14	  455.50
      9.6700	  608.00	  573.31	-1713.14	  455.59
      9.7700	  610.00	  573.39	-1713.14	  455.67
      9.8700	  626.00	  573.47	-1713.14	  455.74
      9.9700	  666.00	  573.54	-1713.14	  455.81
     10.0700	  600.00	  574.61	-1687.75	  455.87
     10.1700	  593.00	  574.78	-1694.91	  455.93
     10.2700	  601.00	  574.97	-1687.10	  455.98
     10.3700	  585.00	  575.19	-1703.33	  456.02
     10.4700	  572.00	  575.49	-1716.62	  456.06
     10.5700	  600.00	  575.92	-1689.05	  456.09
     10.6700	  625.00	  576.58	-1664.71	  456.12
     10.7700	  586.00	  577.58	-1704.72	  456.14
     10.8700	  583.00	  579.02	-1709.15	  456.16
     10.9700	  586.00	  580.87	-1708.01	  456.17
     11.0700	  528.00	  583.12	-1768.25	  456.17
     11.1700	  618.00	  585.75	-1680.89	  456.17
     11.2700	  581.00	  588.82	-1720.95	  456.17
     11.3700	  597.00	  592.40	-1708.54	  456.15
     11.4700	  580.00	  596.65	-1729.79	  456.14
     11.5700	  632.00	  601.79	-1682.93	  456.11
     11.6700	  643.00	  608.22	-1678.36	  456.09
     11.7700	  634.00	  616.59	-1695.72	  456.05
     11.8700	  654.00	  627.76	-1686.89	  456.02
     11.9700	  639.00	  642.12	-1716.25	  455.97
     12.0700	  664.00	  657.69	-1706.82	  455.93
     12.1700	  698.00	  668.22	-1683.35	  455.87
     12.2700	  684.00	  664.29	-1693.42	  455.81
     12.3700	  679.00	  643.24	-1677.38	  455.75
     12.4700	  655.00	  617.40	-1675.53	  455.69
     12.5700	  617.00	  597.88	-1694.02	  455.61
     12.6700	  556.00	  586.65	-1743.79	  455.54
     12.7700	  618.00	  581.19	-1676.32	  455.46
     12.8700	  529.00	  578.60	-1762.74	  455.37
     12.9700	  614.00	  577.19	-1676.33	  455.28
     13.0700	  548.00	  576.27	-1741.40	  455.18
     13.1700	  577.00	  575.58	-1711.72	  455.08
     13.2700	  557.00	  575.04	-1731.18	  454.98
     13.3700	  559.00	  574.60	-1728.73	  454.87
     13.4700	  567.00	  574.22	-1720.35	  454.76
     13.5700	  532.00	  573.89	-1755.03	  454.64
     13.6700	  595.00	  573.60	-1691.74	  454.52
     13.7700	  568.00	  573.33	-1718.47	  454.40
     13.8700	  585.00	  573.09	-1701.22	  454.27
     13.9700	  556.00	  572.86	-1729.99	  454.14
     14.0700	  559.00	  572.63	-1726.77	  454.00
     14.1700	  574.00	  572.42	-1711.56	  453.86
     14.2700	  532.00	  572.21	-1753.35	  453.71
     14.3700	  553.00	  572.01	-1732.15	  453.56
     14.4700	  616.00	  571.81	-1668.95	  453.41
     14.5700	  558.00	  571.61	-1726.75	  453.26
     14.6700	  606.00	  571.42	-1678.55	  453.10
     14.7700	  519.00	  571.22	-1765.36	  452.93
     14.8700	  554.00	  571.02	-1730.16	  452.76
     14.9700	  539.00	  570.83	-1744.96	  452.59
     15.0700	  524.00	  570.63	-1759.76	  452.42
     15.1700	  619.00	  570.43	-1664.56	  452.24
     15.2700	  504.00	  570.23	-1779.36	  452.06
     15.3700	  553.00	  570.03	-1730.16	  451.87
     15.4700	  586.00	  569.82	-1696.96	  451.69
     15.5700	  521.00	  569.61	-1761.75	  451.49
     15.6700	  548.00	  569.41	-1734.54	  451.30
     15.7700	  566.00	  569.22	-1716.36	  451.10
     15.8700	  576.00	  569.01	-1706.15	  450.90
     15.9700	  585.00	  568.80	-1696.93	  450.70
     16.0700	  539.00	  568.58	-1742.72	  450.49
     16.1700	  612.00	  568.36	-1669.50	  450.28
     16.2700	  549.00	  568.14	-1732.28	  450.06
     16.3700	  525.00	  567.92	-1756.05	  449.85
     16.4700	  621.00	  567.69	-1659.83	  449.63
     16.5700	  579.00	  567.46	-1701.60	  449.41
     16.6700	  550.00	  567.23	-1730.37	  449.18
     16.7700	  560.00	  567.00	-1720.14	  448.95
     16.8700	  546.00	  566.76	-1733.90	  448.72
     16.9700	  593.00	  566.53	-1686.66	  448.49
     17.0700	  598.00	  566.29	-1681.42	  448.25
     17.1700	  567.00	  566.04	-1712.18	  448.01
     17.2700	  533.00	  565.80	-1745.94	  447.77
     17.3700	  551.00	  565.55	-1727.69	  447.53
     17.4700	  551.00	  565.30	-1727.44	  447.28
     17.5700	  545.00	  565.05	-1733.19	  447.03
     17.6700	  555.00	  564.80	-1722.94	  446.78
     17.7700	  507.00	  564.54	-1770.68	  446.53
     17.8700	  544.00	  564.29	-1733.42	  446.27
     17.9700	  542.00	  564.12	-1735.26	  446.01
     18.0700	  580.00	  563.86	-1697.00	  445.75
     18.1700	  565.00	  563.60	-1711.74	  445.49
     18.2700	  595.00	  563.34	-1681.47	  445.22
     18.3700	  526.00	  563.07	-1750.21	  444.96
     18.4700	  554.00	  562.80	-1721.94	  444.69
     18.5700	  531.00	  562.53	-1744.67	  444.42
     18.6700	  572.00	  562.26	-1703.40	  444.14
     18.7700	  524.00	  562.08	-1751.21	  443.87
     18.8700	  584.00	  561.80	-1690.94	  443.59
     18.9700	  564.00	  561.53	-1710.66	  443.31
     19.0700	  575.00	  561.25	-1699.39	  443.03
     19.1700	  555.00	  560.97	-1719.11	  442.74
     19.2700	  547.00	  560.69	-1726.83	  442.46
     19.3700	  544.00	  560.41	-1729.55	  442.17
     19.4700	  544.00	  560.13	-1729.27	  441.88
     19.5700	  596.00	  559.85	-1676.98	  441.59
     19.6700	  556.00	  559.56	-1716.70	  441.30
     19.7700	  593.00	  559.28	-1679.41	  441.01
     19.8700	  540.00	  558.99	-1732.12	  440.71
     19.9700	  549.00	  558.70	-1722.84	  440.41
     20.0700	  556.00	  558.41	-1715.55	  440.11
     20.1700	  553.00	  558.12	-1718.26	  439.81
     20.2700	  549.00	  557.83	-1721.97	  439.51
     20.3700	  546.00	  557.54	-1724.67	  439.21
     20.4700	  629.00	  557.24	-1641.38	  438.90
     20.5700	  529.00	  556.95	-1741.09	  438.60
     20.6700	  557.00	  556.69	-1712.82	  438.29
     20.7700	  543.00	  556.40	-1726.53	  437.98
     20.8700	  515.00	  556.10	-1754.24	  437.67
     20.9700	  545.00	  555.81	-1723.94	  437.36
     21.0700	  494.00	  555.47	-1774.61	  437.05
     21.1700	  594.00	  555.18	-1674.31	  436.73
     21.2700	  577.00	  554.88	-1691.02	  436.42
     21.3700	  536.00	  554.59	-1731.73	  436.10
     21.4700	  527.00	  554.30	-1740.43	  435.79
     21.5700	  562.00	  554.00	-1705.14	  435.47
     21.6700	  512.00	  553.71	-1754.85	  435.15
     21.7700	  548.00	  553.42	-1718.56	  434.83
     21.8700	  564.00	  553.13	-1702.27	  434.51
     21.9700	  552.00	  552.84	-1713.98	  434.18
     22.0700	  554.00	  552.55	-1711.69	  433.86
     22.1700	  530.00	  552.27	-1735.41	  433.54
     22.2700	  535.00	  551.99	-1730.12	  433.21
     22.3700	  589.00	  551.71	-1675.85	  432.89
     22.4700	  527.00	  551.44	-1737.57	  432.56
     22.5700	  562.00	  551.17	-1702.30	  432.23
     22.6700	  544.00	  550.91	-1720.04	  431.90
     22.7700	  544.00	  550.65	-1719.79	  431.57
     22.8700	  571.00	  550.40	-1692.54	  431.25
     22.9700	  550.00	  550.17	-1713.30	  430.92
     23.0700	  561.00	  549.95	-1702.08	  430.58
     23.1700	  569.00	  549.74	-1693.88	  430.25
     23.2700	  560.00	  549.56	-1702.69	  429.92
     23.3700	  533.00	  549.40	-1729.54	  429.59
     23.4700	  529.00	  549.43	-1733.56	  429.26
     23.5700	  542.00	  549.36	-1720.50	  428.92
     23.6700	  539.00	  549.38	-1723.52	  428.59
     23.7700	  550.00	  549.52	-1712.66	  428.25
     23.8700	  549.00	  549.90	-1714.03	  427.92
     23.9700	  582.00	  550.72	-1681.86	  427.58
     24.0700	  560.00	  552.41	-1705.54	  427.25
     24.1700	  546.00	  555.55	-1722.68	  426.91
     24.2700	  566.00	  560.91	-1708.05	  426.58
     24.3700	  596.00	  569.36	-1686.49	  426.24
     24.4700	  598.00	  581.63	-1696.76	  425.90
     24.5700	  609.00	  597.60	-1701.73	  425.57
     24.6700	  673.00	  614.50	-1654.64	  425.23
     24.7700	  675.00	  625.63	-1663.76	  424.89
     24.8700	  617.00	  622.37	-1718.51	  424.55
     24.9700	  615.00	  604.08	-1702.21	  424.22
     25.0700	  602.00	  582.00	-1693.13	  423.88
     25.1700	  568.00	  565.04	-1710.18	  423.54
     25.2700	  553.00	  554.94	-1715.08	  423.20
     25.3700	  604.00	  549.84	-1658.97	  422.87
     25.4700	  580.00	  547.35	-1680.49	  422.53
     25.5700	  554.00	  546.01	-1705.14	  422.19
     25.6700	  561.00	  545.13	-1697.26	  421.85
     25.7700	  557.00	  544.49	-1700.63	  421.51
     25.8700	  574.00	  544.00	-1683.14	  421.18
     25.9700	  539.00	  543.63	-1717.76	  420.84
     26.0700	  570.00	  543.34	-1686.48	  420.50
     26.1700	  575.00	  543.14	-1681.27	  420.17
     26.2700	  551.00	  543.01	-1705.15	  419.83
     26.3700	  541.00	  542.97	-1715.10	  419.49
     26.4700	  552.00	  543.00	-1704.14	  419.15
     26.5700	  518.00	  543.13	-1738.27	  418.82
     26.6700	  552.00	  543.37	-1704.51	  418.48
     26.7700	  589.00	  543.75	-1667.89	  418.15
     26.8700	  537.00	  544.30	-1720.43	  417.81
     26.9700	  549.00	  545.06	-1709.19	  417.48
     27.0700	  537.00	  546.10	-1722.24	  417.14
     27.1700	  531.00	  547.57	-1729.70	  416.81
     27.2700	  549.00	  549.68	-1713.82	  416.47
     27.3700	  576.00	  552.93	-1690.07	  416.14
     27.4700	  536.00	  558.24	-1735.37	  415.81
     27.5700	  573.00	  567.23	-1707.37	  415.47
     27.6700	  593.00	  582.51	-1702.65	  415.14
     27.7700	  600.00	  607.37	-1720.51	  414.81
     27.8700	  617.00	  644.64	-1740.77	  414.48
     27.9700	  683.00	  694.35	-1724.49	  414.15
     28.0700	  758.00	  750.80	-1705.94	  413.82
     28.1700	  884.00	  799.97	-1629.10	  413.49
     28.2700	  910.00	  821.02	-1624.15	  413.16
     28.3700	  828.00	  802.24	-1687.38	  412.83
     28.4700	  777.00	  764.21	-1700.35	  412.50
     28.5700	  726.00	  739.67	-1726.81	  412.18
     28.6700	  687.00	  743.15	-1769.29	  411.85
     28.7700	  762.00	  769.45	-1720.58	  411.52
     28.8700	  840.00	  798.76	-1671.90	  411.20
     28.9700	  825.00	  803.41	-1691.55	  410.88
     29.0700	  765.00	  766.24	-1714.38	  410.55
     29.1700	  676.00	  703.31	-1740.45	  410.23
     29.2700	  620.00	  643.22	-1736.35	  409.91
     29.3700	  620.00	  599.58	-1692.71	  409.59
     29.4700	  654.00	  572.92	-1632.06	  409.27
     29.5700	  577.00	  558.33	-1694.46	  408.95
     29.6700	  598.00	  550.54	-1665.68	  408.63
     29.7700	  551.00	  546.11	-1708.24	  408.31
     29.8700	  603.00	  543.34	-1653.48	  407.99
     29.9700	  582.00	  541.57	-1672.70	  407.68
     30.0700	  564.00	  540.61	-1689.75	  407.36
     30.1700	  562.00	  540.61	-1691.74	  407.05
     30.2700	  522.00	  542.04	-1733.18	  406.73
     30.3700	  555.00	  545.84	-1703.97	  406.42
     30.4700	  547.00	  553.38	-1719.52	  406.11
     30.5700	  543.00	  566.06	-1736.20	  405.80
     30.6700	  579.00	  584.11	-1718.25	  405.49
     30.7700	  598.00	  605.23	-1720.36	  405.18
     30.8700	  612.00	  623.29	-1724.43	  404.87
     30.9700	  612.00	  629.33	-1730.46	  404.57
     31.0700	  610.00	  617.39	-1720.52	  404.26
     31.1700	  617.00	  593.63	-1689.77	  403.96
     31.2700	  586.00	  569.75	-1696.89	  403.66
     31.3700	  566.00	  551.92	-1699.06	  403.35
     31.4700	  531.00	  540.86	-1722.99	  403.05
     31.5700	  528.00	  534.79	-1719.92	  402.75
     31.6700	  514.00	  531.58	-1730.72	  402.46
     31.7700	  552.00	  529.79	-1690.92	  402.16
     31.8700	  536.00	  528.66	-1705.79	  401.86
     31.9700	  536.00	  527.88	-1705.01	  401.57
     32.0700	  531.00	  527.33	-1709.46	  401.27
     32.1700	  548.00	  526.96	-1692.10	  400.98
     32.2700	  528.00	  526.76	-1711.90	  400.69
     32.3700	  564.00	  526.71	-1675.85	  400.40
     32.4700	  533.00	  526.83	-1706.96	  400.11
     32.5700	  509.00	  527.12	-1731.26	  399.82
     32.6700	  559.00	  527.63	-1681.77	  399.54
     32.7700	  537.00	  528.40	-1704.53	  399.25
     32.8700	  544.00	  529.50	-1698.64	  398.97
     32.9700	  573.00	  531.07	-1671.21	  398.68
     33.0700	  542.00	  533.35	-1704.49	  398.40
     33.1700	  519.00	  536.85	-1730.98	  398.12
     33.2700	  555.00	  542.68	-1700.82	  397.85
     33.3700	  551.00	  553.23	-1715.37	  397.57
     33.4700	  581.00	  572.87	-1705.01	  397.29
     33.5700	  589.00	  608.26	-1732.39	  397.02
     33.6700	  634.00	  666.63	-1745.76	  396.74
     33.7700	  781.00	  750.47	-1682.60	  396.47
     33.8700	  910.00	  850.05	-1653.19	  396.20
     33.9700	 1016.00	  938.72	-1635.85	  395.93
     34.0700	 1068.00	  976.42	-1621.56	  395.67
     34.1700	  941.00	  934.66	-1706.80	  395.40
     34.2700	  861.00	  834.86	-1687.00	  395.14
     34.3700	  749.00	  727.38	-1691.51	  394.87
     34.4700	  631.00	  643.13	-1725.26	  394.61
     34.5700	  618.00	  588.91	-1684.04	  394.35
     34.6700	  561.00	  558.60	-1710.74	  394.09
     34.7700	  564.00	  542.87	-1692.01	  393.84
     34.8700	  561.00	  534.50	-1686.64	  393.58
     34.9700	  514.00	  529.46	-1728.60	  393.33
     35.0700	  518.00	  526.00	-1721.14	  393.07
     35.1700	  511.00	  523.40	-1725.53	  392.82
     35.2700	  541.00	  521.33	-1693.47	  392.57
     35.3700	  547.00	  519.66	-1685.79	  392.33
     35.4700	  524.00	  518.27	-1707.40	  392.08
     35.5700	  528.00	  517.09	-1702.23	  391.84
     35.6700	  493.00	  516.08	-1736.22	  391.59
     35.7700	  499.00	  515.20	-1729.34	  391.35
     35.8700	  523.00	  514.43	-1704.57	  391.11
     35.9700	  510.00	  514.21	-1717.35	  390.87
     36.0700	  496.00	  513.61	-1730.74	  390.64
     36.1700	  489.00	  513.06	-1737.19	  390.40
     36.2700	  530.00	  512.56	-1695.70	  390.17
     36.3700	  507.00	  512.12	-1718.25	  389.93
     36.4700	  538.00	  511.72	-1686.85	  389.70
     36.5700	  532.00	  511.36	-1692.49	  389.48
     36.6700	  468.00	  511.04	-1756.18	  389.25
     36.7700	  520.00	  510.78	-1703.92	  389.02
     36.8700	  492.00	  510.60	-1731.74	  388.80
     36.9700	  518.00	  510.57	-1705.71	  388.58
     37.0700	  508.00	  510.82	-1715.96	  388.36
     37.1700	  528.00	  511.60	-1696.73	  388.14
     37.2700	  503.00	  513.22	-1723.36	  387.92
     37.3700	  565.00	  515.97	-1664.10	  387.71
     37.4700	  489.00	  519.76	-1743.90	  387.49
     37.5700	  485.00	  523.89	-1752.03	  387.28
     37.6700	  492.00	  526.94	-1748.08	  387.07
     37.7700	  502.00	  527.41	-1738.55	  386.86
     37.8700	  530.00	  525.06	-1708.19	  386.65
     37.9700	  525.00	  521.28	-1709.41	  386.45
     38.0700	  526.00	  517.37	-1704.50	  386.25
     38.1700	  526.00	  513.87	-1701.01	  386.04
     38.2700	  528.00	  511.06	-1696.19	  385.84
     38.3700	  493.00	  509.00	-1729.14	  385.65
     38.4700	  468.00	  507.60	-1752.73	  385.45
     38.5700	  517.00	  506.67	-1702.80	  385.26
     38.6700	  500.00	  506.05	-1719.18	  385.06
     38.7700	  517.00	  505.52	-1701.66	  384.87
     38.8700	  490.00	  505.19	-1728.32	  384.68
     38.9700	  492.00	  504.90	-1726.04	  384.49
     39.0700	  489.00	  504.65	-1728.79	  384.31
     39.1700	  456.00	  504.57	-1761.70	  384.12
     39.2700	  501.00	  504.36	-1716.50	  383.94
     39.3700	  525.00	  504.08	-1692.22	  383.76
     39.4700	  531.00	  503.90	-1686.04	  383.58
     39.5700	  524.00	  503.74	-1692.87	  383.41
     39.6700	  521.00	  503.58	-1695.71	  383.23
     39.7700	  521.00	  503.43	-1695.57	  383.06
     39.8700	  510.00	  503.30	-1706.43	  382.89
     39.9700	  508.00	  503.17	-1708.31	  382.72
     40.0700	  467.00	  503.06	-1749.19	  382.55
     40.1700	  493.00	  502.96	-1723.09	  382.38
     40.2700	  464.00	  502.87	-1752.00	  382.22
     40.3700	  515.00	  502.79	-1700.93	  382.05
     40.4700	  487.00	  502.73	-1728.87	  381.89
     40.5700	  508.00	  502.69	-1707.82	  381.73
     40.6700	  543.00	  502.66	-1672.80	  381.58
     40.7700	  519.00	  502.66	-1696.80	  381.42
     40.8700	  478.00	  502.69	-1737.83	  381.27
     40.9700	  522.00	  502.75	-1693.89	  381.12
     41.0700	  523.00	  502.85	-1692.99	  380.97
     41.1700	  456.00	  503.00	-1760.14	  380.82
     41.2700	  529.00	  503.21	-1687.34	  380.67
     41.3700	  523.00	  503.95	-1694.08	  380.53
     41.4700	  499.00	  504.32	-1718.45	  380.39
     41.5700	  512.00	  504.86	-1705.99	  380.24
     41.6700	  551.00	  505.62	-1667.75	  380.11
     41.7700	  533.00	  506.77	-1686.91	  379.97
     41.8700	  468.00	  508.69	-1753.83	  379.83
     41.9700	  461.00	  512.19	-1764.33	  379.70
     42.0700	  541.00	  518.75	-1690.89	  379.57
     42.1700	  532.00	  530.58	-1711.71	  379.44
     42.2700	  529.00	  550.13	-1734.26	  379.31
     42.3700	  543.00	  578.38	-1748.52	  379.18
     42.4700	  568.00	  613.03	-1758.16	  379.06
     42.5700	  599.00	  646.50	-1760.63	  378.94
     42.6700	  620.00	  666.86	-1760.00	  378.82
     42.7700	  622.00	  663.31	-1754.45	  378.70
     42.8700	  593.00	  637.10	-1757.24	  378.58
     42.9700	  597.00	  600.97	-1717.10	  378.46
     43.0700	  537.00	  567.04	-1743.17	  378.35
     43.1700	  543.00	  541.25	-1711.38	  378.24
     43.2700	  507.00	  524.47	-1730.61	  378.13
     43.3700	  470.00	  514.80	-1757.93	  378.02
     43.4700	  503.00	  509.61	-1719.74	  377.91
     43.5700	  482.00	  507.02	-1738.15	  377.81
     43.6700	  503.00	  505.45	-1715.58	  377.71
     43.7700	  526.00	  504.39	-1691.53	  377.61
     43.8700	  491.00	  503.63	-1725.77	  377.51
     43.9700	  502.00	  503.05	-1714.19	  377.41
     44.0700	  525.00	  502.60	-1690.73	  377.32
     44.1700	  490.00	  502.24	-1725.38	  377.22
     44.2700	  515.00	  501.96	-1700.09	  377.13
     44.3700	  512.00	  501.73	-1702.87	  377.04
     44.4700	  477.00	  501.56	-1737.70	  376.95
     44.5700	  531.00	  501.43	-1683.57	  376.87
     44.6700	  519.00	  501.34	-1695.47	  376.78
     44.7700	  523.00	  501.28	-1691.41	  376.70
     44.8700	  529.00	  501.11	-1685.25	  376.62
     44.9700	  553.00	  501.11	-1661.25	  376.54
     45.0700	  534.00	  501.32	-1680.46	  376.46
     45.1700	  519.00	  501.37	-1695.51	  376.39
     45.2700	  508.00	  501.44	-1706.58	  376.31
     45.3700	  505.00	  501.54	-1709.67	  376.24
     45.4700	  497.00	  501.66	-1717.79	  376.17
     45.5700	  495.00	  501.80	-1719.94	  376.10
     45.6700	  524.00	  501.97	-1691.11	  376.04
     45.7700	  451.00	  502.17	-1764.31	  375.97
     45.8700	  531.00	  502.40	-1684.53	  375.91
     45.9700	  525.00	  502.66	-1690.79	  375.85
     46.0700	  515.00	  502.95	-1701.09	  375.79
     46.1700	  476.00	  503.29	-1740.43	  375.73
     46.2700	  515.00	  503.67	-1701.81	  375.67
     46.3700	  514.00	  504.11	-1703.24	  375.62
     46.4700	  547.00	  504.60	-1670.74	  375.57
     46.5700	  495.00	  505.17	-1723.30	  375.52
     46.6700	  454.00	  505.83	-1764.96	  375.47
     46.7700	  482.00	  506.61	-1737.74	  375.42
     46.8700	  533.00	  507.57	-1687.70	  375.37
     46.9700	  526.00	  508.93	-1696.06	  375.33
     47.0700	  501.00	  510.80	-1722.93	  375.29
     47.1700	  494.00	  513.77	-1732.90	  375.25
     47.2700	  527.00	  518.66	-1704.79	  375.21
     47.3700	  516.00	  526.49	-1723.62	  375.17
     47.4700	  525.00	  538.11	-1726.24	  375.14
     47.5700	  560.00	  553.51	-1706.65	  375.10
     47.6700	  549.00	  571.13	-1735.26	  375.07
     47.7700	  617.00	  587.18	-1683.31	  375.04
     47.8700	  567.00	  596.57	-1742.70	  375.01
     47.9700	  599.00	  595.47	-1709.61	  374.98
     48.0700	  551.00	  585.09	-1747.23	  374.96
     48.1700	  570.00	  570.65	-1713.78	  374.94
     48.2700	  518.00	  557.05	-1752.18	  374.91
     48.3700	  536.00	  547.03	-1724.16	  374.89
     48.4700	  530.00	  541.38	-1724.51	  374.87
     48.5700	  546.00	  539.66	-1706.79	  374.86
     48.6700	  538.00	  540.98	-1716.12	  374.84
     48.7700	  521.00	  544.56	-1736.70	  374.83
     48.8700	  560.00	  550.04	-1703.17	  374.82
     48.9700	  548.00	  557.49	-1722.63	  374.81
     49.0700	  568.00	  567.63	-1712.76	  374.80
     49.1700	  540.00	  582.14	-1755.27	  374.79
     49.2700	  579.00	  604.88	-1739.02	  374.79
     49.3700	  646.00	  641.87	-1709.00	  374.78
     49.4700	  666.00	  704.54	-1751.67	  374.78
     49.5700	  787.00	  808.58	-1734.72	  374.78
     49.6700	  870.00	  971.59	-1814.72	  374.78
     49.7700	 1148.00	 1206.10	-1771.23	  374.78
     49.8700	 1496.00	 1509.32	-1726.46	  374.79
     49.9700	 1848.00	 1851.75	-1716.88	  374.79
     50.0700	 2264.00	 2168.51	-1617.64	  374.80
     50.1700	 2470.00	 2365.13	-1608.26	  374.81
     50.2700	 2404.00	 2360.02	-1669.16	  374.82
     50.3700	 2236.00	 2153.67	-1630.80	  374.83
     50.4700	 1830.00	 1831.74	-1714.88	  374.84
     50.5700	 1389.00	 1492.11	-1816.24	  374.86
     50.6700	 1033.00	 1198.20	-1878.34	  374.87
     50.7700	  857.00	  977.18	-1833.32	  374.89
     50.8700	  739.00	  829.47	-1803.61	  374.91
     50.9700	  643.00	  739.94	-1810.08	  374.93
     51.0700	  625.00	  688.17	-1776.31	  374.95
     51.1700	  612.00	  655.83	-1756.96	  374.98
     51.2700	  600.00	  631.14	-1744.28	  375.00
     51.3700	  608.00	  609.52	-1714.66	  375.03
     51.4700	  555.00	  590.58	-1748.71	  375.06
     51.5700	  585.00	  574.94	-1703.07	  375.09
     51.6700	  558.00	  562.94	-1718.08	  375.12
     51.7700	  517.00	  554.38	-1750.52	  375.15
     51.8700	  565.00	  548.64	-1696.78	  375.18
     51.9700	  560.00	  545.25	-1698.39	  375.22
     52.0700	  557.00	  543.16	-1699.29	  375.26
     52.1700	  556.00	  542.24	-1699.37	  375.29
     52.2700	  529.00	  542.36	-1726.50	  375.33
     52.3700	  535.00	  543.66	-1721.79	  375.37
     52.4700	  590.00	  546.65	-1669.78	  375.42
     52.5700	  571.00	  552.54	-1694.68	  375.46
     52.6700	  557.00	  563.75	-1719.88	  375.51
     52.7700	  626.00	  584.44	-1671.58	  375.55
     52.8700	  668.00	  620.67	-1665.81	  375.60
     52.9700	  703.00	  679.38	-1689.52	  375.65
     53.0700	  793.00	  765.78	-1685.92	  375.70
     53.1700	  921.00	  879.25	-1671.39	  375.75
     53.2700	 1039.00	 1009.15	-1683.29	  375.80
     53.3700	 1212.00	 1132.19	-1633.32	  375.86
     53.4700	 1172.00	 1214.31	-1755.45	  375.92
     53.5700	 1181.00	 1224.30	-1756.44	  375.97
     53.6700	 1102.00	 1157.29	-1768.43	  376.03
     53.7700	 1029.00	 1040.21	-1724.34	  376.09
     53.8700	  855.00	  909.10	-1767.23	  376.15
     53.9700	  787.00	  790.51	-1716.65	  376.21
     54.0700	  657.00	  697.84	-1753.97	  376.28
     54.1700	  630.00	  633.59	-1716.72	  376.34
     54.2700	  594.00	  593.42	-1712.56	  376.41
     54.3700	  601.00	  570.40	-1682.53	  376.47
     54.4700	  558.00	  558.04	-1713.18	  376.54
     54.5700	  562.00	  551.72	-1702.86	  376.61
     54.6700	  602.00	  548.66	-1659.80	  376.68
     54.7700	  543.00	  547.43	-1717.57	  376.75
     54.8700	  577.00	  547.33	-1683.46	  376.83
     54.9700	  554.00	  548.19	-1707.33	  376.90
     55.0700	  547.00	  549.84	-1715.97	  376.98
     55.1700	  523.00	  552.30	-1742.43	  377.05
     55.2700	  528.00	  555.64	-1740.78	  377.13
     55.3700	  557.00	  560.01	-1716.14	  377.21
     55.4700	  551.00	  565.62	-1727.75	  377.29
     55.5700	  574.00	  572.94	-1712.07	  377.37
     55.6700	  559.00	  582.86	-1736.99	  377.45
     55.7700	  600.00	  597.22	-1710.35	  377.54
     55.8700	  594.00	  619.59	-1738.72	  377.62
     55.9700	  614.00	  656.49	-1755.62	  377.71
     56.0700	  698.00	  718.47	-1733.60	  377.79
     56.1700	  767.00	  820.33	-1766.46	  377.88
     56.2700	  937.00	  979.10	-1755.24	  377.97
     56.3700	 1179.00	 1208.73	-1742.86	  378.06
     56.4700	 1456.00	 1512.02	-1769.16	  378.15
     56.5700	 1765.00	 1871.48	-1819.61	  378.24
     56.6700	 2161.00	 2242.24	-1794.37	  378.33
     56.7700	 2433.00	 2550.05	-1830.18	  378.43
     56.8700	 2678.00	 2705.67	-1740.80	  378.52
     56.9700	 2536.00	 2651.31	-1828.44	  378.62
     57.0700	 2302.00	 2407.93	-1819.06	  378.71
     57.1700	 2093.00	 2057.86	-1678.00	  378.81
     57.2700	 1669.00	 1687.38	-1731.52	  378.91
     57.3700	 1287.00	 1356.19	-1782.32	  379.01
     57.4700	 1050.00	 1094.09	-1757.22	  379.11
     57.5700	  897.00	  907.19	-1723.32	  379.21
     57.6700	  805.00	  786.10	-1694.24	  379.31
     57.7700	  729.00	  715.14	-1699.27	  379.41
     57.8700	  706.00	  679.26	-1686.39	  379.52
     57.9700	  667.00	  667.68	-1713.82	  379.62
     58.0700	  657.00	  674.56	-1730.69	  379.73
     58.1700	  728.00	  697.82	-1682.95	  379.83
     58.2700	  782.00	  737.35	-1668.48	  379.94
     58.3700	  866.00	  793.27	-1640.41	  380.05
     58.4700	  884.00	  864.22	-1693.36	  380.16
     58.5700	 1055.00	  945.82	-1603.96	  380.27
     58.6700	 1171.00	 1030.24	-1572.37	  380.38
     58.7700	 1282.00	 1108.38	-1539.52	  380.49
     58.8700	 1351.00	 1173.96	-1536.10	  380.60
     58.9700	 1465.00	 1223.13	-1471.27	  380.71
     59.0700	 1515.00	 1250.59	-1448.72	  380.83
     59.1700	 1469.00	 1251.83	-1495.97	  380.94
     59.2700	 1432.00	 1230.70	-1511.84	  381.06
     59.3700	 1375.00	 1199.33	-1537.47	  381.17
     59.4700	 1309.00	 1169.97	-1574.10	  381.29
     59.5700	 1158.00	 1150.85	-1705.99	  381.41
     59.6700	 1126.00	 1149.22	-1736.35	  381.52
     59.7700	 1189.00	 1173.41	-1697.54	  381.64
     59.8700	 1226.00	 1228.45	-1715.59	  381.76
     59.9700	 1396.00	 1309.98	-1627.11	  381.88
     60.0700	 1439.00	 1401.45	-1675.58	  382.00
     60.1700	 1492.00	 1475.04	-1696.18	  382.12
     60.2700	 1539.00	 1498.83	-1672.96	  382.25
     60.3700	 1513.00	 1453.85	-1653.98	  382.37
     60.4700	 1455.00	 1347.77	-1605.91	  382.49
     60.5700	 1278.00	 1207.34	-1642.47	  382.61
     60.6700	 1045.00	 1060.58	-1728.72	  382.74
     60.7700	 1006.00	  927.81	-1634.94	  382.86
     60.8700	  801.00	  820.33	-1732.47	  382.99
     60.9700	  720.00	  742.08	-1735.21	  383.11
     61.0700	  648.00	  692.02	-1757.16	  383.24
     61.1700	  693.00	  667.16	-1687.30	  383.37
     61.2700	  670.00	  665.07	-1708.20	  383.50
     61.3700	  650.00	  685.43	-1748.56	  383.62
     61.4700	  693.00	  730.21	-1750.35	  383.75
     61.5700	  731.00	  802.31	-1784.45	  383.88
     61.6700	  877.00	  903.21	-1739.35	  384.01
     61.7700	 1001.00	 1030.19	-1742.32	  384.14
     61.8700	 1078.00	 1173.66	-1808.80	  384.27
     61.9700	 1229.00	 1315.63	-1799.76	  384.40
     62.0700	 1326.00	 1429.66	-1816.80	  384.53
     62.1700	 1434.00	 1486.19	-1765.32	  384.66
     62.2700	 1385.00	 1466.69	-1794.83	  384.80
     62.3700	 1296.00	 1377.10	-1794.23	  384.93
     62.4700	 1158.00	 1243.28	-1798.42	  385.06
     62.5700	 1036.00	 1094.60	-1771.74	  385.19
     62.6700	  942.00	  953.67	-1724.81	  385.33
     62.7700	  769.00	  834.08	-1778.21	  385.46
     62.8700	  680.00	  741.40	-1774.53	  385.60
     62.9700	  608.00	  675.05	-1780.19	  385.73
     63.0700	  606.00	  630.79	-1737.92	  385.86
     63.1700	  553.00	  603.04	-1763.18	  386.00
     63.2700	  581.00	  586.67	-1718.80	  386.14
     63.3700	  580.00	  577.82	-1710.96	  386.27
     63.4700	  617.00	  574.24	-1670.37	  386.41
     63.5700	  592.00	  575.08	-1696.21	  386.54
     63.6700	  618.00	  580.74	-1675.88	  386.68
     63.7700	  650.00	  592.57	-1655.71	  386.82
     63.8700	  640.00	  612.54	-1685.67	  386.95
     63.9700	  705.00	  642.65	-1650.78	  387.09
     64.0700	  755.00	  684.24	-1642.38	  387.23
     64.1700	  796.00	  737.08	-1654.21	  387.36
     64.2700	  866.00	  798.37	-1645.51	  387.50
     64.3700	  899.00	  862.33	-1676.46	  387.64
     64.4700	  968.00	  919.94	-1665.07	  387.78
     64.5700	 1029.00	  960.63	-1644.77	  387.92
     64.6700	 1065.00	  975.52	-1623.66	  388.05
     64.7700	  961.00	  963.53	-1715.66	  388.19
     64.8700	 1000.00	  928.59	-1641.72	  388.33
     64.9700	  943.00	  878.97	-1649.10	  388.47
     65.0700	  866.00	  824.01	-1671.14	  388.61
     65.1700	  788.00	  771.28	-1696.41	  388.75
     65.2700	  757.00	  725.08	-1681.22	  388.89
     65.3700	  726.00	  686.60	-1673.73	  389.02
     65.4700	  639.00	  655.20	-1729.33	  389.16
     65.5700	  659.00	  629.85	-1683.99	  389.30
     65.6700	  635.00	  609.74	-1687.88	  389.44
     65.7700	  566.00	  594.20	-1741.34	  389.58
     65.8700	  576.00	  582.63	-1719.77	  389.72
     65.9700	  539.00	  574.49	-1748.63	  389.86
     66.0700	  559.00	  569.28	-1723.42	  390.00
     66.1700	  581.00	  566.55	-1698.68	  390.14
     66.2700	  533.00	  565.84	-1745.98	  390.27
     66.3700	  528.00	  566.96	-1752.10	  390.41
     66.4700	  527.00	  569.50	-1755.64	  390.55
     66.5700	  605.00	  573.62	-1681.76	  390.69
     66.6700	  586.00	  579.74	-1706.87	  390.83
     66.7700	  563.00	  588.82	-1738.95	  390.97
     66.8700	  585.00	  602.71	-1730.84	  391.10
     66.9700	  636.00	  624.54	-1701.68	  391.24
     67.0700	  625.00	  659.18	-1747.32	  391.38
     67.1700	  688.00	  713.38	-1738.51	  391.52
     67.2700	  766.00	  795.59	-1742.73	  391.66
     67.3700	  880.00	  914.34	-1747.47	  391.79
     67.4700	 1095.00	 1076.49	-1694.63	  391.93
     67.5700	 1304.00	 1283.89	-1693.02	  392.07
     67.6700	 1521.00	 1530.12	-1722.26	  392.20
     67.7700	 1843.00	 1798.19	-1668.32	  392.34
     67.8700	 2031.00	 2059.09	-1741.23	  392.48
     67.9700	 2199.00	 2272.67	-1786.81	  392.61
     68.0700	 2473.00	 2394.46	-1634.59	  392.75
     68.1700	 2417.00	 2393.40	-1689.54	  392.88
     68.2700	 2265.00	 2269.48	-1717.62	  393.02
     68.3700	 2106.00	 2054.69	-1661.83	  393.15
     68.4700	 1860.00	 1793.53	-1646.67	  393.29
     68.5700	 1568.00	 1526.03	-1671.16	  393.42
     68.6700	 1247.00	 1280.88	-1747.02	  393.56
     68.7700	 1032.00	 1074.90	-1756.03	  393.69
     68.8700	  857.00	  914.17	-1770.31	  393.82
     68.9700	  749.00	  796.79	-1760.92	  393.96
     69.0700	  713.00	  715.86	-1715.99	  394.09
     69.1700	  628.00	  662.67	-1747.80	  394.22
     69.2700	  634.00	  628.87	-1708.01	  394.35
     69.3700	  588.00	  607.73	-1732.87	  394.49
     69.4700	  586.00	  594.44	-1721.57	  394.62
     69.5700	  597.00	  585.85	-1701.98	  394.75
     69.6700	  576.00	  580.10	-1717.24	  394.88
     69.7700	  599.00	  576.14	-1690.28	  395.01
     69.8700	  540.00	  573.42	-1746.55	  395.14
     69.9700	  507.00	  571.65	-1777.79	  395.27
     70.0700	  570.00	  570.68	-1713.82	  395.39
     70.1700	  583.00	  570.47	-1700.60	  395.52
     70.2700	  578.00	  571.04	-1706.17	  395.65
     70.3700	  560.00	  572.52	-1725.65	  395.78
     70.4700	  566.00	  575.18	-1722.31	  395.90
     70.5700	  574.00	  579.55	-1718.68	  396.03
     70.6700	  577.00	  586.58	-1722.72	  396.15
     70.7700	  564.00	  597.87	-1747.00	  396.28
     70.8700	  643.00	  615.92	-1686.05	  396.40
     70.9700	  610.00	  644.36	-1747.49	  396.53
     71.0700	  637.00	  687.88	-1764.02	  396.65
     71.1700	  735.00	  751.97	-1730.10	  396.77
     71.2700	  822.00	  841.95	-1733.09	  396.89
     71.3700	  932.00	  961.63	-1742.76	  397.01
     71.4700	 1074.00	 1112.26	-1751.39	  397.13
     71.5700	 1264.00	 1287.58	-1736.71	  397.25
     71.6700	 1417.00	 1477.29	-1773.43	  397.37
     71.7700	 1562.00	 1663.44	-1814.57	  397.49
     71.8700	 1813.00	 1821.61	-1721.74	  397.61
     71.9700	 1868.00	 1924.16	-1769.29	  397.73
     72.0700	 1910.00	 1948.78	-1751.92	  397.84
     72.1700	 1917.00	 1889.62	-1685.75	  397.96
     72.2700	 1741.00	 1760.82	-1732.96	  398.08
     72.3700	 1725.00	 1588.34	-1576.48	  398.19
     72.4700	 1452.00	 1399.07	-1660.21	  398.30
     72.5700	 1274.00	 1214.28	-1653.42	  398.42
     72.6700	 1147.00	 1049.69	-1615.83	  398.53
     72.7700	 1012.00	  912.75	-1613.89	  398.64
     72.8700	  884.00	  805.57	-1634.71	  398.75
     72.9700	  791.00	  726.08	-1648.21	  398.86
     73.0700	  737.00	  669.75	-1645.89	  398.97
     73.1700	  752.00	  631.27	-1592.41	  399.08
     73.2700	  707.00	  605.59	-1611.73	  399.19
     73.3700	  689.00	  588.62	-1612.75	  399.29
     73.4700	  625.00	  577.34	-1665.48	  399.40
     73.5700	  586.00	  569.76	-1696.89	  399.50
     73.6700	  638.00	  564.62	-1639.75	  399.61
     73.7700	  606.00	  561.18	-1668.32	  399.71
     73.8700	  589.00	  559.02	-1683.16	  399.81
     73.9700	  568.00	  557.89	-1703.03	  399.92
     74.0700	  564.00	  557.59	-1706.72	  400.02
     74.1700	  589.00	  557.92	-1682.06	  400.12
     74.2700	  603.00	  558.67	-1668.81	  400.22
     74.3700	  613.00	  559.56	-1659.70	  400.31
     74.4700	  614.00	  560.27	-1659.41	  400.41
     74.5700	  627.00	  560.48	-1646.61	  400.51
     74.6700	  625.00	  559.94	-1648.07	  400.60
     74.7700	  639.00	  558.61	-1632.75	  400.70
     74.8700	  606.00	  556.69	-1663.83	  400.79
     74.9700	  597.00	  554.51	-1670.65	  400.88
     75.0700	  589.00	  552.44	-1676.58	  400.97
     75.1700	  616.00	  550.89	-1648.02	  401.06
     75.2700	  579.00	  550.18	-1684.32	  401.15
     75.3700	  575.00	  550.87	-1689.01	  401.24
     75.4700	  550.00	  553.37	-1716.51	  401.33
     75.5700	  562.00	  558.21	-1709.35	  401.42
     75.6700	  575.00	  565.78	-1703.92	  401.50
     75.7700	  578.00	  576.83	-1711.96	  401.59
     75.8700	  589.00	  591.47	-1715.61	  401.67
     75.9700	  634.00	  609.61	-1688.74	  401.75
     76.0700	  628.00	  630.63	-1715.76	  401.83
     76.1700	  653.00	  653.30	-1713.43	  401.91
     76.2700	  709.00	  675.72	-1679.86	  401.99
     76.3700	  645.00	  695.41	-1763.55	  402.07
     76.4700	  706.00	  709.50	-1716.63	  402.15
     76.5700	  753.00	  715.42	-1675.56	  402.22
     76.6700	  725.00	  711.94	-1700.08	  402.30
     76.7700	  704.00	  699.75	-1708.89	  402.37
     76.8700	  694.00	  681.13	-1700.26	  402.44
     76.9700	  638.00	  658.91	-1734.05	  402.51
     77.0700	  600.00	  635.56	-1748.70	  402.58
     77.1700	  580.00	  613.52	-1746.65	  402.65
     77.2700	  563.00	  593.99	-1744.12	  402.72
     77.3700	  556.00	  577.71	-1734.85	  402.79
     77.4700	  568.00	  564.88	-1710.02	  402.85
     77.5700	  481.00	  555.26	-1787.40	  402.92
     77.6700	  486.00	  548.37	-1775.50	  402.98
     77.7700	  556.00	  543.61	-1700.75	  403.04
     77.8700	  549.00	  540.44	-1704.57	  403.10
     77.9700	  512.00	  538.37	-1739.50	  403.16
     78.0700	  510.00	  537.03	-1740.16	  403.22
     78.1700	  518.00	  536.16	-1731.30	  403.28
     78.2700	  510.00	  535.61	-1738.74	  403.33
     78.3700	  526.00	  535.26	-1722.39	  403.39
     78.4700	  555.00	  535.05	-1693.18	  403.44
     78.5700	  524.00	  534.96	-1724.10	  403.49
     78.6700	  519.00	  534.98	-1729.12	  403.54
     78.7700	  517.00	  535.13	-1731.26	  403.59
     78.8700	  510.00	  535.41	-1738.55	  403.64
     78.9700	  502.00	  535.87	-1747.01	  403.69
     79.0700	  514.00	  536.54	-1735.68	  403.73
     79.1700	  482.00	  537.48	-1768.62	  403.78
     79.2700	  518.00	  538.73	-1733.87	  403.82
     79.3700	  535.00	  540.36	-1718.50	  403.86
     79.4700	  565.00	  542.25	-1690.39	  403.90
     79.5700	  552.00	  544.83	-1705.97	  403.94
     79.6700	  530.00	  548.01	-1731.14	  403.98
     79.7700	  596.00	  551.88	-1669.01	  404.02
     79.8700	  550.00	  556.59	-1719.72	  404.05
     79.9700	  525.00	  562.30	-1750.44	  404.08
     80.0700	  514.00	  569.25	-1768.39	  404.12
     80.1700	  507.00	  577.73	-1783.87	  404.15
     80.2700	  601.00	  588.06	-1700.20	  404.18
     80.3700	  579.00	  600.52	-1734.65	  404.21
     80.4700	  563.00	  615.21	-1765.35	  404.23
     80.5700	  591.00	  631.99	-1754.12	  404.26
     80.6700	  641.00	  650.36	-1722.50	  404.28
     80.7700	  691.00	  669.46	-1691.59	  404.30
     80.8700	  630.00	  688.08	-1771.21	  404.33
     80.9700	  689.00	  704.86	-1729.00	  404.35
     81.0700	  708.00	  718.58	-1723.71	  404.36
     81.1700	  734.00	  728.28	-1707.42	  404.38
     81.2700	  756.00	  733.37	-1690.50	  404.40
     81.3700	  790.00	  733.56	-1656.70	  404.41
     81.4700	  733.00	  728.98	-1709.11	  404.42
     81.5700	  770.00	  720.03	-1663.16	  404.43
     81.6700	  744.00	  707.33	-1676.47	  404.44
     81.7700	  797.00	  691.67	-1607.81	  404.45
     81.8700	  688.00	  674.03	-1699.16	  404.46
     81.9700	  702.00	  655.54	-1666.68	  404.47
     82.0700	  637.00	  637.30	-1713.44	  404.47
     82.1700	  691.00	  620.17	-1642.31	  404.47
     82.2700	  672.00	  604.72	-1645.86	  404.47
     82.3700	  600.00	  591.20	-1704.34	  404.47
     82.4700	  588.00	  579.85	-1704.98	  404.47
     82.5700	  630.00	  570.61	-1653.74	  404.47
     82.6700	  601.00	  563.43	-1675.56	  404.46
     82.7700	  576.00	  558.17	-1695.30	  404.46
     82.8700	  559.00	  554.75	-1708.89	  404.45
     82.9700	  553.00	  553.02	-1713.15	  404.44
     83.0700	  534.00	  552.83	-1731.97	  404.43
     83.1700	  538.00	  554.08	-1729.22	  404.42
     83.2700	  539.00	  556.61	-1730.75	  404.40
     83.3700	  530.00	  560.23	-1743.36	  404.39
     83.4700	  566.00	  564.68	-1711.81	  404.37
     83.5700	  565.00	  569.61	-1717.75	  404.35
     83.6700	  550.00	  574.60	-1737.73	  404.33
     83.7700	  544.00	  579.13	-1748.26	  404.31
     83.8700	  580.00	  582.63	-1715.77	  404.29
     83.9700	  571.00	  584.58	-1726.71	  404.26
     84.0700	  530.00	  584.61	-1767.74	  404.24
     84.1700	  551.00	  582.67	-1744.81	  404.21
     84.2700	  583.00	  579.04	-1709.17	  404.18
     84.3700	  568.00	  574.17	-1719.31	  404.15
     84.4700	  533.00	  568.61	-1748.75	  404.12
     84.5700	  595.00	  562.85	-1680.99	  404.08
     84.6700	  608.00	  557.28	-1662.42	  404.05
     84.7700	  536.00	  552.19	-1729.33	  404.01
     84.8700	  533.00	  547.77	-1727.90	  403.97
     84.9700	  521.00	  544.09	-1736.22	  403.93
     85.0700	  521.00	  541.16	-1733.29	  403.89
     85.1700	  551.00	  538.93	-1701.07	  403.85
     85.2700	  526.00	  537.31	-1724.45	  403.80
     85.3700	  552.00	  536.21	-1697.34	  403.76
     85.4700	  577.00	  535.52	-1671.66	  403.71
     85.5700	  511.00	  535.19	-1737.33	  403.66
     85.6700	  557.00	  535.18	-1691.31	  403.61
     85.7700	  538.00	  535.48	-1710.61	  403.56
     85.8700	  520.00	  536.14	-1729.27	  403.50
     85.9700	  539.00	  537.24	-1711.38	  403.45
     86.0700	  533.00	  538.92	-1719.06	  403.39
     86.1700	  550.00	  541.34	-1704.48	  403.33
     86.2700	  535.00	  544.70	-1722.84	  403.27
     86.3700	  535.00	  549.21	-1727.34	  403.21
     86.4700	  528.00	  555.03	-1740.16	  403.14
     86.5700	  549.00	  562.29	-1726.43	  403.08
     86.6700	  558.00	  571.01	-1726.15	  403.01
     86.7700	  573.00	  581.06	-1721.20	  402.94
     86.8700	  596.00	  592.15	-1709.28	  402.87
     86.9700	  615.00	  603.77	-1701.91	  402.80
     87.0700	  664.00	  614.92	-1664.05	  402.73
     87.1700	  657.00	  625.40	-1681.54	  402.65
     87.2700	  657.00	  633.93	-1690.06	  402.58
     87.3700	  641.00	  639.56	-1711.69	  402.50
     87.4700	  604.00	  641.60	-1750.73	  402.42
     87.5700	  661.00	  639.80	-1691.94	  402.34
     87.6700	  646.00	  634.51	-1701.65	  402.26
     87.7700	  622.00	  626.49	-1717.62	  402.17
     87.8700	  605.00	  616.73	-1724.87	  402.09
     87.9700	  615.00	  606.27	-1704.40	  402.00
     88.0700	  622.00	  596.01	-1687.14	  401.91
     88.1700	  618.00	  586.73	-1681.86	  401.82
     88.2700	  648.00	  579.00	-1644.14	  401.73
     88.3700	  589.00	  573.22	-1697.36	  401.64
     88.4700	  596.00	  569.56	-1686.70	  401.54
     88.5700	  590.00	  568.03	-1691.16	  401.44
     88.6700	  580.00	  568.45	-1701.58	  401.35
     88.7700	  623.00	  570.53	-1660.66	  401.25
     88.8700	  601.00	  573.86	-1686.00	  401.14
     88.9700	  552.00	  577.96	-1739.10	  401.04
     89.0700	  576.00	  582.28	-1719.42	  400.94
     89.1700	  605.00	  586.24	-1694.37	  400.83
     89.2700	  605.00	  589.26	-1697.39	  400.72
     89.3700	  570.00	  590.85	-1733.99	  400.61
     89.4700	  596.00	  590.70	-1707.84	  400.50
     89.5700	  563.00	  588.76	-1738.90	  400.39
     89.6700	  566.00	  585.24	-1732.38	  400.28
     89.7700	  527.00	  580.52	-1766.65	  400.16
     89.8700	  574.00	  575.04	-1714.17	  400.04
     89.9700	  547.00	  569.24	-1735.38	  399.93
     90.0700	  523.00	  563.50	-1753.63	  399.81
     90.1700	  530.00	  558.10	-1741.24	  399.68
     90.2700	  522.00	  553.26	-1744.40	  399.56
     90.3700	  505.00	  549.10	-1757.24	  399.44
     90.4700	  558.00	  545.68	-1700.82	  399.31
     90.5700	  524.00	  542.98	-1732.12	  399.18
     90.6700	  559.00	  540.97	-1695.10	  399.05
     90.7700	  542.00	  539.55	-1710.69	  398.92
     90.8700	  528.00	  538.67	-1723.80	  398.79
     90.9700	  485.00	  538.23	-1766.37	  398.66
     91.0700	  493.00	  538.20	-1758.34	  398.52
     91.1700	  549.00	  538.55	-1702.69	  398.39
     91.2700	  485.00	  539.30	-1767.44	  398.25
     91.3700	  516.00	  540.49	-1737.62	  398.11
     91.4700	  502.00	  542.21	-1753.35	  397.97
     91.5700	  534.00	  544.60	-1723.73	  397.82
     91.6700	  554.00	  547.80	-1706.94	  397.68
     91.7700	  485.00	  552.03	-1780.16	  397.53
     91.8700	  537.00	  557.47	-1733.60	  397.39
     91.9700	  554.00	  564.33	-1723.46	  397.24
     92.0700	  557.00	  572.78	-1728.92	  397.09
     92.1700	  558.00	  582.96	-1738.09	  396.94
     92.2700	  578.00	  594.66	-1729.80	  396.79
     92.3700	  580.00	  608.31	-1741.44	  396.63
     92.4700	  624.00	  623.49	-1712.62	  396.48
     92.5700	  651.00	  639.89	-1702.02	  396.32
     92.6700	  686.00	  657.07	-1684.20	  396.16
     92.7700	  642.00	  674.46	-1745.59	  396.00
     92.8700	  730.00	  691.37	-1674.51	  395.84
     92.9700	  751.00	  707.14	-1669.27	  395.68
     93.0700	  747.00	  721.17	-1687.30	  395.51
     93.1700	  766.00	  733.18	-1680.31	  395.35
     93.2700	  793.00	  743.25	-1663.39	  395.18
     93.3700	  795.00	  751.79	-1669.93	  395.01
     93.4700	  739.00	  759.39	-1733.53	  394.84
     93.5700	  804.00	  766.66	-1675.79	  394.67
     93.6700	  831.00	  774.11	-1656.24	  394.50
     93.7700	  791.00	  782.22	-1704.35	  394.33
     93.8700	  857.00	  791.42	-1647.56	  394.15
     93.9700	  846.00	  802.16	-1669.29	  393.98
     94.0700	  846.00	  814.77	-1681.90	  393.80
     94.1700	  866.00	  829.39	-1676.52	  393.62
     94.2700	  862.00	  845.80	-1696.93	  393.44
     94.3700	  929.00	  863.34	-1647.48	  393.26
     94.4700	  847.00	  880.91	-1747.05	  393.08
     94.5700	  937.00	  896.98	-1673.12	  392.89
     94.6700	  872.00	  909.75	-1750.89	  392.71
     94.7700	  913.00	  917.39	-1717.52	  392.52
     94.8700	  947.00	  918.36	-1684.50	  392.33
     94.9700	  908.00	  911.85	-1716.99	  392.15
     95.0700	  951.00	  898.01	-1660.14	  391.96
     95.1700	  909.00	  877.87	-1682.01	  391.76
     95.2700	  866.00	  853.12	-1700.25	  391.57
     95.3700	  757.00	  825.72	-1781.85	  391.38
     95.4700	  779.00	  797.70	-1731.84	  391.18
     95.5700	  731.00	  771.01	-1753.14	  390.99
     95.6700	  709.00	  747.45	-1751.58	  390.79
     95.7700	  670.00	  728.64	-1771.78	  390.59
     95.8700	  712.00	  716.03	-1717.17	  390.39
     95.9700	  691.00	  710.92	-1733.05	  390.19
     96.0700	  684.00	  714.39	-1743.52	  389.99
     96.1700	  723.00	  727.37	-1717.50	  389.79
     96.2700	  696.00	  750.52	-1767.66	  389.58
     96.3700	  842.00	  784.27	-1655.41	  389.38
     96.4700	  846.00	  828.64	-1695.78	  389.17
     96.5700	  843.00	  883.22	-1753.36	  388.97
     96.6700	  927.00	  947.05	-1733.18	  388.76
     96.7700	 1033.00	 1018.48	-1698.61	  388.55
     96.8700	 1065.00	 1095.23	-1743.37	  388.34
     96.9700	 1141.00	 1174.29	-1746.42	  388.13
     97.0700	 1246.00	 1251.97	-1719.11	  387.92
     97.1700	 1294.00	 1324.02	-1743.15	  387.70
     97.2700	 1389.00	 1385.79	-1709.93	  387.49
     97.3700	 1420.00	 1432.77	-1725.90	  387.27
     97.4700	 1445.00	 1461.09	-1729.22	  387.06
     97.5700	 1418.00	 1468.41	-1763.55	  386.84
     97.6700	 1430.00	 1454.44	-1737.57	  386.62
     97.7700	 1405.00	 1420.95	-1729.08	  386.41
     97.8700	 1319.00	 1371.31	-1765.44	  386.19
     97.9700	 1293.00	 1309.77	-1729.91	  385.97
     98.0700	 1204.00	 1240.80	-1749.94	  385.74
     98.1700	 1186.00	 1168.72	-1695.85	  385.52
     98.2700	 1098.00	 1097.38	-1712.52	  385.30
     98.3700	 1083.00	 1030.20	-1660.33	  385.08
     98.4700	  961.00	  969.95	-1722.09	  384.85
     98.5700	  910.00	  918.85	-1721.99	  384.62
     98.6700	  879.00	  878.65	-1712.79	  384.40
     98.7700	  785.00	  850.65	-1778.78	  384.17
     98.8700	  783.00	  835.74	-1765.87	  383.94
     98.9700	  818.00	  834.54	-1729.68	  383.72
     99.0700	  830.00	  847.43	-1730.56	  383.49
     99.1700	  850.00	  874.55	-1737.69	  383.26
     99.2700	  870.00	  915.87	-1759.01	  383.03
     99.3700	  951.00	  971.08	-1733.21	  382.80
     99.4700	 1072.00	 1039.56	-1680.70	  382.56
     99.5700	 1134.00	 1120.33	-1699.47	  382.33
     99.6700	 1221.00	 1211.92	-1704.05	  382.10
     99.7700	 1329.00	 1312.25	-1696.38	  381.86
     99.8700	 1424.00	 1418.61	-1707.74	  381.63
     99.9700	 1511.00	 1527.58	-1729.71	  381.39
    100.0700	 1687.00	 1635.14	-1661.28	  381.16
    100.1700	 1841.00	 1736.88	-1609.01	  380.92
    100.2700	 1838.00	 1828.40	-1703.54	  380.69
    100.3700	 1937.00	 1905.86	-1681.99	  380.45
    100.4700	 1954.00	 1966.24	-1725.38	  380.21
    100.5700	 2058.00	 2007.54	-1662.68	  379.97
    100.6700	 2077.00	 2028.49	-1664.62	  379.74
    100.7700	 2087.00	 2028.44	-1654.57	  379.50
    100.8700	 2049.00	 2007.33	-1671.46	  379.26
    100.9700	 2005.00	 1965.95	-1674.08	  379.02
    101.0700	 1943.00	 1906.30	-1676.44	  378.78
    101.1700	 1758.00	 1831.73	-1786.87	  378.54
    101.2700	 1742.00	 1746.68	-1717.82	  378.30
    101.3700	 1699.00	 1656.10	-1670.24	  378.06
    101.4700	 1532.00	 1564.83	-1745.97	  377.82
    101.5700	 1496.00	 1477.15	-1694.29	  377.57
    101.6700	 1415.00	 1396.45	-1694.59	  377.33
    101.7700	 1376.00	 1325.12	-1662.25	  377.09
    101.8700	 1261.00	 1264.48	-1716.62	  376.85
    101.9700	 1228.00	 1214.89	-1700.03	  376.61
    102.0700	 1166.00	 1175.75	-1722.89	  376.36
    102.1700	 1189.00	 1145.65	-1669.78	  376.12
    102.2700	 1109.00	 1122.48	-1726.62	  375.88
    102.3700	 1112.00	 1103.76	-1704.89	  375.63
    102.4700	 1142.00	 1086.78	-1657.91	  375.39
    102.5700	 1027.00	 1069.04	-1755.17	  375.15
    102.6700	 1038.00	 1048.51	-1723.64	  374.90
    102.7700	 1024.00	 1023.93	-1713.07	  374.66
    102.8700	  974.00	  994.89	-1734.03	  374.42
    102.9700	  983.00	  961.73	-1691.86	  374.17
    103.0700	  864.00	  925.28	-1774.41	  373.93
    103.1700	  830.00	  886.69	-1769.82	  373.69
    103.2700	  871.00	  847.18	-1689.32	  373.45
    103.3700	  775.00	  807.95	-1746.08	  373.20
    103.4700	  775.00	  770.05	-1708.19	  372.96
    103.5700	  736.00	  734.39	-1711.53	  372.72
    103.6700	  699.00	  701.66	-1715.79	  372.47
    103.7700	  726.00	  672.32	-1659.45	  372.23
    103.8700	  660.00	  646.62	-1699.76	  371.99
    103.9700	  610.00	  624.65	-1727.78	  371.75
    104.0700	  612.00	  606.27	-1707.41	  371.51
    104.1700	  613.00	  591.27	-1691.41	  371.26
    104.2700	  553.00	  579.33	-1739.47	  371.02
    104.3700	  559.00	  570.09	-1724.22	  370.78
    104.4700	  588.00	  563.16	-1688.29	  370.54
    104.5700	  555.00	  558.17	-1716.30	  370.30
    104.6700	  517.00	  554.78	-1750.92	  370.06
    104.7700	  571.00	  552.70	-1694.83	  369.82
    104.8700	  560.00	  551.65	-1704.79	  369.59
    104.9700	  544.00	  551.42	-1720.56	  369.35
    105.0700	  512.00	  551.88	-1753.01	  369.11
    105.1700	  551.00	  552.87	-1715.01	  368.87
    105.2700	  541.00	  554.33	-1726.47	  368.64
    105.3700	  546.00	  556.18	-1723.32	  368.40
    105.4700	  534.00	  558.48	-1737.61	  368.17
    105.5700	  569.00	  561.22	-1705.36	  367.93
    105.6700	  577.00	  564.49	-1700.62	  367.70
    105.7700	  578.00	  568.36	-1703.50	  367.46
    105.8700	  584.00	  572.95	-1702.08	  367.23
    105.9700	  587.00	  578.34	-1704.47	  367.00
    106.0700	  556.00	  584.60	-1741.73	  366.77
    106.1700	  614.00	  591.74	-1690.87	  366.54
    106.2700	  586.00	  599.73	-1726.87	  366.31
    106.3700	  559.00	  608.49	-1762.63	  366.08
    106.4700	  586.00	  617.85	-1744.99	  365.85
    106.5700	  563.00	  627.60	-1777.74	  365.63
    106.6700	  647.00	  637.46	-1703.60	  365.40
    106.7700	  647.00	  647.11	-1713.24	  365.18
    106.8700	  634.00	  656.19	-1735.32	  364.95
    106.9700	  663.00	  664.34	-1714.48	  364.73
    107.0700	  644.00	  671.23	-1740.37	  364.51
    107.1700	  629.00	  676.60	-1760.74	  364.29
    107.2700	  704.00	  680.33	-1689.46	  364.07
    107.3700	  633.00	  682.43	-1762.57	  363.85
    107.4700	  663.00	  683.13	-1733.26	  363.63
    107.5700	  716.00	  682.72	-1679.86	  363.42
    107.6700	  623.00	  681.63	-1771.77	  363.20
    107.7700	  677.00	  680.28	-1716.41	  362.99
    107.8700	  723.00	  679.03	-1669.17	  362.78
    107.9700	  683.00	  678.22	-1708.35	  362.57
    108.0700	  688.00	  678.03	-1703.16	  362.36
    108.1700	  689.00	  678.57	-1702.70	  362.15
    108.2700	  640.00	  679.82	-1752.96	  361.94
    108.3700	  665.00	  681.66	-1729.79	  361.74
    108.4700	  634.00	  683.83	-1762.96	  361.53
    108.5700	  713.00	  685.99	-1686.13	  361.33
    108.6700	  707.00	  687.77	-1693.90	  361.13
    108.7700	  677.00	  688.72	-1724.85	  360.93
    108.8700	  715.00	  688.43	-1686.57	  360.74
    108.9700	  697.00	  686.59	-1702.73	  360.54
    109.0700	  697.00	  682.98	-1699.12	  360.35
    109.1700	  672.00	  677.57	-1718.71	  360.16
    109.2700	  706.00	  670.47	-1677.61	  359.97
    109.3700	  660.00	  661.90	-1715.04	  359.78
    109.4700	  658.00	  652.19	-1707.33	  359.59
    109.5700	  622.00	  641.70	-1732.83	  359.41
    109.6700	  700.00	  630.77	-1643.91	  359.22
    109.7700	  639.00	  619.77	-1693.90	  359.04
    109.8700	  635.00	  608.99	-1687.13	  358.86
    109.9700	  605.00	  598.72	-1706.86	  358.69
    110.0700	  625.00	  589.17	-1677.31	  358.51
    110.1700	  624.00	  580.51	-1669.64	  358.34
    110.2700	  572.00	  572.84	-1713.97	  358.17
    110.3700	  610.00	  566.22	-1669.36	  358.00
    110.4700	  566.00	  560.68	-1707.81	  357.83
    110.5700	  570.00	  556.18	-1699.31	  357.67
    110.6700	  553.00	  552.67	-1712.80	  357.51
    110.7700	  545.00	  550.07	-1718.20	  357.35
    110.8700	  558.00	  548.30	-1703.43	  357.19
    110.9700	  553.00	  547.25	-1707.39	  357.04
    111.0700	  553.00	  546.84	-1706.98	  356.88
    111.1700	  550.00	  546.98	-1710.11	  356.73
    111.2700	  521.00	  547.58	-1739.71	  356.59
    111.3700	  550.00	  548.56	-1711.70	  356.44
    111.4700	  545.00	  549.88	-1718.02	  356.30
    111.5700	  542.00	  551.49	-1722.62	  356.16
    111.6700	  523.00	  553.33	-1743.47	  356.02
    111.7700	  563.00	  555.40	-1705.53	  355.89
    111.8700	  562.00	  557.67	-1708.80	  355.76
    111.9700	  582.00	  560.13	-1691.26	  355.63
    112.0700	  549.00	  562.79	-1726.92	  355.50
    112.1700	  543.00	  565.66	-1735.80	  355.38
    112.2700	  559.00	  568.77	-1722.90	  355.26
    112.3700	  569.00	  572.14	-1716.28	  355.14
    112.4700	  569.00	  575.83	-1719.96	  355.02
    112.5700	  595.00	  579.88	-1698.01	  354.91
    112.6700	  627.00	  584.36	-1670.50	  354.80
    112.7700	  644.00	  589.37	-1658.51	  354.70
    112.8700	  645.00	  595.03	-1663.17	  354.60
    112.9700	  614.00	  601.48	-1700.62	  354.50
    113.0700	  606.00	  608.92	-1716.06	  354.40
    113.1700	  683.00	  617.61	-1647.75	  354.31
    113.2700	  687.00	  627.87	-1654.01	  354.22
    113.3700	  715.00	  640.13	-1638.26	  354.13
    113.4700	  761.00	  654.88	-1607.01	  354.05
    113.5700	  738.00	  672.82	-1647.95	  353.97
    113.6700	  804.00	  694.73	-1603.87	  353.90
    113.7700	  821.00	  721.61	-1613.74	  353.82
    113.8700	  824.00	  754.63	-1643.76	  353.76
    113.9700	  844.00	  795.17	-1664.30	  353.69
    114.0700	  998.00	  844.83	-1559.97	  353.63
    114.1700	 1005.00	  905.43	-1613.56	  353.57
    114.2700	 1029.00	  978.95	-1663.09	  353.52
    114.3700	 1168.00	 1067.60	-1612.74	  353.47
    114.4700	 1295.00	 1173.63	-1591.77	  353.42
    114.5700	 1447.00	 1299.36	-1565.50	  353.38
    114.6700	 1556.00	 1447.01	-1604.14	  353.34
    114.7700	 1770.00	 1618.66	-1561.79	  353.30
    114.8700	 1886.00	 1816.09	-1643.23	  353.27
    114.9700	 2092.00	 2040.58	-1661.72	  353.25
    115.0700	 2382.00	 2292.79	-1623.93	  353.22
    115.1700	 2735.00	 2572.57	-1550.71	  353.21
    115.2700	 2956.00	 2878.94	-1636.08	  353.19
    115.3700	 3200.00	 3209.91	-1723.04	  353.18
    115.4700	 3417.00	 3562.24	-1858.37	  353.18
    115.5700	 3728.00	 3931.55	-1916.68	  353.17
    115.6700	 4200.00	 4312.19	-1825.33	  353.18
    115.7700	 4585.00	 4697.42	-1825.56	  353.18
    115.8700	 4895.00	 5079.35	-1897.48	  353.20
    115.9700	 5286.00	 5448.89	-1876.03	  353.21
    116.0700	 5743.00	 5796.18	-1766.31	  353.23
    116.1700	 6005.00	 6110.67	-1818.81	  353.26
    116.2700	 6168.00	 6381.78	-1926.92	  353.29
    116.3700	 6460.00	 6599.33	-1852.47	  353.32
    116.4700	 6814.00	 6754.34	-1653.47	  353.36
    116.5700	 6663.00	 6840.02	-1890.15	  353.41
    116.6700	 6804.00	 6852.54	-1761.68	  353.46
    116.7700	 6819.00	 6791.61	-1685.74	  353.51
    116.8700	 6748.00	 6660.35	-1625.48	  353.57
    116.9700	 6501.00	 6465.02	-1677.15	  353.64
    117.0700	 6172.00	 6214.17	-1755.31	  353.71
    117.1700	 5937.00	 5917.83	-1693.96	  353.78
    117.2700	 5616.00	 5586.47	-1683.61	  353.86
    117.3700	 5191.00	 5230.50	-1752.64	  353.94
    117.4700	 4930.00	 4859.85	-1642.99	  354.03
    117.5700	 4504.00	 4483.57	-1692.71	  354.13
    117.6700	 4225.00	 4109.73	-1597.87	  354.23
    117.7700	 3841.00	 3745.12	-1617.26	  354.34
    117.8700	 3464.00	 3395.34	-1644.47	  354.45
    117.9700	 3116.00	 3064.88	-1662.01	  354.57
    118.0700	 2768.00	 2757.01	-1702.15	  354.69
    118.1700	 2618.00	 2473.95	-1569.09	  354.82
    118.2700	 2138.00	 2216.82	-1791.95	  354.95
    118.3700	 1996.00	 1985.87	-1703.01	  355.09
    118.4700	 1742.00	 1780.72	-1751.86	  355.24
    118.5700	 1548.00	 1600.33	-1765.46	  355.39
    118.6700	 1402.00	 1443.22	-1754.36	  355.55
    118.7700	 1273.00	 1307.57	-1747.70	  355.71
    118.8700	 1171.00	 1191.34	-1733.48	  355.88
    118.9700	 1102.00	 1092.48	-1703.62	  356.06
    119.0700	  960.00	 1008.90	-1762.03	  356.24
    119.1700	  917.00	  938.59	-1734.72	  356.43
    119.2700	  843.00	  879.67	-1749.80	  356.62
    119.3700	  788.00	  830.43	-1755.57	  356.82
    119.4700	  720.00	  789.37	-1782.50	  357.03
    119.5700	  695.00	  755.15	-1773.28	  357.24
    119.6700	  722.00	  726.63	-1717.77	  357.46
    119.7700	  597.00	  702.85	-1818.99	  357.69
    119.8700	  581.00	  682.99	-1815.13	  357.92
    119.9700	  650.00	  666.39	-1729.53	  358.16
    120.0700	  606.00	  652.51	-1759.64	  358.41
    120.1700	  607.00	  640.89	-1747.02	  358.66
    120.2700	  554.00	  631.17	-1790.31	  358.92
    120.3700	  621.00	  623.08	-1715.21	  359.19
    120.4700	  621.00	  616.37	-1708.51	  359.46
    120.5700	  562.00	  610.88	-1762.01	  359.74
    120.6700	  514.00	  606.44	-1805.58	  360.03
    120.7700	  565.00	  602.96	-1751.09	  360.33
    120.8700	  601.00	  600.33	-1712.47	  360.63
    120.9700	  550.00	  598.49	-1761.63	  360.94
    121.0700	  581.00	  597.37	-1729.51	  361.25
    121.1700	  546.00	  596.93	-1764.06	  361.58
    121.2700	  538.00	  597.11	-1772.24	  361.91
    121.3700	  572.00	  597.86	-1739.00	  362.25
    121.4700	  596.00	  599.14	-1716.28	  362.60
    121.5700	  598.00	  600.90	-1716.03	  362.95
    121.6700	  640.00	  603.07	-1676.21	  363.31
    121.7700	  570.00	  605.60	-1748.74	  363.68
    121.8700	  591.00	  608.42	-1730.55	  364.06
    121.9700	  592.00	  611.44	-1732.58	  364.45
    122.0700	  638.00	  614.57	-1689.70	  364.84
    122.1700	  635.00	  617.74	-1695.87	  365.24
    122.2700	  620.00	  620.85	-1713.98	  365.65
    122.3700	  576.00	  623.79	-1760.92	  366.07
    122.4700	  646.00	  626.47	-1693.60	  366.49
    122.5700	  641.00	  628.78	-1700.92	  366.93
    122.6700	  672.00	  630.66	-1671.80	  367.37
    122.7700	  628.00	  632.03	-1717.16	  367.82
    122.8700	  656.00	  632.83	-1689.96	  368.28
    122.9700	  657.00	  633.06	-1689.19	  368.75
    123.0700	  575.00	  632.71	-1770.84	  369.23
    123.1700	  659.00	  631.81	-1685.94	  369.71
    123.2700	  621.00	  630.39	-1722.52	  370.20
    123.3700	  671.00	  628.52	-1670.65	  370.71
    123.4700	  664.00	  626.25	-1675.38	  371.22
    123.5700	  611.00	  623.66	-1725.79	  371.74
    123.6700	  622.00	  620.81	-1711.94	  372.27
    123.7700	  606.00	  617.77	-1724.91	  372.81
    123.8700	  630.00	  614.62	-1697.76	  373.35
    123.9700	  674.00	  611.41	-1650.54	  373.91
    124.0700	  650.00	  608.20	-1671.33	  374.48
    124.1700	  653.00	  605.04	-1665.17	  375.05
    124.2700	  623.00	  601.97	-1692.10	  375.64
    124.3700	  613.00	  599.03	-1699.16	  376.23
    124.4700	  584.00	  596.25	-1725.38	  376.84
    124.5700	  608.00	  593.65	-1698.79	  377.45
    124.6700	  646.00	  591.26	-1658.39	  378.07
    124.7700	  609.00	  589.08	-1693.22	  378.71
    124.8700	  627.00	  587.14	-1673.27	  379.35
    124.9700	  547.00	  497.73	-1663.86	  380.00
    125.0700	  596.00	  498.39	-1713.14	  380.66
    125.1700	  629.00	  499.06	-1713.14	  381.34
    125.2700	  523.00	  499.74	-1713.14	  382.02
    125.3700	  551.00	  500.44	-1713.14	  382.71
    125.4700	  577.00	  501.14	-1713.14	  383.42
    125.5700	  565.00	  501.85	-1713.14	  384.13
    125.6700	  584.00	  502.58	-1713.14	  384.85
    125.7700	  565.00	  503.31	-1713.14	  385.59
    125.8700	  595.00	  504.06	-1713.14	  386.33
    125.9700	  546.00	  504.81	-1713.14	  387.09
    126.0700	  574.00	  505.58	-1713.14	  387.85
    126.1700	  582.00	  506.36	-1713.14	  388.63
    126.2700	  616.00	  507.14	-1713.14	  389.42
    126.3700	  603.00	  507.94	-1713.14	  390.22
    126.4700	  595.00	  508.75	-1713.14	  391.03
    126.5700	  597.00	  509.57	-1713.14	  391.85
    126.6700	  593.00	  510.41	-1713.14	  392.68
    126.7700	  607.00	  511.25	-1713.14	  393.53
    126.8700	  686.00	  512.10	-1713.14	  394.38
    126.9700	  681.00	  512.97	-1713.14	  395.25
    127.0700	  691.00	  513.85	-1713.14	  396.12
    127.1700	  618.00	  514.74	-1713.14	  397.01
    127.2700	  678.00	  515.64	-1713.14	  397.91
    127.3700	  624.00	  516.55	-1713.14	  398.83
    127.4700	  665.00	  517.47	-1713.14	  399.75
    127.5700	  742.00	  518.41	-1713.14	  400.69
    127.6700	  680.00	  519.36	-1713.14	  401.63
    127.7700	  711.00	  520.32	-1713.14	  402.59
    127.8700	  735.00	  521.29	-1713.14	  403.57
    127.9700	  716.00	  522.28	-1713.14	  404.55
    128.0700	  782.00	  523.27	-1713.14	  405.55
    128.1700	  785.00	  524.28	-1713.14	  406.56
    128.2700	  800.00	  525.30	-1713.14	  407.58
    128.3700	  819.00	  526.34	-1713.14	  408.61
    128.4700	  785.00	  527.38	-1713.14	  409.66
    128.5700	    0.00	  528.44	-1713.14	  410.72
    128.6700	    0.00	  529.51	-1713.14	  411.79
     12.3064	        	        	        	        	       0	(  0  0  2)	  0  1
     24.8860	        	        	        	        	       0	(  0  0  4)	  0  1
     28.3308	        	        	        	        	       0	(  1  0  0)	  0  1
     29.0277	        	        	        	        	       0	(  1  0  1)	  0  1
     31.0331	        	        	        	        	       0	(  1  0  2)	  0  1
     34.1402	        	        	        	        	       0	(  1  0  3)	  0  1
     37.7813	        	        	        	        	       0	(  0  0  6)	  0  1
     38.1157	        	        	        	        	       0	(  1  0  4)	  0  1
     42.7640	        	        	        	        	       0	(  1  0  5)	  0  1
     47.9460	        	        	        	        	       0	(  1  0  6)	  0  1
     50.2643	        	        	        	        	       0	(  1  1  0)	  0  1
     51.1983	        	        	        	        	       0	(  0  0  8)	  0  1
     51.9865	        	        	        	        	       0	(  1  1  2)	  0  1
     53.5743	        	        	        	        	       0	(  1  0  7)	  0  1
     56.9322	        	        	        	        	       0	(  1  1  4)	  0  1
     58.7598	        	        	        	        	       0	(  2  0  0)	  0  1
     59.1512	        	        	        	        	       0	(  2  0  1)	  0  1
     59.6022	        	        	        	        	       0	(  1  0  8)	  0  1
     60.3160	        	        	        	        	       0	(  2  0  2)	  0  1
     62.2284	        	        	        	        	       0	(  2  0  3)	  0  1
     64.6234	        	        	        	        	       0	(  1  1  6)	  0  1
     64.8512	        	        	        	        	       0	(  2  0  4)	  0  1
     65.4217	        	        	        	        	       0	(  0  0 10)	  0  1
     66.0157	        	        	        	        	       0	(  1  0  9)	  0  1
     68.1439	        	        	        	        	       0	(  2  0  5)	  0  1
     72.0694	        	        	        	        	       0	(  2  0  6)	  0  1
     72.8286	        	        	        	        	       0	(  1  0 10)	  0  1
     74.6563	        	        	        	        	       0	(  1  1  8)	  0  1
     76.6013	        	        	        	        	       0	(  2  0  7)	  0  1
     80.0826	        	        	        	        	       0	(  1  0 11)	  0  1
     80.8946	        	        	        	        	       0	(  0  0 12)	  0  1
     80.9964	        	        	        	        	       0	(  2  1  0)	  0  1
     81.3361	        	        	        	        	       0	(  2  1  1)	  0  1
     81.7289	        	        	        	        	       0	(  2  0  8)	  0  1
     82.3534	        	        	        	        	       0	(  2  1  2)	  0  1
     84.0438	        	        	        	        	       0	(  2  1  3)	  0  1
     86.4021	        	        	        	        	       0	(  2  1  4)	  0  1
     86.9211	        	        	        	        	       0	(  1  1 10)	  0  1
     87.4637	        	        	        	        	       0	(  2  0  9)	  0  1
     87.8525	        	        	        	        	       0	(  1  0 12)	  0  1
     89.4262	        	        	        	        	       0	(  2  1  5)	  0  1
     93.1214	        	        	        	        	       0	(  2  1  6)	  0  1
     93.8472	        	        	        	        	       0	(  2  0 10)	  0  1
     94.8816	        	        	        	        	       0	(  3  0  0)	  0  1
     95.2188	        	        	        	        	       0	(  3  0  1)	  0  1
     96.2313	        	        	        	        	       0	(  3  0  2)	  0  1
     96.2604	        	        	        	        	       0	(  1  0 13)	  0  1
     97.5072	        	        	        	        	       0	(  2  1  7)	  0  1
     97.9236	        	        	        	        	       0	(  3  0  3)	  0  1
     98.4230	        	        	        	        	       0	(  0  0 14)	  0  1
    100.3051	        	        	        	        	       0	(  3  0  4)	  0  1
    100.9643	        	        	        	        	       0	(  2  0 11)	  0  1
    101.7817	        	        	        	        	       0	(  1  1 12)	  0  1
    102.6262	        	        	        	        	       0	(  2  1  8)	  0  1
    103.3946	        	        	        	        	       0	(  3  0  5)	  0  1
    105.5062	        	        	        	        	       0	(  1  0 14)	  0  1
    107.2270	        	        	        	        	       0	(  3  0  6)	  0  1
    108.5586	        	        	        	        	       0	(  2  1  9)	  0  1
    108.9693	        	        	        	        	       0	(  2  0 12)	  0  1
    111.8637	        	        	        	        	       0	(  3  0  7)	  0  1
    115.4497	        	        	        	        	       0	(  2  1 10)	  0  1
    115.9400	        	        	        	        	       0	(  1  0 15)	  0  1
    116.5985	        	        	        	        	       0	(  2  2  0)	  0  1
    117.4124	        	        	        	        	       0	(  3  0  8)	  0  1
    118.1124	        	        	        	        	       0	(  2  2  2)	  0  1
    118.1452	        	        	        	        	       0	(  2  0 13)	  0  1
    119.8918	        	        	        	        	       0	(  0  0 16)	  0  1
    120.6090	        	        	        	        	       0	(  1  1 14)	  0  1
    122.7937	        	        	        	        	       0	(  2  2  4)	  0  1
    123.5686	        	        	        	        	       0	(  2  1 11)	  0  1
    124.0659	        	        	        	        	       0	(  3  0  9)	  0  1
    124.6594	        	        	        	        	       0	(  3  1  0)	  0  1
    125.0692	        	        	        	        	       0	(  3  1  1)	  0  1
    126.3114	        	        	        	        	       0	(  3  1  2)	  0  1
    128.2684	        	        	        	        	       0	(  1  0 16)	  0  1
    128.4275	        	        	        	        	       0	(  3  1  3)	  0  1
    129.0622	        	        	        	        	       0	(  2  0 14)	  0  1
    131.2247	        	        	        	        	       0	(  2  2  6)	  0  1
    131.5000	        	        	        	        	       0	(  3  1  4)	  0  1
    132.1969	        	        	        	        	       0	(  3  0 10)	  0  1
    133.4685	        	        	        	        	       0	(  2  1 12)	  0  1
    135.6819	        	        	        	        	       0	(  3  1  5)	  0  1
    141.2691	        	        	        	        	       0	(  3  1  6)	  0  1
    142.6588	        	        	        	        	       0	(  3  0 11)	  0  1
    143.1775	        	        	        	        	       0	(  2  0 15)	  0  1
    144.4074	        	        	        	        	       0	(  1  0 17)	  0  1
    145.4370	        	        	        	        	       0	(  2  2  8)	  0  1
    146.5994	        	        	        	        	       0	(  2  1 13)	  0  1
    148.9274	        	        	        	        	       0	(  3  1  7)	  0  1
    149.4920	        	        	        	        	       0	(  1  1 16)	  0  1
    153.8687	        	        	        	        	       0	(  0  0 18)	  0  1
    158.4884	        	        	        	        	       0	(  3  0 12)	  0  1
    158.7661	        	        	        	        	       0	(  4  0  0)	  0  1
    159.7189	        	        	        	        	       0	(  4  0  1)	  0  1
    160.8786	        	        	        	        	       0	(  3  1  8)	  0  1
    162.8813	        	        	        	        	       0	(  4  0  2)	  0  1
    169.4406	        	        	        	        	       0	(  2  0 16)	  0  1
    170.1522	        	        	        	        	       0	(  4  0  3)	  0  1
    173.7332	        	        	        	        	       0	(  2  1 14)	  0  1
