MSG Master    CELL:    5.91959   5.91959  23.27305   90.0000   90.0000  120.0000   SPGR: P 63/m m c             TEMP:   1074.85
  1   1280     2.52000     0.00000    -0.12430     0.00000     0.00000    0
    99     0     2
       0.00000      10.00000
     125.00000     130.00000
 2Theta	Yobs	Ycal	Yobs-Ycal	Backg	Posr	(hkl)	K
      0.7700	    0.00	  544.45	-1748.25	  425.57
      0.8700	    0.00	  545.19	-1748.25	  426.31
      0.9700	   42.00	  545.92	-1748.25	  427.04
      1.0700	   48.00	  546.64	-1748.25	  427.76
      1.1700	   36.00	  547.34	-1748.25	  428.47
      1.2700	   42.00	  548.04	-1748.25	  429.16
      1.3700	   44.00	  548.73	-1748.25	  429.85
      1.4700	   76.00	  549.40	-1748.25	  430.53
      1.5700	  293.00	  550.07	-1748.25	  431.19
      1.6700	  473.00	  550.72	-1748.25	  431.84
      1.7700	  550.00	  551.36	-1748.25	  432.49
      1.8700	  630.00	  552.00	-1748.25	  433.12
      1.9700	  774.00	  552.62	-1748.25	  433.75
      2.0700	  815.00	  553.23	-1748.25	  434.36
      2.1700	  783.00	  553.84	-1748.25	  434.96
      2.2700	  806.00	  554.43	-1748.25	  435.55
      2.3700	  768.00	  555.01	-1748.25	  436.14
      2.4700	  722.00	  555.59	-1748.25	  436.71
      2.5700	  697.00	  556.15	-1748.25	  437.27
      2.6700	  668.00	  556.70	-1748.25	  437.83
      2.7700	  615.00	  557.25	-1748.25	  438.37
      2.8700	  622.00	  557.78	-1748.25	  438.91
      2.9700	  611.00	  558.31	-1748.25	  439.43
      3.0700	  606.00	  558.82	-1748.25	  439.95
      3.1700	  561.00	  559.33	-1748.25	  440.45
      3.2700	  606.00	  559.82	-1748.25	  440.95
      3.3700	  650.00	  560.31	-1748.25	  441.44
      3.4700	  751.00	  560.79	-1748.25	  441.91
      3.5700	  820.00	  561.26	-1748.25	  442.38
      3.6700	  873.00	  561.72	-1748.25	  442.84
      3.7700	  906.00	  562.17	-1748.25	  443.29
      3.8700	  949.00	  562.61	-1748.25	  443.74
      3.9700	  985.00	  563.05	-1748.25	  444.17
      4.0700	  996.00	  563.47	-1748.25	  444.59
      4.1700	 1098.00	  563.89	-1748.25	  445.01
      4.2700	 1088.00	  564.29	-1748.25	  445.42
      4.3700	 1098.00	  564.69	-1748.25	  445.82
      4.4700	 1074.00	  565.08	-1748.25	  446.21
      4.5700	 1032.00	  565.46	-1748.25	  446.59
      4.6700	 1001.00	  565.83	-1748.25	  446.96
      4.7700	  974.00	  566.20	-1748.25	  447.32
      4.8700	 1003.00	  566.56	-1748.25	  447.68
      4.9700	  944.00	  566.90	-1748.25	  448.03
      5.0700	  907.00	  567.24	-1748.25	  448.37
      5.1700	  989.00	  567.58	-1748.25	  448.70
      5.2700	  909.00	  567.90	-1748.25	  449.02
      5.3700	  864.00	  568.21	-1748.25	  449.34
      5.4700	  872.00	  568.52	-1748.25	  449.65
      5.5700	  803.00	  568.82	-1748.25	  449.95
      5.6700	  851.00	  569.11	-1748.25	  450.24
      5.7700	  836.00	  569.40	-1748.25	  450.52
      5.8700	  789.00	  569.68	-1748.25	  450.80
      5.9700	  770.00	  569.95	-1748.25	  451.07
      6.0700	  836.00	  570.21	-1748.25	  451.33
      6.1700	  765.00	  570.46	-1748.25	  451.59
      6.2700	  743.00	  570.71	-1748.25	  451.83
      6.3700	  815.00	  570.95	-1748.25	  452.07
      6.4700	  759.00	  571.18	-1748.25	  452.30
      6.5700	  748.00	  571.40	-1748.25	  452.53
      6.6700	  740.00	  571.62	-1748.25	  452.75
      6.7700	  707.00	  571.83	-1748.25	  452.96
      6.8700	  726.00	  572.04	-1748.25	  453.16
      6.9700	  719.00	  572.23	-1748.25	  453.36
      7.0700	  704.00	  572.42	-1748.25	  453.55
      7.1700	  725.00	  572.61	-1748.25	  453.73
      7.2700	  686.00	  572.78	-1748.25	  453.91
      7.3700	  660.00	  572.95	-1748.25	  454.07
      7.4700	  639.00	  573.11	-1748.25	  454.24
      7.5700	  615.00	  573.27	-1748.25	  454.39
      7.6700	  668.00	  573.42	-1748.25	  454.54
      7.7700	  655.00	  573.56	-1748.25	  454.68
      7.8700	  603.00	  573.70	-1748.25	  454.82
      7.9700	  633.00	  573.83	-1748.25	  454.95
      8.0700	  590.00	  573.95	-1748.25	  455.07
      8.1700	  603.00	  574.07	-1748.25	  455.19
      8.2700	  612.00	  574.18	-1748.25	  455.30
      8.3700	  616.00	  574.28	-1748.25	  455.41
      8.4700	  668.00	  574.38	-1748.25	  455.50
      8.5700	  599.00	  574.47	-1748.25	  455.60
      8.6700	  643.00	  574.56	-1748.25	  455.68
      8.7700	  624.00	  574.64	-1748.25	  455.76
      8.8700	  627.00	  574.71	-1748.25	  455.84
      8.9700	  618.00	  574.78	-1748.25	  455.90
      9.0700	  625.00	  574.84	-1748.25	  455.97
      9.1700	  619.00	  574.90	-1748.25	  456.02
      9.2700	  656.00	  574.95	-1748.25	  456.07
      9.3700	  615.00	  574.99	-1748.25	  456.12
      9.4700	  646.00	  575.03	-1748.25	  456.16
      9.5700	  576.00	  575.07	-1748.25	  456.19
      9.6700	  619.00	  575.10	-1748.25	  456.22
      9.7700	  632.00	  575.12	-1748.25	  456.24
      9.8700	  599.00	  575.14	-1748.25	  456.26
      9.9700	  599.00	  575.15	-1748.25	  456.27
     10.0700	  560.00	  576.05	-1764.30	  456.28
     10.1700	  596.00	  576.15	-1728.40	  456.28
     10.2700	  588.00	  576.27	-1736.52	  456.28
     10.3700	  590.00	  576.42	-1734.67	  456.27
     10.4700	  565.00	  576.63	-1759.88	  456.26
     10.5700	  590.00	  576.96	-1735.21	  456.24
     10.6700	  614.00	  577.52	-1711.77	  456.22
     10.7700	  583.00	  578.42	-1743.67	  456.19
     10.8700	  599.00	  579.75	-1729.00	  456.15
     10.9700	  590.00	  581.49	-1739.74	  456.11
     11.0700	  580.00	  583.61	-1751.86	  456.07
     11.1700	  587.00	  586.11	-1747.36	  456.02
     11.2700	  587.00	  589.02	-1750.27	  455.97
     11.3700	  584.00	  592.43	-1756.68	  455.91
     11.4700	  592.00	  596.48	-1752.73	  455.85
     11.5700	  599.00	  601.39	-1750.64	  455.78
     11.6700	  649.00	  607.55	-1706.80	  455.71
     11.7700	  632.00	  615.60	-1731.85	  455.64
     11.8700	  655.00	  626.51	-1719.76	  455.56
     11.9700	  684.00	  640.91	-1705.16	  455.47
     12.0700	  675.00	  657.06	-1730.31	  455.38
     12.1700	  660.00	  668.48	-1756.73	  455.29
     12.2700	  702.00	  664.99	-1711.24	  455.19
     12.3700	  664.00	  643.33	-1727.58	  455.09
     12.4700	  629.00	  616.57	-1735.82	  454.99
     12.5700	  644.00	  596.70	-1700.95	  454.88
     12.6700	  567.00	  585.69	-1766.94	  454.76
     12.7700	  571.00	  580.58	-1757.83	  454.65
     12.8700	  548.00	  578.24	-1778.49	  454.52
     12.9700	  547.00	  576.96	-1778.21	  454.40
     13.0700	  574.00	  576.11	-1750.35	  454.27
     13.1700	  563.00	  575.46	-1760.71	  454.14
     13.2700	  591.00	  574.93	-1732.18	  454.00
     13.3700	  588.00	  574.50	-1734.75	  453.86
     13.4700	  555.00	  574.12	-1767.37	  453.71
     13.5700	  536.00	  573.79	-1786.04	  453.57
     13.6700	  541.00	  573.49	-1780.74	  453.41
     13.7700	  580.00	  573.21	-1741.46	  453.26
     13.8700	  589.00	  572.95	-1732.20	  453.10
     13.9700	  585.00	  572.70	-1735.95	  452.94
     14.0700	  534.00	  572.46	-1786.71	  452.77
     14.1700	  556.00	  572.23	-1764.48	  452.60
     14.2700	  565.00	  572.00	-1755.25	  452.43
     14.3700	  517.00	  571.78	-1803.03	  452.25
     14.4700	  602.00	  571.56	-1717.81	  452.07
     14.5700	  566.00	  571.34	-1753.59	  451.89
     14.6700	  539.00	  571.12	-1780.37	  451.71
     14.7700	  593.00	  570.90	-1726.15	  451.52
     14.8700	  546.00	  570.69	-1772.94	  451.33
     14.9700	  601.00	  570.47	-1717.72	  451.13
     15.0700	  567.00	  570.25	-1751.50	  450.93
     15.1700	  534.00	  570.03	-1784.28	  450.73
     15.2700	  555.00	  569.81	-1763.06	  450.53
     15.3700	  586.00	  569.59	-1731.84	  450.32
     15.4700	  554.00	  569.36	-1763.61	  450.11
     15.5700	  564.00	  569.14	-1753.39	  449.90
     15.6700	  539.00	  568.91	-1778.16	  449.68
     15.7700	  582.00	  568.68	-1734.93	  449.47
     15.8700	  516.00	  568.45	-1800.70	  449.25
     15.9700	  634.00	  568.22	-1682.47	  449.02
     16.0700	  559.00	  568.01	-1757.26	  448.80
     16.1700	  562.00	  567.78	-1754.03	  448.57
     16.2700	  573.00	  567.54	-1742.79	  448.34
     16.3700	  555.00	  567.30	-1760.55	  448.10
     16.4700	  517.00	  567.06	-1798.31	  447.87
     16.5700	  572.00	  566.82	-1743.07	  447.63
     16.6700	  588.00	  566.57	-1726.82	  447.39
     16.7700	  579.00	  566.32	-1735.57	  447.15
     16.8700	  558.00	  566.07	-1756.32	  446.90
     16.9700	  582.00	  565.82	-1732.07	  446.65
     17.0700	  577.00	  565.57	-1736.82	  446.40
     17.1700	  577.00	  565.31	-1736.56	  446.15
     17.2700	  568.00	  565.06	-1745.31	  445.90
     17.3700	  543.00	  564.80	-1770.05	  445.64
     17.4700	  581.00	  564.54	-1731.79	  445.38
     17.5700	  570.00	  564.27	-1742.52	  445.12
     17.6700	  564.00	  564.01	-1748.26	  444.86
     17.7700	  557.00	  563.74	-1754.99	  444.59
     17.8700	  533.00	  563.47	-1778.72	  444.32
     17.9700	  540.00	  563.20	-1771.45	  444.06
     18.0700	  532.00	  563.04	-1779.29	  443.78
     18.1700	  550.00	  562.77	-1761.02	  443.51
     18.2700	  572.00	  562.50	-1738.75	  443.24
     18.3700	  558.00	  562.22	-1752.47	  442.96
     18.4700	  566.00	  561.95	-1744.20	  442.68
     18.5700	  555.00	  561.67	-1754.92	  442.40
     18.6700	  597.00	  561.39	-1712.64	  442.12
     18.7700	  553.00	  561.11	-1756.36	  441.84
     18.8700	  551.00	  560.83	-1758.08	  441.56
     18.9700	  576.00	  560.63	-1732.88	  441.27
     19.0700	  514.00	  560.35	-1794.60	  440.98
     19.1700	  547.00	  560.06	-1761.31	  440.69
     19.2700	  561.00	  559.78	-1747.03	  440.40
     19.3700	  573.00	  559.49	-1734.74	  440.11
     19.4700	  567.00	  559.20	-1740.45	  439.81
     19.5700	  499.00	  558.92	-1808.17	  439.52
     19.6700	  539.00	  558.63	-1767.88	  439.22
     19.7700	  567.00	  558.34	-1739.59	  438.93
     19.8700	  564.00	  558.05	-1742.30	  438.63
     19.9700	  539.00	  557.75	-1767.00	  438.33
     20.0700	  552.00	  557.46	-1753.71	  438.02
     20.1700	  559.00	  557.17	-1746.42	  437.72
     20.2700	  503.00	  556.88	-1802.13	  437.42
     20.3700	  559.00	  556.58	-1745.83	  437.11
     20.4700	  521.00	  556.29	-1783.54	  436.81
     20.5700	  560.00	  555.99	-1744.24	  436.50
     20.6700	  538.00	  555.70	-1765.95	  436.19
     20.7700	  563.00	  555.37	-1740.62	  435.88
     20.8700	  520.00	  555.11	-1783.36	  435.57
     20.9700	  575.00	  554.81	-1728.06	  435.26
     21.0700	  560.00	  554.52	-1742.77	  434.94
     21.1700	  561.00	  554.22	-1741.47	  434.63
     21.2700	  545.00	  553.93	-1757.18	  434.32
     21.3700	  533.00	  553.63	-1768.88	  434.00
     21.4700	  554.00	  553.34	-1747.59	  433.69
     21.5700	  539.00	  553.05	-1762.30	  433.37
     21.6700	  509.00	  552.76	-1792.01	  433.05
     21.7700	  608.00	  552.47	-1692.72	  432.73
     21.8700	  528.00	  552.18	-1772.43	  432.41
     21.9700	  503.00	  551.89	-1797.14	  432.09
     22.0700	  542.00	  551.61	-1757.86	  431.77
     22.1700	  537.00	  551.32	-1762.57	  431.45
     22.2700	  560.00	  551.04	-1739.29	  431.13
     22.3700	  550.00	  550.77	-1749.02	  430.81
     22.4700	  526.00	  550.50	-1772.75	  430.49
     22.5700	  597.00	  550.23	-1701.48	  430.16
     22.6700	  606.00	  549.97	-1692.22	  429.84
     22.7700	  589.00	  549.71	-1708.96	  429.51
     22.8700	  556.00	  549.47	-1741.72	  429.19
     22.9700	  526.00	  549.23	-1771.48	  428.86
     23.0700	  568.00	  549.01	-1729.26	  428.54
     23.1700	  578.00	  548.80	-1719.05	  428.21
     23.2700	  557.00	  548.62	-1739.87	  427.89
     23.3700	  556.00	  548.46	-1740.71	  427.56
     23.4700	  563.00	  548.34	-1733.59	  427.23
     23.5700	  576.00	  548.27	-1720.52	  426.90
     23.6700	  513.00	  548.39	-1783.64	  426.58
     23.7700	  549.00	  548.51	-1747.76	  426.25
     23.8700	  536.00	  548.84	-1761.09	  425.92
     23.9700	  555.00	  549.62	-1742.87	  425.59
     24.0700	  561.00	  551.24	-1738.49	  425.26
     24.1700	  553.00	  554.38	-1749.63	  424.93
     24.2700	  574.00	  559.83	-1734.08	  424.61
     24.3700	  604.00	  568.55	-1712.80	  424.28
     24.4700	  627.00	  581.47	-1702.72	  423.95
     24.5700	  603.00	  598.76	-1744.01	  423.62
     24.6700	  632.00	  617.68	-1733.93	  423.29
     24.7700	  634.00	  630.79	-1745.04	  422.96
     24.8700	  632.00	  628.06	-1744.31	  422.63
     24.9700	  652.00	  608.07	-1704.32	  422.30
     25.0700	  580.00	  583.49	-1751.74	  421.97
     25.1700	  613.00	  564.82	-1700.07	  421.65
     25.2700	  549.00	  554.05	-1753.30	  421.32
     25.3700	  574.00	  548.85	-1723.10	  420.99
     25.4700	  513.00	  546.44	-1781.69	  420.66
     25.5700	  539.00	  545.17	-1754.42	  420.33
     25.6700	  550.00	  544.34	-1742.59	  420.00
     25.7700	  562.00	  543.75	-1730.00	  419.68
     25.8700	  560.00	  543.30	-1731.55	  419.35
     25.9700	  514.00	  542.96	-1777.21	  419.02
     26.0700	  543.00	  542.71	-1747.96	  418.70
     26.1700	  522.00	  542.54	-1768.79	  418.37
     26.2700	  538.00	  542.45	-1752.70	  418.04
     26.3700	  591.00	  542.44	-1699.69	  417.72
     26.4700	  523.00	  542.51	-1767.76	  417.39
     26.5700	  573.00	  542.69	-1717.94	  417.06
     26.6700	  577.00	  542.98	-1714.23	  416.74
     26.7700	  606.00	  543.42	-1685.67	  416.42
     26.8700	  566.00	  544.03	-1726.28	  416.09
     26.9700	  538.00	  544.88	-1755.13	  415.77
     27.0700	  570.00	  546.04	-1724.29	  415.44
     27.1700	  564.00	  547.65	-1731.90	  415.12
     27.2700	  608.00	  549.97	-1690.22	  414.80
     27.3700	  537.00	  553.54	-1764.79	  414.48
     27.4700	  544.00	  559.40	-1763.65	  414.16
     27.5700	  551.00	  569.44	-1766.69	  413.84
     27.6700	  564.00	  586.68	-1770.93	  413.52
     27.7700	  522.00	  615.05	-1841.30	  413.20
     27.8700	  596.00	  658.03	-1810.28	  412.88
     27.9700	  730.00	  715.88	-1734.13	  412.56
     28.0700	  793.00	  781.98	-1737.23	  412.24
     28.1700	  907.00	  839.49	-1680.74	  411.93
     28.2700	 1004.00	  862.96	-1607.21	  411.61
     28.3700	  871.00	  837.27	-1714.52	  411.29
     28.4700	  822.00	  786.05	-1712.30	  410.98
     28.5700	  711.00	  748.25	-1785.50	  410.67
     28.6700	  707.00	  741.61	-1782.86	  410.35
     28.7700	  720.00	  761.49	-1789.74	  410.04
     28.8700	  761.00	  787.54	-1774.79	  409.73
     28.9700	  817.00	  791.46	-1722.71	  409.42
     29.0700	  735.00	  755.38	-1768.63	  409.11
     29.1700	  689.00	  694.38	-1753.63	  408.80
     29.2700	  653.00	  636.40	-1731.65	  408.49
     29.3700	  611.00	  594.72	-1731.97	  408.18
     29.4700	  563.00	  569.65	-1754.90	  407.88
     29.5700	  582.00	  556.16	-1722.41	  407.57
     29.6700	  571.00	  549.06	-1726.31	  407.27
     29.7700	  547.00	  545.02	-1746.27	  406.96
     29.8700	  592.00	  542.51	-1698.76	  406.66
     29.9700	  592.00	  540.91	-1697.16	  406.36
     30.0700	  586.00	  540.11	-1702.36	  406.06
     30.1700	  523.00	  540.26	-1765.51	  405.76
     30.2700	  584.00	  541.91	-1706.16	  405.46
     30.3700	  544.00	  546.11	-1750.36	  405.16
     30.4700	  614.00	  554.47	-1688.72	  404.86
     30.5700	  565.00	  568.67	-1751.92	  404.57
     30.6700	  601.00	  589.20	-1736.45	  404.27
     30.7700	  573.00	  613.51	-1788.76	  403.98
     30.8700	  653.00	  634.69	-1729.94	  403.69
     30.9700	  625.00	  642.23	-1765.48	  403.39
     31.0700	  663.00	  628.84	-1714.09	  403.10
     31.1700	  585.00	  601.56	-1764.81	  402.81
     31.2700	  557.00	  574.16	-1765.41	  402.53
     31.3700	  559.00	  553.92	-1743.17	  402.24
     31.4700	  532.00	  541.62	-1757.87	  401.95
     31.5700	  587.00	  535.04	-1696.29	  401.67
     31.6700	  471.00	  531.66	-1808.91	  401.38
     31.7700	  555.00	  529.78	-1723.03	  401.10
     31.8700	  539.00	  528.60	-1737.85	  400.82
     31.9700	  514.00	  527.78	-1762.03	  400.54
     32.0700	  544.00	  527.19	-1731.44	  400.26
     32.1700	  568.00	  526.79	-1707.04	  399.98
     32.2700	  545.00	  526.54	-1729.79	  399.71
     32.3700	  562.00	  526.44	-1712.69	  399.43
     32.4700	  587.00	  526.50	-1687.75	  399.16
     32.5700	  548.00	  526.73	-1726.98	  398.89
     32.6700	  557.00	  527.15	-1718.40	  398.61
     32.7700	  538.00	  527.82	-1738.07	  398.34
     32.8700	  557.00	  528.79	-1720.04	  398.08
     32.9700	  544.00	  530.18	-1734.43	  397.81
     33.0700	  503.00	  532.21	-1777.46	  397.54
     33.1700	  540.00	  535.32	-1743.57	  397.28
     33.2700	  551.00	  540.56	-1737.81	  397.01
     33.3700	  560.00	  550.16	-1738.41	  396.75
     33.4700	  577.00	  568.40	-1739.65	  396.49
     33.5700	  610.00	  602.08	-1740.33	  396.23
     33.6700	  608.00	  658.95	-1799.20	  395.97
     33.7700	  752.00	  742.49	-1738.74	  395.72
     33.8700	  882.00	  843.61	-1709.86	  395.46
     33.9700	 1062.00	  935.37	-1621.62	  395.21
     34.0700	 1016.00	  976.25	-1708.50	  394.96
     34.1700	  966.00	  935.46	-1717.71	  394.71
     34.2700	  935.00	  833.94	-1647.19	  394.46
     34.3700	  752.00	  724.22	-1720.47	  394.21
     34.4700	  654.00	  638.93	-1733.18	  393.96
     34.5700	  586.00	  585.03	-1747.28	  393.72
     34.6700	  550.00	  555.69	-1753.94	  393.47
     34.7700	  534.00	  540.89	-1755.14	  393.23
     34.8700	  537.00	  533.15	-1744.40	  392.99
     34.9700	  533.00	  528.54	-1743.79	  392.75
     35.0700	  542.00	  525.36	-1731.61	  392.52
     35.1700	  529.00	  522.99	-1742.24	  392.28
     35.2700	  510.00	  521.09	-1759.34	  392.05
     35.3700	  523.00	  519.55	-1744.80	  391.81
     35.4700	  528.00	  518.27	-1738.52	  391.58
     35.5700	  546.00	  517.18	-1719.43	  391.35
     35.6700	  541.00	  516.26	-1723.51	  391.12
     35.7700	  517.00	  515.45	-1746.70	  390.90
     35.8700	  557.00	  514.74	-1705.99	  390.67
     35.9700	  513.00	  514.11	-1749.36	  390.45
     36.0700	  513.00	  514.01	-1749.26	  390.23
     36.1700	  529.00	  513.50	-1732.75	  390.01
     36.2700	  552.00	  513.05	-1709.30	  389.79
     36.3700	  505.00	  512.64	-1755.89	  389.57
     36.4700	  459.00	  512.27	-1801.52	  389.35
     36.5700	  538.00	  511.95	-1722.20	  389.14
     36.6700	  483.00	  511.66	-1776.91	  388.93
     36.7700	  477.00	  511.43	-1782.68	  388.72
     36.8700	  505.00	  511.28	-1754.53	  388.51
     36.9700	  488.00	  511.27	-1771.52	  388.30
     37.0700	  522.00	  511.54	-1737.79	  388.10
     37.1700	  522.00	  512.37	-1738.62	  387.89
     37.2700	  512.00	  514.15	-1750.40	  387.69
     37.3700	  512.00	  517.25	-1753.50	  387.49
     37.4700	  507.00	  521.68	-1762.93	  387.29
     37.5700	  514.00	  526.70	-1760.95	  387.09
     37.6700	  533.00	  530.73	-1745.98	  386.90
     37.7700	  490.00	  531.93	-1790.18	  386.70
     37.8700	  566.00	  529.83	-1712.08	  386.51
     37.9700	  517.00	  525.88	-1757.13	  386.32
     38.0700	  507.00	  521.52	-1762.77	  386.13
     38.1700	  490.00	  517.35	-1775.60	  385.94
     38.2700	  497.00	  513.77	-1765.02	  385.76
     38.3700	  505.00	  511.07	-1754.32	  385.57
     38.4700	  464.00	  509.20	-1793.45	  385.39
     38.5700	  496.00	  508.00	-1760.25	  385.21
     38.6700	  507.00	  507.14	-1748.39	  385.03
     38.7700	  501.00	  506.65	-1753.90	  384.85
     38.8700	  527.00	  506.29	-1727.54	  384.68
     38.9700	  491.00	  506.00	-1763.25	  384.50
     39.0700	  517.00	  505.75	-1737.00	  384.33
     39.1700	  481.00	  505.45	-1772.70	  384.16
     39.2700	  486.00	  505.25	-1767.50	  383.99
     39.3700	  524.00	  505.06	-1729.31	  383.83
     39.4700	  506.00	  505.02	-1747.27	  383.66
     39.5700	  507.00	  504.86	-1746.11	  383.50
     39.6700	  494.00	  504.71	-1758.96	  383.33
     39.7700	  508.00	  504.57	-1744.82	  383.17
     39.8700	  489.00	  504.44	-1763.69	  383.02
     39.9700	  495.00	  504.32	-1757.57	  382.86
     40.0700	  500.00	  504.21	-1752.46	  382.71
     40.1700	  520.00	  504.12	-1732.37	  382.55
     40.2700	  482.00	  504.03	-1770.28	  382.40
     40.3700	  480.00	  503.96	-1772.21	  382.25
     40.4700	  488.00	  503.90	-1764.15	  382.10
     40.5700	  500.00	  503.86	-1752.11	  381.96
     40.6700	  496.00	  503.84	-1756.09	  381.81
     40.7700	  556.00	  503.83	-1696.08	  381.67
     40.8700	  534.00	  503.86	-1718.11	  381.53
     40.9700	  505.00	  503.91	-1747.16	  381.39
     41.0700	  441.00	  504.00	-1811.25	  381.25
     41.1700	  483.00	  504.13	-1769.38	  381.12
     41.2700	  518.00	  504.28	-1734.53	  380.99
     41.3700	  548.00	  504.54	-1704.79	  380.85
     41.4700	  504.00	  504.89	-1749.14	  380.72
     41.5700	  488.00	  505.79	-1766.04	  380.59
     41.6700	  504.00	  506.47	-1750.72	  380.47
     41.7700	  522.00	  507.48	-1733.73	  380.34
     41.8700	  484.00	  509.17	-1773.43	  380.22
     41.9700	  489.00	  512.29	-1771.54	  380.10
     42.0700	  483.00	  518.28	-1783.53	  379.98
     42.1700	  549.00	  529.43	-1728.68	  379.86
     42.2700	  555.00	  548.36	-1741.61	  379.75
     42.3700	  565.00	  576.54	-1759.79	  379.63
     42.4700	  587.00	  611.97	-1773.22	  379.52
     42.5700	  604.00	  646.91	-1791.16	  379.41
     42.6700	  608.00	  668.91	-1809.16	  379.30
     42.7700	  596.00	  666.51	-1818.76	  379.19
     42.8700	  559.00	  640.28	-1829.53	  379.09
     42.9700	  568.00	  603.12	-1783.37	  378.98
     43.0700	  537.00	  568.10	-1779.35	  378.88
     43.1700	  522.00	  541.69	-1767.94	  378.78
     43.2700	  519.00	  524.80	-1754.05	  378.68
     43.3700	  541.00	  515.29	-1722.54	  378.59
     43.4700	  507.00	  510.34	-1751.59	  378.49
     43.5700	  489.00	  507.76	-1767.01	  378.40
     43.6700	  485.00	  506.28	-1769.53	  378.31
     43.7700	  534.00	  505.51	-1719.76	  378.22
     43.8700	  549.00	  504.82	-1704.07	  378.13
     43.9700	  510.00	  504.34	-1742.59	  378.04
     44.0700	  514.00	  503.93	-1738.18	  377.96
     44.1700	  523.00	  503.62	-1728.87	  377.88
     44.2700	  504.00	  503.37	-1747.62	  377.79
     44.3700	  504.00	  503.18	-1747.43	  377.72
     44.4700	  526.00	  503.03	-1725.28	  377.64
     44.5700	  504.00	  502.92	-1747.17	  377.56
     44.6700	  539.00	  502.73	-1711.98	  377.49
     44.7700	  477.00	  502.69	-1773.94	  377.42
     44.8700	  541.00	  502.67	-1709.92	  377.35
     44.9700	  526.00	  502.69	-1724.94	  377.28
     45.0700	  494.00	  502.72	-1756.97	  377.21
     45.1700	  505.00	  502.78	-1746.03	  377.14
     45.2700	  527.00	  503.04	-1724.29	  377.08
     45.3700	  494.00	  503.15	-1757.40	  377.02
     45.4700	  474.00	  503.28	-1777.53	  376.96
     45.5700	  498.00	  503.43	-1753.68	  376.90
     45.6700	  506.00	  503.61	-1745.86	  376.84
     45.7700	  487.00	  503.82	-1765.07	  376.79
     45.8700	  495.00	  504.05	-1757.30	  376.74
     45.9700	  545.00	  504.32	-1707.57	  376.68
     46.0700	  482.00	  504.62	-1770.87	  376.63
     46.1700	  504.00	  504.96	-1749.21	  376.59
     46.2700	  548.00	  505.34	-1705.59	  376.54
     46.3700	  491.00	  505.78	-1763.03	  376.49
     46.4700	  502.00	  506.28	-1752.53	  376.45
     46.5700	  510.00	  506.85	-1745.10	  376.41
     46.6700	  517.00	  507.51	-1738.76	  376.37
     46.7700	  498.00	  508.29	-1758.54	  376.33
     46.8700	  478.00	  509.25	-1779.50	  376.30
     46.9700	  474.00	  510.52	-1784.77	  376.26
     47.0700	  500.00	  512.40	-1760.65	  376.23
     47.1700	  491.00	  515.46	-1772.71	  376.20
     47.2700	  573.00	  520.65	-1695.90	  376.17
     47.3700	  529.00	  529.14	-1748.39	  376.14
     47.4700	  517.00	  542.13	-1773.38	  376.11
     47.5700	  528.00	  559.80	-1780.05	  376.09
     47.6700	  621.00	  580.37	-1707.62	  376.06
     47.7700	  582.00	  599.54	-1765.79	  376.04
     47.8700	  604.00	  611.12	-1755.37	  376.02
     47.9700	  600.00	  610.26	-1758.51	  376.00
     48.0700	  575.00	  597.98	-1771.23	  375.99
     48.1700	  599.00	  580.51	-1729.76	  375.97
     48.2700	  559.00	  563.79	-1753.04	  375.96
     48.3700	  518.00	  551.32	-1781.57	  375.94
     48.4700	  515.00	  544.06	-1777.31	  375.93
     48.5700	  568.00	  541.43	-1721.68	  375.93
     48.6700	  528.00	  542.26	-1762.51	  375.92
     48.7700	  557.00	  545.56	-1736.81	  375.91
     48.8700	  521.00	  550.81	-1778.06	  375.91
     48.9700	  570.00	  558.01	-1736.26	  375.91
     49.0700	  572.00	  567.81	-1744.06	  375.90
     49.1700	  586.00	  581.81	-1744.06	  375.90
     49.2700	  604.00	  603.48	-1747.73	  375.91
     49.3700	  649.00	  639.46	-1738.71	  375.91
     49.4700	  693.00	  701.05	-1756.30	  375.92
     49.5700	  800.00	  804.90	-1753.15	  375.92
     49.6700	  893.00	  969.14	-1824.39	  375.93
     49.7700	 1121.00	 1208.08	-1835.33	  375.94
     49.8700	 1489.00	 1519.97	-1779.22	  375.95
     49.9700	 1786.00	 1874.90	-1837.15	  375.96
     50.0700	 2209.00	 2205.92	-1745.17	  375.98
     50.1700	 2519.00	 2414.34	-1643.59	  375.99
     50.2700	 2482.00	 2413.64	-1679.89	  376.01
     50.3700	 2199.00	 2201.98	-1751.23	  376.03
     50.4700	 1880.00	 1868.06	-1736.31	  376.05
     50.5700	 1396.00	 1514.69	-1866.94	  376.07
     50.6700	 1018.00	 1209.20	-1939.45	  376.09
     50.7700	  852.00	  980.34	-1876.59	  376.12
     50.8700	  687.00	  828.46	-1889.71	  376.15
     50.9700	  661.00	  737.46	-1824.71	  376.17
     51.0700	  623.00	  685.75	-1811.00	  376.20
     51.1700	  639.00	  654.12	-1763.37	  376.23
     51.2700	  612.00	  630.17	-1766.42	  376.26
     51.3700	  588.00	  609.01	-1769.26	  376.30
     51.4700	  581.00	  590.25	-1757.50	  376.33
     51.5700	  543.00	  574.67	-1779.92	  376.37
     51.6700	  582.00	  562.74	-1728.99	  376.40
     51.7700	  516.00	  554.25	-1786.50	  376.44
     51.8700	  541.00	  548.56	-1755.81	  376.48
     51.9700	  620.00	  544.91	-1673.16	  376.53
     52.0700	  563.00	  542.69	-1727.94	  376.57
     52.1700	  566.00	  541.53	-1723.78	  376.61
     52.2700	  593.00	  541.54	-1696.79	  376.66
     52.3700	  529.00	  542.35	-1761.60	  376.70
     52.4700	  590.00	  544.62	-1702.87	  376.75
     52.5700	  580.00	  549.39	-1717.64	  376.80
     52.6700	  613.00	  558.82	-1694.07	  376.85
     52.7700	  594.00	  576.84	-1731.09	  376.91
     52.8700	  649.00	  609.45	-1708.70	  376.96
     52.9700	  717.00	  663.95	-1695.20	  377.01
     53.0700	  739.00	  746.38	-1755.62	  377.07
     53.1700	  964.00	  857.25	-1641.50	  377.13
     53.2700	  982.00	  986.85	-1753.10	  377.19
     53.3700	 1131.00	 1112.35	-1729.60	  377.25
     53.4700	 1169.00	 1199.51	-1778.76	  377.31
     53.5700	 1201.00	 1215.48	-1762.73	  377.37
     53.6700	 1149.00	 1152.77	-1752.02	  377.43
     53.7700	  959.00	 1037.05	-1826.30	  377.50
     53.8700	  835.00	  905.27	-1818.52	  377.56
     53.9700	  689.00	  785.51	-1844.76	  377.63
     54.0700	  705.00	  692.25	-1735.50	  377.70
     54.1700	  634.00	  628.24	-1742.49	  377.77
     54.2700	  611.00	  588.86	-1726.11	  377.84
     54.3700	  569.00	  566.76	-1746.01	  377.91
     54.4700	  556.00	  555.21	-1747.46	  377.98
     54.5700	  591.00	  549.46	-1706.71	  378.06
     54.6700	  540.00	  546.73	-1754.98	  378.13
     54.7700	  550.00	  545.71	-1743.96	  378.21
     54.8700	  555.00	  545.75	-1739.00	  378.29
     54.9700	  511.00	  546.60	-1783.85	  378.37
     55.0700	  557.00	  548.19	-1739.44	  378.45
     55.1700	  520.00	  550.52	-1778.77	  378.53
     55.2700	  551.00	  553.69	-1750.94	  378.61
     55.3700	  564.00	  557.76	-1742.01	  378.70
     55.4700	  586.00	  562.98	-1725.23	  378.78
     55.5700	  562.00	  569.74	-1755.99	  378.87
     55.6700	  599.00	  578.85	-1728.10	  378.95
     55.7700	  545.00	  591.96	-1795.21	  379.04
     55.8700	  596.00	  612.44	-1764.69	  379.13
     55.9700	  660.00	  646.49	-1734.74	  379.22
     56.0700	  646.00	  704.59	-1806.84	  379.31
     56.1700	  760.00	  801.83	-1790.08	  379.40
     56.2700	  889.00	  956.21	-1815.46	  379.49
     56.3700	 1104.00	 1183.35	-1827.60	  379.59
     56.4700	 1343.00	 1487.72	-1892.97	  379.68
     56.5700	 1742.00	 1852.93	-1859.18	  379.78
     56.6700	 2245.00	 2233.84	-1737.09	  379.87
     56.7700	 2514.00	 2554.51	-1788.76	  379.97
     56.8700	 2742.00	 2722.49	-1728.74	  380.07
     56.9700	 2655.00	 2675.38	-1768.63	  380.17
     57.0700	 2387.00	 2431.41	-1792.66	  380.27
     57.1700	 2053.00	 2074.44	-1769.69	  380.37
     57.2700	 1688.00	 1694.61	-1754.86	  380.48
     57.3700	 1319.00	 1354.99	-1784.24	  380.58
     57.4700	 1034.00	 1087.47	-1801.72	  380.68
     57.5700	  882.00	  898.25	-1764.50	  380.79
     57.6700	  806.00	  777.04	-1719.29	  380.89
     57.7700	  687.00	  707.03	-1768.28	  381.00
     57.8700	  716.00	  672.34	-1704.59	  381.11
     57.9700	  705.00	  661.80	-1705.05	  381.22
     58.0700	  689.00	  669.53	-1728.78	  381.33
     58.1700	  716.00	  693.61	-1725.86	  381.44
     58.2700	  713.00	  734.13	-1769.38	  381.55
     58.3700	  859.00	  791.35	-1680.60	  381.66
     58.4700	  930.00	  863.93	-1682.18	  381.77
     58.5700	 1058.00	  947.41	-1637.66	  381.89
     58.6700	 1209.00	 1033.67	-1572.92	  382.00
     58.7700	 1332.00	 1113.23	-1529.48	  382.12
     58.8700	 1442.00	 1179.52	-1485.77	  382.23
     58.9700	 1533.00	 1228.80	-1444.05	  382.35
     59.0700	 1529.00	 1256.03	-1475.28	  382.47
     59.1700	 1534.00	 1256.72	-1470.97	  382.58
     59.2700	 1412.00	 1234.66	-1570.91	  382.70
     59.3700	 1372.00	 1202.07	-1578.32	  382.82
     59.4700	 1254.00	 1171.36	-1665.61	  382.94
     59.5700	 1237.00	 1150.70	-1661.95	  383.06
     59.6700	 1132.00	 1146.96	-1763.21	  383.18
     59.7700	 1199.00	 1168.52	-1717.77	  383.31
     59.8700	 1309.00	 1221.00	-1660.25	  383.43
     59.9700	 1297.00	 1300.80	-1752.05	  383.55
     60.0700	 1448.00	 1391.91	-1692.16	  383.68
     60.1700	 1556.00	 1466.52	-1658.77	  383.80
     60.2700	 1539.00	 1492.24	-1701.49	  383.93
     60.3700	 1511.00	 1449.06	-1686.31	  384.05
     60.4700	 1438.00	 1343.78	-1654.03	  384.18
     60.5700	 1264.00	 1203.06	-1687.31	  384.31
     60.6700	 1084.00	 1055.50	-1719.75	  384.43
     60.7700	  916.00	  921.92	-1754.17	  384.56
     60.8700	  798.00	  814.00	-1764.25	  384.69
     60.9700	  659.00	  735.71	-1824.96	  384.82
     61.0700	  712.00	  685.81	-1722.06	  384.95
     61.1700	  638.00	  661.02	-1771.27	  385.08
     61.2700	  636.00	  658.70	-1770.95	  385.21
     61.3700	  658.00	  678.60	-1768.85	  385.34
     61.4700	  703.00	  722.91	-1768.16	  385.48
     61.5700	  770.00	  795.04	-1773.29	  385.61
     61.6700	  840.00	  897.02	-1805.27	  385.74
     61.7700	  987.00	 1026.57	-1787.82	  385.88
     61.8700	 1109.00	 1174.14	-1813.39	  386.01
     61.9700	 1277.00	 1321.36	-1792.61	  386.14
     62.0700	 1390.00	 1441.00	-1799.25	  386.28
     62.1700	 1394.00	 1502.23	-1856.48	  386.41
     62.2700	 1346.00	 1485.09	-1887.34	  386.55
     62.3700	 1295.00	 1394.79	-1848.04	  386.69
     62.4700	 1176.00	 1257.74	-1829.99	  386.82
     62.5700	 1052.00	 1104.59	-1800.84	  386.96
     62.6700	  887.00	  959.24	-1820.49	  387.10
     62.7700	  785.00	  836.12	-1799.37	  387.23
     62.8700	  671.00	  741.16	-1818.41	  387.37
     62.9700	  633.00	  673.65	-1788.90	  387.51
     63.0700	  579.00	  629.01	-1798.26	  387.65
     63.1700	  589.00	  601.29	-1760.54	  387.79
     63.2700	  551.00	  585.07	-1782.32	  387.93
     63.3700	  583.00	  576.31	-1741.56	  388.06
     63.4700	  617.00	  572.64	-1703.89	  388.20
     63.5700	  535.00	  573.19	-1786.44	  388.34
     63.6700	  550.00	  578.33	-1776.58	  388.48
     63.7700	  599.00	  589.45	-1738.70	  388.63
     63.8700	  643.00	  608.61	-1713.86	  388.77
     63.9700	  673.00	  638.01	-1713.26	  388.91
     64.0700	  724.00	  679.21	-1703.46	  389.05
     64.1700	  751.00	  732.14	-1729.39	  389.19
     64.2700	  831.00	  794.19	-1711.44	  389.33
     64.3700	  938.00	  859.48	-1669.73	  389.47
     64.4700	  969.00	  918.39	-1697.64	  389.61
     64.5700	 1052.00	  960.77	-1657.02	  389.76
     64.6700	 1023.00	  977.29	-1702.54	  389.90
     64.7700	 1010.00	  965.52	-1703.77	  390.04
     64.8700	  939.00	  929.72	-1738.97	  390.18
     64.9700	  925.00	  878.55	-1701.80	  390.33
     65.0700	  799.00	  821.80	-1771.05	  390.47
     65.1700	  795.00	  767.51	-1720.76	  390.61
     65.2700	  743.00	  720.31	-1725.56	  390.75
     65.3700	  686.00	  681.53	-1743.78	  390.90
     65.4700	  673.00	  650.44	-1725.69	  391.04
     65.5700	  599.00	  625.74	-1774.99	  391.18
     65.6700	  640.00	  606.37	-1714.62	  391.33
     65.7700	  613.00	  591.49	-1726.74	  391.47
     65.8700	  594.00	  580.45	-1734.70	  391.61
     65.9700	  535.00	  572.68	-1785.93	  391.76
     66.0700	  554.00	  567.71	-1761.96	  391.90
     66.1700	  529.00	  565.07	-1784.32	  392.04
     66.2700	  571.00	  564.37	-1741.62	  392.19
     66.3700	  530.00	  565.27	-1783.52	  392.33
     66.4700	  547.00	  567.58	-1768.83	  392.47
     66.5700	  573.00	  571.32	-1746.57	  392.61
     66.6700	  547.00	  576.98	-1778.23	  392.76
     66.7700	  561.00	  585.19	-1772.44	  392.90
     66.8700	  598.00	  597.80	-1748.05	  393.04
     66.9700	  541.00	  617.78	-1825.03	  393.19
     67.0700	  621.00	  649.86	-1777.11	  393.33
     67.1700	  671.00	  700.82	-1778.07	  393.47
     67.2700	  749.00	  779.19	-1778.44	  393.61
     67.3700	  897.00	  894.22	-1745.47	  393.76
     67.4700	 1101.00	 1053.44	-1700.69	  393.90
     67.5700	 1229.00	 1259.67	-1778.92	  394.04
     67.6700	 1583.00	 1507.07	-1672.32	  394.18
     67.7700	 1759.00	 1778.80	-1768.05	  394.32
     67.8700	 2077.00	 2045.93	-1717.18	  394.46
     67.9700	 2293.00	 2267.51	-1722.76	  394.60
     68.0700	 2329.00	 2398.03	-1817.28	  394.75
     68.1700	 2439.00	 2403.97	-1713.22	  394.89
     68.2700	 2289.00	 2283.67	-1742.92	  395.03
     68.3700	 2106.00	 2068.47	-1710.72	  395.17
     68.4700	 1853.00	 1803.95	-1699.20	  395.31
     68.5700	 1573.00	 1531.47	-1706.72	  395.45
     68.6700	 1242.00	 1281.50	-1787.75	  395.59
     68.7700	 1036.00	 1071.87	-1784.12	  395.73
     68.8700	  932.00	  909.10	-1725.35	  395.86
     68.9700	  766.00	  791.00	-1773.25	  396.00
     69.0700	  700.00	  710.29	-1758.54	  396.14
     69.1700	  653.00	  657.82	-1753.07	  396.28
     69.2700	  654.00	  624.90	-1719.15	  396.42
     69.3700	  634.00	  604.57	-1718.82	  396.55
     69.4700	  601.00	  591.94	-1739.19	  396.69
     69.5700	  625.00	  583.85	-1707.10	  396.83
     69.6700	  554.00	  578.46	-1772.71	  396.96
     69.7700	  572.00	  574.76	-1751.01	  397.10
     69.8700	  571.00	  572.21	-1749.46	  397.23
     69.9700	  555.00	  570.53	-1763.78	  397.37
     70.0700	  570.00	  569.60	-1747.85	  397.50
     70.1700	  559.00	  569.37	-1758.62	  397.64
     70.2700	  589.00	  569.88	-1729.13	  397.77
     70.3700	  613.00	  571.20	-1706.45	  397.90
     70.4700	  514.00	  573.57	-1807.82	  398.04
     70.5700	  549.00	  577.49	-1776.74	  398.17
     70.6700	  623.00	  583.81	-1709.06	  398.30
     70.7700	  610.00	  594.05	-1732.30	  398.43
     70.8700	  552.00	  610.63	-1806.88	  398.56
     70.9700	  583.00	  637.11	-1802.36	  398.69
     71.0700	  639.00	  678.25	-1787.50	  398.82
     71.1700	  733.00	  739.77	-1755.02	  398.95
     71.2700	  836.00	  827.37	-1739.62	  399.08
     71.3700	  905.00	  945.44	-1788.69	  399.21
     71.4700	 1102.00	 1094.96	-1741.21	  399.33
     71.5700	 1276.00	 1271.78	-1744.03	  399.46
     71.6700	 1432.00	 1465.83	-1782.08	  399.59
     71.7700	 1566.00	 1657.28	-1839.53	  399.71
     71.8700	 1824.00	 1822.08	-1746.33	  399.84
     71.9700	 1857.00	 1931.79	-1823.04	  399.96
     72.0700	 1926.00	 1962.83	-1785.08	  400.09
     72.1700	 1874.00	 1907.75	-1782.00	  400.21
     72.2700	 1783.00	 1779.93	-1745.18	  400.33
     72.3700	 1676.00	 1605.20	-1677.45	  400.45
     72.4700	 1443.00	 1412.36	-1717.61	  400.57
     72.5700	 1322.00	 1223.83	-1650.08	  400.70
     72.6700	 1166.00	 1055.37	-1637.62	  400.82
     72.7700	 1055.00	  915.52	-1608.77	  400.93
     72.8700	  966.00	  806.47	-1588.72	  401.05
     72.9700	  817.00	  726.02	-1657.27	  401.17
     73.0700	  769.00	  669.36	-1648.61	  401.29
     73.1700	  763.00	  630.90	-1616.15	  401.40
     73.2700	  689.00	  605.38	-1664.63	  401.52
     73.3700	  679.00	  588.59	-1657.84	  401.63
     73.4700	  635.00	  577.47	-1690.72	  401.75
     73.5700	  604.00	  569.99	-1714.24	  401.86
     73.6700	  598.00	  564.89	-1715.14	  401.97
     73.7700	  592.00	  561.45	-1717.70	  402.09
     73.8700	  569.00	  559.23	-1738.48	  402.20
     73.9700	  639.00	  557.99	-1667.24	  402.31
     74.0700	  596.00	  557.54	-1709.79	  402.42
     74.1700	  580.00	  557.71	-1725.96	  402.52
     74.2700	  625.00	  558.28	-1681.53	  402.63
     74.3700	  619.00	  559.02	-1688.27	  402.74
     74.4700	  635.00	  559.63	-1672.88	  402.84
     74.5700	  649.00	  559.83	-1659.08	  402.95
     74.6700	  644.00	  559.39	-1663.64	  403.05
     74.7700	  613.00	  558.25	-1693.50	  403.16
     74.8700	  584.00	  556.57	-1720.82	  403.26
     74.9700	  632.00	  554.63	-1670.88	  403.36
     75.0700	  652.00	  552.77	-1649.02	  403.46
     75.1700	  590.00	  551.28	-1709.53	  403.56
     75.2700	  559.00	  550.65	-1739.90	  403.66
     75.3700	  611.00	  551.18	-1688.43	  403.76
     75.4700	  567.00	  553.40	-1734.65	  403.86
     75.5700	  588.00	  557.69	-1717.94	  403.95
     75.6700	  550.00	  564.76	-1763.01	  404.05
     75.7700	  571.00	  575.02	-1752.27	  404.14
     75.8700	  606.00	  588.77	-1731.02	  404.23
     75.9700	  646.00	  605.99	-1708.24	  404.33
     76.0700	  635.00	  626.15	-1739.40	  404.42
     76.1700	  655.00	  648.09	-1741.34	  404.51
     76.2700	  638.00	  670.00	-1780.25	  404.60
     76.3700	  722.00	  689.48	-1715.73	  404.68
     76.4700	  691.00	  703.73	-1760.98	  404.77
     76.5700	  687.00	  710.22	-1771.47	  404.86
     76.6700	  726.00	  707.59	-1729.84	  404.94
     76.7700	  649.00	  696.36	-1795.61	  405.03
     76.8700	  646.00	  678.67	-1780.92	  405.11
     76.9700	  669.00	  657.12	-1736.37	  405.19
     77.0700	  592.00	  634.66	-1790.91	  405.27
     77.1700	  550.00	  613.23	-1811.48	  405.35
     77.2700	  551.00	  594.22	-1791.47	  405.43
     77.3700	  539.00	  578.41	-1787.66	  405.51
     77.4700	  597.00	  566.00	-1717.25	  405.59
     77.5700	  524.00	  556.75	-1781.00	  405.66
     77.6700	  547.00	  550.17	-1751.42	  405.73
     77.7700	  540.00	  545.68	-1753.93	  405.81
     77.8700	  487.00	  542.72	-1803.97	  405.88
     77.9700	  507.00	  540.82	-1782.07	  405.95
     78.0700	  539.00	  539.62	-1748.87	  406.02
     78.1700	  504.00	  538.86	-1783.11	  406.09
     78.2700	  497.00	  538.38	-1789.63	  406.16
     78.3700	  492.00	  538.09	-1794.34	  406.22
     78.4700	  496.00	  537.92	-1790.17	  406.29
     78.5700	  519.00	  537.87	-1767.12	  406.35
     78.6700	  509.00	  537.91	-1777.16	  406.41
     78.7700	  509.00	  538.06	-1777.31	  406.48
     78.8700	  502.00	  538.34	-1784.59	  406.54
     78.9700	  491.00	  538.77	-1796.02	  406.60
     79.0700	  500.00	  539.41	-1787.66	  406.65
     79.1700	  555.00	  540.28	-1733.53	  406.71
     79.2700	  552.00	  541.28	-1737.53	  406.77
     79.3700	  550.00	  542.82	-1741.07	  406.82
     79.4700	  495.00	  544.77	-1798.02	  406.87
     79.5700	  501.00	  547.20	-1794.45	  406.92
     79.6700	  496.00	  550.18	-1802.43	  406.97
     79.7700	  508.00	  553.81	-1794.06	  407.02
     79.8700	  470.00	  558.22	-1836.47	  407.07
     79.9700	  550.00	  563.58	-1761.83	  407.12
     80.0700	  544.00	  570.11	-1774.36	  407.16
     80.1700	  561.00	  578.12	-1765.37	  407.21
     80.2700	  537.00	  587.98	-1799.23	  407.25
     80.3700	  608.00	  600.00	-1740.25	  407.29
     80.4700	  580.00	  614.39	-1782.64	  407.33
     80.5700	  545.00	  631.09	-1834.34	  407.37
     80.6700	  591.00	  649.70	-1806.95	  407.41
     80.7700	  645.00	  669.44	-1772.69	  407.44
     80.8700	  681.00	  689.17	-1756.42	  407.48
     80.9700	  720.00	  707.50	-1735.75	  407.51
     81.0700	  727.00	  723.08	-1744.33	  407.55
     81.1700	  720.00	  734.72	-1762.97	  407.58
     81.2700	  767.00	  741.53	-1722.78	  407.61
     81.3700	  809.00	  742.97	-1682.22	  407.63
     81.4700	  784.00	  739.02	-1703.27	  407.66
     81.5700	  740.00	  730.10	-1738.35	  407.69
     81.6700	  773.00	  716.95	-1692.20	  407.71
     81.7700	  725.00	  700.50	-1723.75	  407.73
     81.8700	  732.00	  681.85	-1698.10	  407.75
     81.9700	  715.00	  662.26	-1695.51	  407.77
     82.0700	  702.00	  642.87	-1689.12	  407.79
     82.1700	  659.00	  624.74	-1713.99	  407.81
     82.2700	  643.00	  608.48	-1713.73	  407.83
     82.3700	  642.00	  594.40	-1700.65	  407.84
     82.4700	  611.00	  582.65	-1719.90	  407.85
     82.5700	  622.00	  573.20	-1699.45	  407.86
     82.6700	  606.00	  565.92	-1708.17	  407.87
     82.7700	  566.00	  560.71	-1742.96	  407.88
     82.8700	  580.00	  557.39	-1725.64	  407.89
     82.9700	  573.00	  555.77	-1731.02	  407.90
     83.0700	  550.00	  555.72	-1753.97	  407.90
     83.1700	  548.00	  557.10	-1757.35	  407.90
     83.2700	  540.00	  559.77	-1768.02	  407.91
     83.3700	  551.00	  563.53	-1760.78	  407.91
     83.4700	  531.00	  568.12	-1785.37	  407.90
     83.5700	  536.00	  573.22	-1785.47	  407.90
     83.6700	  554.00	  578.38	-1772.63	  407.90
     83.7700	  565.00	  583.08	-1766.33	  407.89
     83.8700	  567.00	  586.77	-1768.02	  407.88
     83.9700	  595.00	  588.88	-1742.13	  407.88
     84.0700	  586.00	  589.05	-1751.30	  407.87
     84.1700	  541.00	  587.20	-1794.45	  407.85
     84.2700	  579.00	  583.61	-1752.86	  407.84
     84.3700	  535.00	  578.73	-1791.98	  407.83
     84.4700	  519.00	  573.12	-1802.37	  407.81
     84.5700	  570.00	  567.28	-1745.53	  407.79
     84.6700	  521.00	  561.63	-1788.88	  407.77
     84.7700	  555.00	  556.46	-1749.71	  407.75
     84.8700	  529.00	  551.98	-1771.23	  407.73
     84.9700	  583.00	  548.26	-1713.51	  407.71
     85.0700	  530.00	  545.32	-1763.57	  407.68
     85.1700	  526.00	  543.10	-1765.35	  407.66
     85.2700	  539.00	  541.50	-1750.75	  407.63
     85.3700	  529.00	  540.44	-1759.69	  407.60
     85.4700	  537.00	  539.80	-1751.05	  407.57
     85.5700	  566.00	  539.52	-1721.77	  407.53
     85.6700	  527.00	  539.55	-1760.80	  407.50
     85.7700	  552.00	  539.88	-1736.13	  407.47
     85.8700	  536.00	  540.54	-1752.79	  407.43
     85.9700	  514.00	  541.59	-1775.84	  407.39
     86.0700	  546.00	  543.15	-1745.40	  407.35
     86.1700	  567.00	  545.36	-1726.61	  407.31
     86.2700	  537.00	  548.40	-1759.65	  407.26
     86.3700	  519.00	  552.45	-1781.70	  407.22
     86.4700	  562.00	  557.70	-1743.95	  407.17
     86.5700	  556.00	  564.28	-1756.53	  407.13
     86.6700	  536.00	  572.21	-1784.46	  407.08
     86.7700	  554.00	  581.42	-1775.67	  407.03
     86.8700	  619.00	  591.32	-1720.57	  406.97
     86.9700	  629.00	  602.11	-1721.36	  406.92
     87.0700	  629.00	  612.83	-1732.08	  406.86
     87.1700	  646.00	  622.69	-1724.94	  406.81
     87.2700	  674.00	  630.79	-1705.04	  406.75
     87.3700	  694.00	  636.23	-1690.48	  406.69
     87.4700	  681.00	  638.34	-1705.59	  406.63
     87.5700	  632.00	  636.84	-1753.09	  406.56
     87.6700	  714.00	  632.02	-1666.27	  406.50
     87.7700	  634.00	  624.58	-1738.83	  406.43
     87.8700	  588.00	  615.47	-1775.72	  406.36
     87.9700	  637.00	  605.66	-1716.91	  406.30
     88.0700	  601.00	  596.06	-1743.31	  406.22
     88.1700	  646.00	  587.43	-1689.68	  406.15
     88.2700	  588.00	  580.33	-1740.58	  406.08
     88.3700	  610.00	  575.16	-1713.41	  406.00
     88.4700	  589.00	  572.08	-1731.33	  405.93
     88.5700	  593.00	  571.11	-1726.36	  405.85
     88.6700	  609.00	  572.09	-1711.34	  405.77
     88.7700	  555.00	  574.72	-1767.97	  405.69
     88.8700	  593.00	  578.60	-1733.85	  405.60
     88.9700	  623.00	  583.22	-1708.47	  405.52
     89.0700	  612.00	  588.04	-1724.29	  405.43
     89.1700	  618.00	  592.45	-1722.70	  405.34
     89.2700	  592.00	  595.86	-1752.11	  405.25
     89.3700	  580.00	  597.76	-1766.01	  405.16
     89.4700	  591.00	  597.81	-1755.06	  405.07
     89.5700	  596.00	  595.95	-1748.20	  404.98
     89.6700	  567.00	  592.38	-1773.63	  404.88
     89.7700	  571.00	  587.50	-1764.75	  404.78
     89.8700	  565.00	  581.78	-1765.03	  404.69
     89.9700	  571.00	  575.70	-1752.95	  404.59
     90.0700	  535.00	  569.64	-1782.89	  404.49
     90.1700	  565.00	  563.95	-1747.20	  404.38
     90.2700	  535.00	  558.83	-1772.08	  404.28
     90.3700	  567.00	  554.43	-1735.68	  404.17
     90.4700	  538.00	  550.81	-1761.06	  404.06
     90.5700	  539.00	  547.95	-1757.20	  403.96
     90.6700	  509.00	  545.81	-1785.06	  403.84
     90.7700	  506.00	  544.30	-1786.55	  403.73
     90.8700	  468.00	  543.34	-1823.59	  403.62
     90.9700	  500.00	  542.83	-1791.08	  403.50
     91.0700	  516.00	  542.73	-1774.98	  403.39
     91.1700	  545.00	  543.00	-1746.25	  403.27
     91.2700	  534.00	  543.65	-1757.90	  403.15
     91.3700	  557.00	  544.71	-1735.96	  403.03
     91.4700	  559.00	  546.27	-1735.52	  402.91
     91.5700	  544.00	  548.45	-1752.70	  402.78
     91.6700	  538.00	  551.41	-1761.66	  402.66
     91.7700	  536.00	  555.34	-1767.59	  402.53
     91.8700	  527.00	  560.43	-1781.68	  402.40
     91.9700	  530.00	  566.66	-1784.91	  402.27
     92.0700	  568.00	  574.65	-1754.90	  402.14
     92.1700	  597.00	  584.32	-1735.57	  402.01
     92.2700	  616.00	  595.70	-1727.95	  401.87
     92.3700	  585.00	  608.75	-1772.00	  401.74
     92.4700	  608.00	  623.29	-1763.54	  401.60
     92.5700	  662.00	  639.02	-1725.27	  401.46
     92.6700	  675.00	  655.51	-1728.76	  401.32
     92.7700	  669.00	  672.20	-1751.45	  401.18
     92.8700	  721.00	  688.43	-1715.68	  401.04
     92.9700	  682.00	  703.53	-1769.78	  400.90
     93.0700	  711.00	  716.95	-1754.20	  400.75
     93.1700	  789.00	  728.41	-1687.66	  400.60
     93.2700	  861.00	  737.99	-1625.24	  400.45
     93.3700	  756.00	  746.13	-1738.38	  400.31
     93.4700	  804.00	  753.43	-1697.68	  400.15
     93.5700	  852.00	  760.57	-1656.82	  400.00
     93.6700	  865.00	  768.14	-1651.39	  399.85
     93.7700	  823.00	  776.66	-1701.91	  399.69
     93.8700	  895.00	  786.57	-1639.82	  399.54
     93.9700	  821.00	  798.29	-1725.54	  399.38
     94.0700	  826.00	  812.13	-1734.38	  399.22
     94.1700	  862.00	  828.18	-1714.43	  399.06
     94.2700	  814.00	  846.15	-1780.40	  398.90
     94.3700	  886.00	  865.32	-1727.57	  398.73
     94.4700	  895.00	  884.52	-1737.77	  398.57
     94.5700	  902.00	  902.17	-1748.42	  398.40
     94.6700	  935.00	  916.41	-1729.66	  398.24
     94.7700	  950.00	  925.30	-1723.55	  398.07
     94.8700	  908.00	  927.25	-1767.50	  397.90
     94.9700	  956.00	  921.38	-1713.63	  397.73
     95.0700	  918.00	  907.78	-1738.03	  397.55
     95.1700	  908.00	  887.49	-1727.74	  397.38
     95.2700	  867.00	  862.22	-1743.47	  397.21
     95.3700	  801.00	  833.99	-1781.24	  397.03
     95.4700	  816.00	  804.91	-1737.16	  396.85
     95.5700	  777.00	  776.96	-1748.21	  396.67
     95.6700	  707.00	  751.99	-1793.24	  396.49
     95.7700	  687.00	  731.68	-1792.93	  396.31
     95.8700	  699.00	  717.49	-1766.74	  396.13
     95.9700	  716.00	  710.75	-1743.00	  395.95
     96.0700	  675.00	  712.58	-1785.83	  395.76
     96.1700	  658.00	  723.90	-1814.15	  395.58
     96.2700	  748.00	  745.45	-1745.70	  395.39
     96.3700	  727.00	  777.69	-1798.94	  395.20
     96.4700	  802.00	  820.69	-1766.94	  395.01
     96.5700	  885.00	  874.11	-1737.36	  394.82
     96.6700	  956.00	  937.05	-1729.30	  394.63
     96.7700	  955.00	 1007.95	-1801.20	  394.44
     96.8700	 1072.00	 1084.53	-1760.78	  394.24
     96.9700	 1096.00	 1163.80	-1816.05	  394.05
     97.0700	 1231.00	 1242.07	-1759.32	  393.85
     97.1700	 1316.00	 1315.09	-1747.34	  393.65
     97.2700	 1374.00	 1378.19	-1752.44	  393.46
     97.3700	 1398.00	 1426.76	-1777.01	  393.26
     97.4700	 1452.00	 1456.83	-1753.08	  393.06
     97.5700	 1490.00	 1465.89	-1724.14	  392.86
     97.6700	 1386.00	 1453.43	-1815.68	  392.65
     97.7700	 1377.00	 1421.06	-1792.31	  392.45
     97.8700	 1421.00	 1372.08	-1699.33	  392.24
     97.9700	 1319.00	 1310.73	-1739.98	  392.04
     98.0700	 1216.00	 1241.52	-1773.77	  391.83
     98.1700	 1187.00	 1168.89	-1730.14	  391.63
     98.2700	 1055.00	 1096.84	-1790.09	  391.42
     98.3700	 1099.00	 1028.82	-1678.07	  391.21
     98.4700	  933.00	  967.73	-1782.98	  391.00
     98.5700	  904.00	  915.84	-1760.09	  390.79
     98.6700	  870.00	  874.89	-1753.14	  390.57
     98.7700	  810.00	  846.20	-1784.45	  390.36
     98.8700	  827.00	  830.67	-1751.92	  390.15
     98.9700	  761.00	  828.93	-1816.18	  389.93
     99.0700	  830.00	  841.33	-1759.58	  389.72
     99.1700	  850.00	  868.03	-1766.28	  389.50
     99.2700	  889.00	  909.01	-1768.26	  389.28
     99.3700	  935.00	  964.03	-1777.28	  389.07
     99.4700	  976.00	 1032.51	-1804.76	  388.85
     99.5700	 1129.00	 1113.50	-1732.75	  388.63
     99.6700	 1163.00	 1205.58	-1790.83	  388.41
     99.7700	 1323.00	 1306.75	-1732.00	  388.18
     99.8700	 1379.00	 1414.36	-1783.61	  387.96
     99.9700	 1501.00	 1525.02	-1772.27	  387.74
    100.0700	 1591.00	 1634.70	-1791.95	  387.52
    100.1700	 1781.00	 1738.98	-1706.23	  387.29
    100.2700	 1791.00	 1833.41	-1790.66	  387.07
    100.3700	 1941.00	 1913.98	-1721.23	  386.84
    100.4700	 2002.00	 1977.57	-1723.82	  386.62
    100.5700	 2047.00	 2022.02	-1723.27	  386.39
    100.6700	 2150.00	 2046.02	-1644.27	  386.16
    100.7700	 2006.00	 2048.84	-1791.09	  385.93
    100.8700	 2119.00	 2030.27	-1659.52	  385.70
    100.9700	 2053.00	 1990.99	-1686.24	  385.47
    101.0700	 2005.00	 1932.82	-1676.07	  385.24
    101.1700	 1862.00	 1858.99	-1745.24	  385.01
    101.2700	 1822.00	 1773.84	-1700.09	  384.78
    101.3700	 1615.00	 1682.35	-1815.60	  384.55
    101.4700	 1619.00	 1589.52	-1718.77	  384.32
    101.5700	 1508.00	 1499.82	-1740.07	  384.09
    101.6700	 1498.00	 1416.87	-1667.12	  383.85
    101.7700	 1350.00	 1343.26	-1741.51	  383.62
    101.8700	 1272.00	 1280.53	-1756.78	  383.39
    101.9700	 1252.00	 1229.16	-1725.41	  383.15
    102.0700	 1175.00	 1188.66	-1761.91	  382.92
    102.1700	 1125.00	 1157.66	-1780.91	  382.68
    102.2700	 1154.00	 1134.08	-1728.33	  382.45
    102.3700	 1084.00	 1115.37	-1779.62	  382.21
    102.4700	 1125.00	 1098.77	-1722.02	  381.97
    102.5700	 1100.00	 1081.65	-1729.90	  381.74
    102.6700	 1065.00	 1061.84	-1745.09	  381.50
    102.7700	 1014.00	 1037.95	-1772.20	  381.26
    102.8700	 1001.00	 1009.44	-1756.69	  381.03
    102.9700	  889.00	  976.55	-1835.80	  380.79
    103.0700	  864.00	  940.12	-1824.37	  380.55
    103.1700	  902.00	  901.25	-1747.50	  380.31
    103.2700	  879.00	  861.23	-1730.48	  380.07
    103.3700	  780.00	  821.29	-1789.54	  379.84
    103.4700	  777.00	  782.57	-1753.82	  379.60
    103.5700	  740.00	  746.01	-1754.26	  379.36
    103.6700	  736.00	  712.36	-1724.61	  379.12
    103.7700	  638.00	  682.15	-1792.40	  378.88
    103.8700	  665.00	  655.66	-1738.91	  378.64
    103.9700	  646.00	  632.99	-1735.24	  378.40
    104.0700	  620.00	  614.04	-1742.29	  378.16
    104.1700	  607.00	  598.59	-1739.84	  377.92
    104.2700	  580.00	  586.32	-1754.57	  377.69
    104.3700	  548.00	  576.85	-1777.10	  377.45
    104.4700	  582.00	  569.79	-1736.04	  377.21
    104.5700	  539.00	  564.77	-1774.02	  376.97
    104.6700	  574.00	  561.41	-1735.66	  376.73
    104.7700	  563.00	  559.41	-1744.66	  376.49
    104.8700	  535.00	  558.48	-1771.73	  376.25
    104.9700	  585.00	  558.42	-1721.67	  376.01
    105.0700	  562.00	  559.03	-1745.28	  375.78
    105.1700	  553.00	  560.17	-1755.42	  375.54
    105.2700	  548.00	  561.74	-1761.99	  375.30
    105.3700	  536.00	  563.71	-1775.96	  375.06
    105.4700	  586.00	  566.04	-1728.29	  374.83
    105.5700	  565.00	  568.77	-1752.02	  374.59
    105.6700	  547.00	  571.94	-1773.19	  374.35
    105.7700	  575.00	  575.66	-1748.91	  374.12
    105.8700	  562.00	  580.04	-1766.29	  373.88
    105.9700	  582.00	  585.18	-1751.43	  373.64
    106.0700	  580.00	  591.14	-1759.39	  373.41
    106.1700	  577.00	  597.99	-1769.24	  373.17
    106.2700	  600.00	  605.68	-1753.93	  372.94
    106.3700	  610.00	  614.15	-1752.40	  372.71
    106.4700	  564.00	  623.25	-1807.50	  372.47
    106.5700	  629.00	  632.75	-1752.00	  372.24
    106.6700	  619.00	  642.39	-1771.64	  372.01
    106.7700	  645.00	  651.84	-1755.09	  371.78
    106.8700	  627.00	  660.73	-1781.98	  371.55
    106.9700	  669.00	  668.68	-1747.93	  371.32
    107.0700	  652.00	  675.34	-1771.59	  371.09
    107.1700	  657.00	  680.45	-1771.70	  370.86
    107.2700	  684.00	  683.83	-1748.08	  370.63
    107.3700	  661.00	  685.51	-1772.76	  370.40
    107.4700	  701.00	  685.66	-1732.91	  370.18
    107.5700	  678.00	  684.59	-1754.84	  369.95
    107.6700	  685.00	  682.72	-1745.97	  369.72
    107.7700	  643.00	  680.47	-1785.72	  369.50
    107.8700	  665.00	  678.24	-1761.49	  369.28
    107.9700	  699.00	  676.38	-1725.63	  369.05
    108.0700	  664.00	  675.12	-1759.37	  368.83
    108.1700	  681.00	  674.60	-1741.85	  368.61
    108.2700	  681.00	  674.84	-1742.09	  368.39
    108.3700	  689.00	  675.75	-1735.00	  368.17
    108.4700	  660.00	  677.12	-1765.37	  367.96
    108.5700	  656.00	  678.66	-1770.91	  367.74
    108.6700	  655.00	  680.00	-1773.25	  367.52
    108.7700	  725.00	  680.73	-1703.98	  367.31
    108.8700	  707.00	  680.47	-1721.72	  367.10
    108.9700	  704.00	  678.88	-1723.13	  366.88
    109.0700	  713.00	  675.74	-1710.99	  366.67
    109.1700	  669.00	  670.97	-1750.22	  366.46
    109.2700	  670.00	  664.63	-1742.88	  366.26
    109.3700	  691.00	  656.92	-1714.17	  366.05
    109.4700	  655.00	  648.10	-1741.35	  365.84
    109.5700	  605.00	  638.49	-1781.74	  365.64
    109.6700	  601.00	  628.44	-1775.69	  365.44
    109.7700	  644.00	  618.27	-1722.52	  365.23
    109.8700	  529.00	  608.27	-1827.52	  365.03
    109.9700	  598.00	  598.71	-1748.96	  364.84
    110.0700	  599.00	  589.79	-1739.04	  364.64
    110.1700	  587.00	  581.69	-1742.94	  364.44
    110.2700	  577.00	  574.52	-1745.77	  364.25
    110.3700	  558.00	  568.32	-1758.57	  364.06
    110.4700	  552.00	  563.13	-1759.38	  363.87
    110.5700	  555.00	  558.93	-1752.18	  363.68
    110.6700	  554.00	  555.65	-1749.90	  363.49
    110.7700	  589.00	  553.24	-1712.49	  363.30
    110.8700	  592.00	  551.61	-1707.86	  363.12
    110.9700	  534.00	  550.67	-1764.92	  362.94
    111.0700	  515.00	  550.32	-1783.57	  362.76
    111.1700	  610.00	  550.49	-1688.74	  362.58
    111.2700	  531.00	  551.10	-1768.35	  362.40
    111.3700	  578.00	  552.07	-1722.32	  362.23
    111.4700	  570.00	  553.36	-1731.61	  362.05
    111.5700	  546.00	  554.91	-1757.16	  361.88
    111.6700	  567.00	  556.70	-1737.95	  361.72
    111.7700	  542.00	  558.69	-1764.94	  361.55
    111.8700	  511.00	  560.88	-1798.13	  361.38
    111.9700	  544.00	  563.26	-1767.51	  361.22
    112.0700	  541.00	  565.82	-1773.07	  361.06
    112.1700	  569.00	  568.59	-1747.84	  360.90
    112.2700	  542.00	  571.59	-1777.84	  360.75
    112.3700	  583.00	  574.84	-1740.09	  360.59
    112.4700	  618.00	  578.39	-1708.64	  360.44
    112.5700	  592.00	  582.29	-1738.54	  360.29
    112.6700	  602.00	  586.61	-1732.86	  360.15
    112.7700	  622.00	  591.43	-1717.68	  360.00
    112.8700	  599.00	  596.87	-1746.12	  359.86
    112.9700	  656.00	  603.08	-1695.33	  359.72
    113.0700	  699.00	  610.24	-1659.49	  359.59
    113.1700	  647.00	  618.60	-1719.85	  359.45
    113.2700	  703.00	  628.48	-1673.73	  359.32
    113.3700	  739.00	  640.29	-1649.54	  359.19
    113.4700	  746.00	  654.55	-1656.80	  359.06
    113.5700	  767.00	  671.91	-1653.16	  358.94
    113.6700	  802.00	  693.15	-1639.40	  358.82
    113.7700	  898.00	  719.27	-1569.52	  358.70
    113.8700	  884.00	  751.43	-1615.68	  358.59
    113.9700	  933.00	  791.02	-1606.27	  358.47
    114.0700	  988.00	  839.65	-1599.90	  358.37
    114.1700	 1053.00	  899.13	-1594.38	  358.26
    114.2700	 1079.00	  971.51	-1640.76	  358.16
    114.3700	 1233.00	 1059.00	-1574.25	  358.05
    114.4700	 1310.00	 1163.94	-1602.19	  357.96
    114.5700	 1471.00	 1288.69	-1565.94	  357.86
    114.6700	 1616.00	 1435.57	-1567.82	  357.77
    114.7700	 1663.00	 1606.76	-1692.01	  357.68
    114.8700	 1888.00	 1804.14	-1664.39	  357.60
    114.9700	 2078.00	 2029.10	-1699.35	  357.52
    115.0700	 2373.00	 2282.40	-1657.65	  357.44
    115.1700	 2669.00	 2564.02	-1643.27	  357.36
    115.2700	 2802.00	 2873.04	-1819.29	  357.29
    115.3700	 3173.00	 3207.54	-1782.79	  357.22
    115.4700	 3434.00	 3564.31	-1878.56	  357.16
    115.5700	 3741.00	 3938.98	-1946.23	  357.10
    115.6700	 4297.00	 4325.84	-1777.09	  357.04
    115.7700	 4587.00	 4718.09	-1879.34	  356.99
    115.8700	 4871.00	 5107.72	-1984.97	  356.93
    115.9700	 5277.00	 5485.51	-1956.76	  356.89
    116.0700	 5529.00	 5841.41	-2060.66	  356.84
    116.1700	 6139.00	 6164.69	-1773.94	  356.81
    116.2700	 6298.00	 6444.52	-1894.77	  356.77
    116.3700	 6510.00	 6670.47	-1908.72	  356.74
    116.4700	 6829.00	 6833.23	-1752.48	  356.71
    116.5700	 6907.00	 6925.72	-1766.97	  356.69
    116.6700	 6964.00	 6943.77	-1728.02	  356.67
    116.7700	 6993.00	 6886.77	-1642.02	  356.65
    116.8700	 6802.00	 6757.66	-1703.91	  356.64
    116.9700	 6813.00	 6562.58	-1497.83	  356.63
    117.0700	 6399.00	 6310.12	-1659.37	  356.63
    117.1700	 6077.00	 6010.42	-1681.67	  356.63
    117.2700	 5669.00	 5674.19	-1753.44	  356.63
    117.3700	 5156.00	 5312.10	-1904.35	  356.64
    117.4700	 4963.00	 4934.40	-1719.65	  356.65
    117.5700	 4580.00	 4550.46	-1718.71	  356.67
    117.6700	 4407.00	 4168.64	-1509.89	  356.69
    117.7700	 3965.00	 3796.02	-1579.27	  356.72
    117.8700	 3566.00	 3438.45	-1620.70	  356.75
    117.9700	 3113.00	 3100.63	-1735.88	  356.79
    118.0700	 2870.00	 2785.98	-1664.23	  356.83
    118.1700	 2533.00	 2496.83	-1712.08	  356.87
    118.2700	 2211.00	 2234.34	-1771.59	  356.92
    118.3700	 1951.00	 1998.80	-1796.05	  356.98
    118.4700	 1760.00	 1789.80	-1778.05	  357.03
    118.5700	 1514.00	 1606.24	-1840.49	  357.10
    118.6700	 1367.00	 1446.60	-1827.85	  357.17
    118.7700	 1242.00	 1308.97	-1815.22	  357.24
    118.8700	 1091.00	 1191.25	-1848.50	  357.32
    118.9700	 1014.00	 1091.28	-1825.53	  357.40
    119.0700	  926.00	 1006.92	-1829.17	  357.49
    119.1700	  872.00	  936.09	-1812.34	  357.59
    119.2700	  837.00	  876.85	-1788.10	  357.69
    119.3700	  730.00	  827.44	-1845.69	  357.79
    119.4700	  709.00	  786.31	-1825.56	  357.90
    119.5700	  725.00	  752.10	-1775.35	  358.01
    119.6700	  647.00	  723.63	-1824.88	  358.14
    119.7700	  658.00	  699.93	-1790.18	  358.26
    119.8700	  681.00	  680.16	-1747.41	  358.39
    119.9700	  637.00	  663.65	-1774.90	  358.53
    120.0700	  591.00	  649.85	-1807.10	  358.67
    120.1700	  584.00	  638.30	-1802.55	  358.82
    120.2700	  559.00	  628.65	-1817.90	  358.97
    120.3700	  556.00	  620.60	-1812.85	  359.13
    120.4700	  605.00	  613.93	-1757.18	  359.30
    120.5700	  590.00	  608.45	-1766.70	  359.47
    120.6700	  578.00	  604.02	-1774.27	  359.65
    120.7700	  548.00	  600.52	-1800.77	  359.83
    120.8700	  592.00	  597.87	-1754.12	  360.02
    120.9700	  562.00	  596.00	-1782.25	  360.21
    121.0700	  553.00	  594.84	-1790.09	  360.42
    121.1700	  572.00	  594.35	-1770.60	  360.62
    121.2700	  589.00	  594.48	-1753.73	  360.84
    121.3700	  631.00	  595.17	-1712.42	  361.06
    121.4700	  611.00	  596.40	-1733.65	  361.28
    121.5700	  578.00	  598.09	-1768.34	  361.51
    121.6700	  581.00	  600.20	-1767.45	  361.75
    121.7700	  592.00	  602.66	-1758.91	  362.00
    121.8700	  585.00	  605.39	-1768.64	  362.25
    121.9700	  569.00	  608.34	-1787.59	  362.51
    122.0700	  639.00	  611.40	-1720.65	  362.78
    122.1700	  647.00	  614.49	-1715.74	  363.05
    122.2700	  625.00	  617.51	-1740.76	  363.33
    122.3700	  600.00	  620.36	-1768.61	  363.61
    122.4700	  625.00	  622.93	-1746.18	  363.90
    122.5700	  696.00	  625.14	-1677.39	  364.20
    122.6700	  609.00	  626.89	-1766.14	  364.51
    122.7700	  651.00	  628.13	-1725.38	  364.82
    122.8700	  627.00	  628.80	-1750.05	  365.14
    122.9700	  641.00	  628.89	-1736.14	  365.47
    123.0700	  645.00	  628.39	-1731.64	  365.81
    123.1700	  639.00	  627.33	-1736.58	  366.15
    123.2700	  649.00	  625.76	-1725.01	  366.50
    123.3700	  608.00	  623.74	-1763.99	  366.86
    123.4700	  662.00	  621.33	-1707.58	  367.22
    123.5700	  647.00	  618.61	-1719.86	  367.59
    123.6700	  610.00	  615.65	-1753.90	  367.97
    123.7700	  619.00	  612.53	-1741.78	  368.36
    123.8700	  651.00	  609.29	-1706.54	  368.76
    123.9700	  623.00	  606.02	-1731.27	  369.16
    124.0700	  668.00	  602.76	-1683.01	  369.57
    124.1700	  582.00	  599.56	-1765.81	  369.99
    124.2700	  631.00	  596.47	-1713.72	  370.41
    124.3700	  629.00	  593.50	-1712.75	  370.85
    124.4700	  641.00	  590.69	-1697.94	  371.29
    124.5700	  635.00	  588.05	-1701.30	  371.74
    124.6700	  542.00	  585.61	-1791.86	  372.20
    124.7700	  552.00	  583.36	-1779.61	  372.67
    124.8700	  565.00	  581.33	-1764.58	  373.14
    124.9700	  583.00	  492.50	-1657.75	  373.63
    125.0700	  607.00	  493.00	-1748.25	  374.12
    125.1700	  573.00	  493.50	-1748.25	  374.62
    125.2700	  560.00	  494.01	-1748.25	  375.13
    125.3700	  529.00	  494.52	-1748.25	  375.65
    125.4700	  563.00	  495.05	-1748.25	  376.18
    125.5700	  580.00	  495.59	-1748.25	  376.71
    125.6700	  581.00	  496.13	-1748.25	  377.26
    125.7700	  548.00	  496.69	-1748.25	  377.81
    125.8700	  592.00	  497.25	-1748.25	  378.37
    125.9700	  536.00	  497.82	-1748.25	  378.94
    126.0700	  560.00	  498.40	-1748.25	  379.52
    126.1700	  630.00	  498.99	-1748.25	  380.11
    126.2700	  556.00	  499.59	-1748.25	  380.71
    126.3700	  587.00	  500.20	-1748.25	  381.32
    126.4700	  593.00	  500.81	-1748.25	  381.94
    126.5700	  617.00	  501.44	-1748.25	  382.56
    126.6700	  612.00	  502.08	-1748.25	  383.20
    126.7700	  567.00	  502.72	-1748.25	  383.85
    126.8700	  625.00	  503.38	-1748.25	  384.50
    126.9700	  609.00	  504.04	-1748.25	  385.17
    127.0700	  665.00	  504.72	-1748.25	  385.84
    127.1700	  663.00	  505.40	-1748.25	  386.53
    127.2700	  678.00	  506.10	-1748.25	  387.22
    127.3700	  623.00	  506.80	-1748.25	  387.93
    127.4700	  676.00	  507.52	-1748.25	  388.64
    127.5700	  711.00	  508.24	-1748.25	  389.37
    127.6700	  690.00	  508.98	-1748.25	  390.10
    127.7700	  690.00	  509.72	-1748.25	  390.85
    127.8700	  711.00	  510.48	-1748.25	  391.60
    127.9700	  730.00	  511.24	-1748.25	  392.37
    128.0700	  729.00	  512.02	-1748.25	  393.15
    128.1700	  781.00	  512.81	-1748.25	  393.93
    128.2700	  836.00	  513.61	-1748.25	  394.73
    128.3700	  786.00	  514.41	-1748.25	  395.54
    128.4700	  837.00	  515.23	-1748.25	  396.36
    128.5700	    0.00	  516.06	-1748.25	  397.19
    128.6700	    0.00	  516.90	-1748.25	  398.03
     12.3080	        	        	        	        	       0	(  0  0  2)	  0  1
     24.8898	        	        	        	        	       0	(  0  0  4)	  0  1
     28.3317	        	        	        	        	       0	(  1  0  0)	  0  1
     29.0288	        	        	        	        	       0	(  1  0  1)	  0  1
     31.0348	        	        	        	        	       0	(  1  0  2)	  0  1
     34.1427	        	        	        	        	       0	(  1  0  3)	  0  1
     37.7874	        	        	        	        	       0	(  0  0  6)	  0  1
     38.1192	        	        	        	        	       0	(  1  0  4)	  0  1
     42.7687	        	        	        	        	       0	(  1  0  5)	  0  1
     47.9519	        	        	        	        	       0	(  1  0  6)	  0  1
     50.2663	        	        	        	        	       0	(  1  1  0)	  0  1
     51.2071	        	        	        	        	       0	(  0  0  8)	  0  1
     51.9891	        	        	        	        	       0	(  1  1  2)	  0  1
     53.5815	        	        	        	        	       0	(  1  0  7)	  0  1
     56.9362	        	        	        	        	       0	(  1  1  4)	  0  1
     58.7623	        	        	        	        	       0	(  2  0  0)	  0  1
     59.1539	        	        	        	        	       0	(  2  0  1)	  0  1
     59.6108	        	        	        	        	       0	(  1  0  8)	  0  1
     60.3190	        	        	        	        	       0	(  2  0  2)	  0  1
     62.2320	        	        	        	        	       0	(  2  0  3)	  0  1
     64.6295	        	        	        	        	       0	(  1  1  6)	  0  1
     64.8556	        	        	        	        	       0	(  2  0  4)	  0  1
     65.4336	        	        	        	        	       0	(  0  0 10)	  0  1
     66.0259	        	        	        	        	       0	(  1  0  9)	  0  1
     68.1492	        	        	        	        	       0	(  2  0  5)	  0  1
     72.0759	        	        	        	        	       0	(  2  0  6)	  0  1
     72.8406	        	        	        	        	       0	(  1  0 10)	  0  1
     74.6653	        	        	        	        	       0	(  1  1  8)	  0  1
     76.6091	        	        	        	        	       0	(  2  0  7)	  0  1
     80.0967	        	        	        	        	       0	(  1  0 11)	  0  1
     80.9106	        	        	        	        	       0	(  0  0 12)	  0  1
     81.0005	        	        	        	        	       0	(  2  1  0)	  0  1
     81.3403	        	        	        	        	       0	(  2  1  1)	  0  1
     81.7383	        	        	        	        	       0	(  2  0  8)	  0  1
     82.3579	        	        	        	        	       0	(  2  1  2)	  0  1
     84.0489	        	        	        	        	       0	(  2  1  3)	  0  1
     86.4080	        	        	        	        	       0	(  2  1  4)	  0  1
     86.9338	        	        	        	        	       0	(  1  1 10)	  0  1
     87.4749	        	        	        	        	       0	(  2  0  9)	  0  1
     87.8690	        	        	        	        	       0	(  1  0 12)	  0  1
     89.4330	        	        	        	        	       0	(  2  1  5)	  0  1
     93.1295	        	        	        	        	       0	(  2  1  6)	  0  1
     93.8606	        	        	        	        	       0	(  2  0 10)	  0  1
     94.8869	        	        	        	        	       0	(  3  0  0)	  0  1
     95.2242	        	        	        	        	       0	(  3  0  1)	  0  1
     96.2371	        	        	        	        	       0	(  3  0  2)	  0  1
     96.2798	        	        	        	        	       0	(  1  0 13)	  0  1
     97.5169	        	        	        	        	       0	(  2  1  7)	  0  1
     97.9300	        	        	        	        	       0	(  3  0  3)	  0  1
     98.4449	        	        	        	        	       0	(  0  0 14)	  0  1
    100.3123	        	        	        	        	       0	(  3  0  4)	  0  1
    100.9803	        	        	        	        	       0	(  2  0 11)	  0  1
    101.7999	        	        	        	        	       0	(  1  1 12)	  0  1
    102.6377	        	        	        	        	       0	(  2  1  8)	  0  1
    103.4029	        	        	        	        	       0	(  3  0  5)	  0  1
    105.5293	        	        	        	        	       0	(  1  0 14)	  0  1
    107.2368	        	        	        	        	       0	(  3  0  6)	  0  1
    108.5726	        	        	        	        	       0	(  2  1  9)	  0  1
    108.9888	        	        	        	        	       0	(  2  0 12)	  0  1
    111.8754	        	        	        	        	       0	(  3  0  7)	  0  1
    115.4667	        	        	        	        	       0	(  2  1 10)	  0  1
    115.9685	        	        	        	        	       0	(  1  0 15)	  0  1
    116.6066	        	        	        	        	       0	(  2  2  0)	  0  1
    117.4266	        	        	        	        	       0	(  3  0  8)	  0  1
    118.1212	        	        	        	        	       0	(  2  2  2)	  0  1
    118.1693	        	        	        	        	       0	(  2  0 13)	  0  1
    119.9247	        	        	        	        	       0	(  0  0 16)	  0  1
    120.6365	        	        	        	        	       0	(  1  1 14)	  0  1
    122.8046	        	        	        	        	       0	(  2  2  4)	  0  1
    123.5900	        	        	        	        	       0	(  2  1 11)	  0  1
    124.0834	        	        	        	        	       0	(  3  0  9)	  0  1
    124.6690	        	        	        	        	       0	(  3  1  0)	  0  1
    125.0791	        	        	        	        	       0	(  3  1  1)	  0  1
    126.3218	        	        	        	        	       0	(  3  1  2)	  0  1
    128.3056	        	        	        	        	       0	(  1  0 16)	  0  1
    128.4390	        	        	        	        	       0	(  3  1  3)	  0  1
    129.0936	        	        	        	        	       0	(  2  0 14)	  0  1
    131.2399	        	        	        	        	       0	(  2  2  6)	  0  1
    131.5131	        	        	        	        	       0	(  3  1  4)	  0  1
    132.2195	        	        	        	        	       0	(  3  0 10)	  0  1
    133.4966	        	        	        	        	       0	(  2  1 12)	  0  1
    135.6974	        	        	        	        	       0	(  3  1  5)	  0  1
    141.2885	        	        	        	        	       0	(  3  1  6)	  0  1
    142.6904	        	        	        	        	       0	(  3  0 11)	  0  1
    143.2238	        	        	        	        	       0	(  2  0 15)	  0  1
    144.4642	        	        	        	        	       0	(  1  0 17)	  0  1
    145.4628	        	        	        	        	       0	(  2  2  8)	  0  1
    146.6418	        	        	        	        	       0	(  2  1 13)	  0  1
    148.9539	        	        	        	        	       0	(  3  1  7)	  0  1
    149.5525	        	        	        	        	       0	(  1  1 16)	  0  1
    153.9517	        	        	        	        	       0	(  0  0 18)	  0  1
    158.5483	        	        	        	        	       0	(  3  0 12)	  0  1
    158.7940	        	        	        	        	       0	(  4  0  0)	  0  1
    159.7485	        	        	        	        	       0	(  4  0  1)	  0  1
    160.9259	        	        	        	        	       0	(  3  1  8)	  0  1
    162.9174	        	        	        	        	       0	(  4  0  2)	  0  1
    169.6151	        	        	        	        	       0	(  2  0 16)	  0  1
    170.2185	        	        	        	        	       0	(  4  0  3)	  0  1
    173.9865	        	        	        	        	       0	(  2  1 14)	  0  1
