MSG Master    CELL:    5.91511   5.91511  23.25675   90.0000   90.0000  120.0000   SPGR: P 63/m m c             TEMP:   1003.15
  1   1280     2.52000     0.00000    -0.13124     0.00000     0.00000    0
    99     0     2
       0.00000      10.00000
     125.00000     130.00000
 2Theta	Yobs	Ycal	Yobs-Ycal	Backg	Posr	(hkl)	K
      0.7700	    0.00	  508.84	-1715.83	  394.82
      0.8700	    0.00	  509.99	-1715.83	  395.97
      0.9700	   47.00	  511.13	-1715.83	  397.11
      1.0700	   48.00	  512.26	-1715.83	  398.24
      1.1700	   44.00	  513.37	-1715.83	  399.35
      1.2700	   37.00	  514.47	-1715.83	  400.44
      1.3700	   51.00	  515.55	-1715.83	  401.53
      1.4700	   89.00	  516.62	-1715.83	  402.60
      1.5700	  295.00	  517.68	-1715.83	  403.65
      1.6700	  492.00	  518.72	-1715.83	  404.69
      1.7700	  549.00	  519.75	-1715.83	  405.72
      1.8700	  675.00	  520.76	-1715.83	  406.73
      1.9700	  718.00	  521.76	-1715.83	  407.74
      2.0700	  724.00	  522.75	-1715.83	  408.72
      2.1700	  773.00	  523.72	-1715.83	  409.70
      2.2700	  756.00	  524.68	-1715.83	  410.66
      2.3700	  692.00	  525.63	-1715.83	  411.60
      2.4700	  714.00	  526.56	-1715.83	  412.54
      2.5700	  723.00	  527.48	-1715.83	  413.46
      2.6700	  678.00	  528.39	-1715.83	  414.37
      2.7700	  620.00	  529.29	-1715.83	  415.26
      2.8700	  643.00	  530.17	-1715.83	  416.14
      2.9700	  606.00	  531.04	-1715.83	  417.01
      3.0700	  635.00	  531.89	-1715.83	  417.87
      3.1700	  587.00	  532.74	-1715.83	  418.71
      3.2700	  642.00	  533.57	-1715.83	  419.55
      3.3700	  751.00	  534.39	-1715.83	  420.37
      3.4700	  808.00	  535.20	-1715.83	  421.17
      3.5700	  866.00	  535.99	-1715.83	  421.97
      3.6700	  912.00	  536.78	-1715.83	  422.75
      3.7700	 1013.00	  537.55	-1715.83	  423.52
      3.8700	 1040.00	  538.31	-1715.83	  424.28
      3.9700	 1072.00	  539.06	-1715.83	  425.03
      4.0700	 1121.00	  539.79	-1715.83	  425.77
      4.1700	 1139.00	  540.52	-1715.83	  426.49
      4.2700	 1163.00	  541.23	-1715.83	  427.20
      4.3700	 1180.00	  541.93	-1715.83	  427.90
      4.4700	 1138.00	  542.62	-1715.83	  428.59
      4.5700	 1102.00	  543.30	-1715.83	  429.27
      4.6700	 1063.00	  543.96	-1715.83	  429.94
      4.7700	 1060.00	  544.62	-1715.83	  430.59
      4.8700	 1014.00	  545.26	-1715.83	  431.24
      4.9700	 1021.00	  545.90	-1715.83	  431.87
      5.0700	 1028.00	  546.52	-1715.83	  432.50
      5.1700	  950.00	  547.13	-1715.83	  433.11
      5.2700	  933.00	  547.73	-1715.83	  433.71
      5.3700	  964.00	  548.32	-1715.83	  434.30
      5.4700	  874.00	  548.90	-1715.83	  434.88
      5.5700	  839.00	  549.47	-1715.83	  435.45
      5.6700	  850.00	  550.03	-1715.83	  436.01
      5.7700	  857.00	  550.58	-1715.83	  436.56
      5.8700	  873.00	  551.12	-1715.83	  437.09
      5.9700	  764.00	  551.65	-1715.83	  437.62
      6.0700	  868.00	  552.16	-1715.83	  438.14
      6.1700	  829.00	  552.67	-1715.83	  438.65
      6.2700	  771.00	  553.17	-1715.83	  439.14
      6.3700	  785.00	  553.66	-1715.83	  439.63
      6.4700	  814.00	  554.13	-1715.83	  440.11
      6.5700	  751.00	  554.60	-1715.83	  440.58
      6.6700	  753.00	  555.06	-1715.83	  441.04
      6.7700	  675.00	  555.51	-1715.83	  441.48
      6.8700	  753.00	  555.95	-1715.83	  441.92
      6.9700	  719.00	  556.38	-1715.83	  442.35
      7.0700	  690.00	  556.80	-1715.83	  442.77
      7.1700	  680.00	  557.21	-1715.83	  443.18
      7.2700	  678.00	  557.61	-1715.83	  443.59
      7.3700	  645.00	  558.00	-1715.83	  443.98
      7.4700	  660.00	  558.39	-1715.83	  444.36
      7.5700	  679.00	  558.76	-1715.83	  444.74
      7.6700	  634.00	  559.13	-1715.83	  445.10
      7.7700	  633.00	  559.48	-1715.83	  445.46
      7.8700	  648.00	  559.83	-1715.83	  445.80
      7.9700	  652.00	  560.17	-1715.83	  446.14
      8.0700	  590.00	  560.50	-1715.83	  446.47
      8.1700	  615.00	  560.82	-1715.83	  446.80
      8.2700	  625.00	  561.13	-1715.83	  447.11
      8.3700	  581.00	  561.44	-1715.83	  447.41
      8.4700	  612.00	  561.73	-1715.83	  447.71
      8.5700	  595.00	  562.02	-1715.83	  448.00
      8.6700	  656.00	  562.30	-1715.83	  448.28
      8.7700	  637.00	  562.57	-1715.83	  448.55
      8.8700	  611.00	  562.84	-1715.83	  448.81
      8.9700	  616.00	  563.09	-1715.83	  449.07
      9.0700	  646.00	  563.34	-1715.83	  449.31
      9.1700	  642.00	  563.58	-1715.83	  449.55
      9.2700	  569.00	  563.81	-1715.83	  449.78
      9.3700	  578.00	  564.03	-1715.83	  450.01
      9.4700	  591.00	  564.25	-1715.83	  450.22
      9.5700	  639.00	  564.46	-1715.83	  450.43
      9.6700	  564.00	  564.66	-1715.83	  450.63
      9.7700	  604.00	  564.85	-1715.83	  450.83
      9.8700	  603.00	  565.04	-1715.83	  451.01
      9.9700	  561.00	  565.21	-1715.83	  451.19
     10.0700	  595.00	  566.62	-1687.46	  451.36
     10.1700	  572.00	  566.92	-1710.75	  451.52
     10.2700	  575.00	  567.24	-1708.08	  451.68
     10.3700	  549.00	  567.61	-1734.44	  451.83
     10.4700	  570.00	  568.05	-1713.88	  451.97
     10.5700	  583.00	  568.62	-1701.45	  452.11
     10.6700	  545.00	  569.41	-1740.25	  452.24
     10.7700	  580.00	  570.53	-1706.36	  452.36
     10.8700	  582.00	  572.04	-1705.87	  452.47
     10.9700	  594.00	  573.94	-1695.77	  452.58
     11.0700	  592.00	  576.23	-1700.06	  452.68
     11.1700	  590.00	  578.90	-1704.73	  452.77
     11.2700	  584.00	  581.99	-1713.83	  452.86
     11.3700	  610.00	  585.59	-1691.43	  452.94
     11.4700	  610.00	  589.84	-1695.67	  453.02
     11.5700	  618.00	  594.95	-1692.78	  453.09
     11.6700	  593.00	  601.28	-1724.11	  453.15
     11.7700	  620.00	  609.38	-1705.21	  453.21
     11.8700	  633.00	  619.84	-1702.67	  453.26
     11.9700	  610.00	  632.63	-1738.46	  453.30
     12.0700	  645.00	  645.83	-1716.66	  453.34
     12.1700	  694.00	  654.44	-1676.27	  453.37
     12.2700	  734.00	  651.20	-1633.03	  453.40
     12.3700	  636.00	  633.88	-1713.72	  453.41
     12.4700	  637.00	  611.84	-1690.67	  453.43
     12.5700	  593.00	  594.20	-1717.03	  453.44
     12.6700	  586.00	  583.15	-1712.99	  453.44
     12.7700	  562.00	  577.21	-1731.04	  453.44
     12.8700	  562.00	  574.18	-1728.02	  453.43
     12.9700	  550.00	  572.53	-1738.36	  453.41
     13.0700	  581.00	  571.50	-1706.33	  453.39
     13.1700	  600.00	  570.76	-1686.59	  453.37
     13.2700	  572.00	  570.20	-1714.04	  453.34
     13.3700	  511.00	  569.76	-1774.60	  453.30
     13.4700	  597.00	  569.40	-1688.24	  453.26
     13.5700	  561.00	  569.10	-1723.94	  453.21
     13.6700	  604.00	  568.84	-1680.68	  453.16
     13.7700	  561.00	  568.62	-1723.45	  453.10
     13.8700	  556.00	  568.41	-1728.25	  453.04
     13.9700	  565.00	  568.23	-1719.06	  452.98
     14.0700	  538.00	  568.05	-1745.89	  452.90
     14.1700	  542.00	  567.89	-1741.72	  452.83
     14.2700	  579.00	  567.73	-1704.57	  452.74
     14.3700	  518.00	  567.58	-1765.41	  452.66
     14.4700	  566.00	  567.43	-1717.27	  452.57
     14.5700	  554.00	  567.29	-1729.12	  452.47
     14.6700	  571.00	  567.14	-1711.97	  452.37
     14.7700	  593.00	  567.00	-1689.83	  452.27
     14.8700	  559.00	  566.85	-1723.69	  452.16
     14.9700	  508.00	  566.71	-1774.54	  452.04
     15.0700	  552.00	  566.59	-1730.42	  451.92
     15.1700	  575.00	  566.44	-1707.27	  451.80
     15.2700	  640.00	  566.29	-1642.12	  451.67
     15.3700	  529.00	  566.14	-1752.97	  451.54
     15.4700	  566.00	  565.99	-1715.82	  451.41
     15.5700	  535.00	  565.83	-1746.66	  451.27
     15.6700	  570.00	  565.67	-1711.50	  451.12
     15.7700	  553.00	  565.51	-1728.34	  450.98
     15.8700	  553.00	  565.34	-1728.18	  450.82
     15.9700	  540.00	  565.17	-1741.01	  450.67
     16.0700	  548.00	  565.00	-1732.84	  450.51
     16.1700	  561.00	  564.83	-1719.66	  450.35
     16.2700	  539.00	  564.65	-1741.49	  450.18
     16.3700	  553.00	  564.47	-1727.31	  450.01
     16.4700	  550.00	  564.29	-1730.12	  449.83
     16.5700	  555.00	  564.11	-1724.94	  449.65
     16.6700	  579.00	  563.92	-1700.75	  449.47
     16.7700	  588.00	  563.73	-1691.56	  449.29
     16.8700	  587.00	  563.53	-1692.36	  449.10
     16.9700	  503.00	  563.33	-1776.17	  448.90
     17.0700	  583.00	  563.13	-1695.97	  448.71
     17.1700	  552.00	  562.93	-1726.76	  448.51
     17.2700	  539.00	  562.72	-1739.56	  448.30
     17.3700	  584.00	  562.51	-1694.35	  448.10
     17.4700	  564.00	  562.30	-1714.13	  447.89
     17.5700	  546.00	  562.08	-1731.92	  447.68
     17.6700	  595.00	  561.87	-1682.70	  447.46
     17.7700	  595.00	  561.64	-1682.48	  447.24
     17.8700	  606.00	  561.52	-1671.35	  447.02
     17.9700	  557.00	  561.30	-1720.13	  446.79
     18.0700	  564.00	  561.07	-1712.90	  446.57
     18.1700	  547.00	  560.84	-1729.67	  446.34
     18.2700	  520.00	  560.61	-1756.44	  446.10
     18.3700	  592.00	  560.37	-1684.20	  445.87
     18.4700	  511.00	  560.13	-1764.97	  445.63
     18.5700	  550.00	  559.99	-1725.82	  445.38
     18.6700	  569.00	  559.75	-1706.58	  445.14
     18.7700	  543.00	  559.50	-1732.34	  444.89
     18.8700	  534.00	  559.26	-1741.09	  444.64
     18.9700	  558.00	  559.01	-1716.84	  444.39
     19.0700	  580.00	  558.76	-1694.59	  444.13
     19.1700	  562.00	  558.51	-1712.34	  443.87
     19.2700	  551.00	  558.25	-1723.09	  443.61
     19.3700	  557.00	  558.00	-1716.83	  443.35
     19.4700	  549.00	  557.74	-1724.57	  443.09
     19.5700	  526.00	  557.48	-1747.31	  442.82
     19.6700	  550.00	  557.22	-1723.05	  442.55
     19.7700	  600.00	  556.96	-1672.79	  442.28
     19.8700	  544.00	  556.69	-1728.52	  442.00
     19.9700	  526.00	  556.42	-1746.26	  441.73
     20.0700	  537.00	  556.16	-1734.99	  441.45
     20.1700	  577.00	  555.89	-1694.72	  441.17
     20.2700	  544.00	  555.62	-1727.45	  440.88
     20.3700	  535.00	  555.38	-1736.21	  440.60
     20.4700	  557.00	  555.10	-1713.94	  440.31
     20.5700	  522.00	  554.83	-1748.66	  440.02
     20.6700	  528.00	  554.55	-1742.39	  439.73
     20.7700	  525.00	  554.28	-1745.11	  439.44
     20.8700	  559.00	  554.00	-1710.83	  439.15
     20.9700	  529.00	  553.72	-1740.56	  438.85
     21.0700	  508.00	  553.45	-1761.28	  438.55
     21.1700	  548.00	  553.17	-1721.00	  438.25
     21.2700	  583.00	  552.89	-1685.72	  437.95
     21.3700	  539.00	  552.61	-1729.44	  437.65
     21.4700	  548.00	  552.33	-1720.17	  437.34
     21.5700	  531.00	  552.05	-1736.89	  437.04
     21.6700	  542.00	  551.78	-1725.61	  436.73
     21.7700	  589.00	  551.46	-1678.29	  436.42
     21.8700	  532.00	  551.19	-1735.02	  436.11
     21.9700	  531.00	  550.91	-1735.75	  435.80
     22.0700	  507.00	  550.64	-1759.47	  435.48
     22.1700	  553.00	  550.37	-1713.20	  435.17
     22.2700	  545.00	  550.11	-1720.94	  434.85
     22.3700	  548.00	  549.84	-1717.68	  434.53
     22.4700	  571.00	  549.59	-1694.42	  434.21
     22.5700	  552.00	  549.33	-1713.17	  433.89
     22.6700	  560.00	  549.09	-1704.92	  433.57
     22.7700	  567.00	  548.85	-1697.68	  433.25
     22.8700	  506.00	  548.62	-1758.46	  432.93
     22.9700	  571.00	  548.41	-1693.24	  432.60
     23.0700	  553.00	  548.36	-1711.19	  432.28
     23.1700	  551.00	  548.18	-1713.01	  431.95
     23.2700	  543.00	  548.03	-1720.86	  431.62
     23.3700	  514.00	  547.91	-1749.74	  431.29
     23.4700	  566.00	  547.84	-1697.67	  430.96
     23.5700	  564.00	  547.82	-1699.65	  430.63
     23.6700	  548.00	  547.89	-1715.73	  430.30
     23.7700	  535.00	  548.11	-1728.94	  429.97
     23.8700	  530.00	  548.57	-1734.40	  429.64
     23.9700	  550.00	  549.48	-1715.31	  429.30
     24.0700	  546.00	  551.19	-1721.02	  428.97
     24.1700	  547.00	  554.24	-1723.07	  428.63
     24.2700	  573.00	  559.32	-1702.15	  428.30
     24.3700	  634.00	  567.13	-1648.96	  427.96
     24.4700	  550.00	  578.19	-1744.02	  427.62
     24.5700	  563.00	  592.19	-1745.03	  427.29
     24.6700	  605.00	  606.91	-1717.74	  426.95
     24.7700	  655.00	  617.23	-1678.06	  426.61
     24.8700	  646.00	  616.24	-1686.07	  426.27
     24.9700	  622.00	  602.07	-1695.91	  425.93
     25.0700	  604.00	  582.88	-1694.72	  425.59
     25.1700	  563.00	  566.75	-1719.59	  425.25
     25.2700	  579.00	  556.11	-1692.95	  424.91
     25.3700	  545.00	  550.09	-1720.92	  424.57
     25.4700	  554.00	  546.91	-1708.74	  424.22
     25.5700	  555.00	  545.16	-1705.99	  423.88
     25.6700	  573.00	  544.06	-1686.89	  423.54
     25.7700	  538.00	  543.29	-1721.12	  423.20
     25.8700	  574.00	  542.71	-1684.55	  422.85
     25.9700	  575.00	  542.28	-1683.11	  422.51
     26.0700	  576.00	  541.95	-1681.78	  422.17
     26.1700	  585.00	  541.71	-1672.54	  421.82
     26.2700	  533.00	  541.56	-1724.40	  421.48
     26.3700	  557.00	  541.50	-1700.34	  421.14
     26.4700	  598.00	  541.53	-1659.36	  420.79
     26.5700	  568.00	  541.66	-1689.49	  420.45
     26.6700	  542.00	  541.91	-1715.74	  420.11
     26.7700	  529.00	  542.29	-1729.13	  419.76
     26.8700	  521.00	  542.85	-1737.69	  419.42
     26.9700	  551.00	  543.63	-1708.47	  419.08
     27.0700	  567.00	  544.71	-1693.54	  418.73
     27.1700	  551.00	  546.20	-1711.04	  418.39
     27.2700	  583.00	  548.35	-1681.18	  418.04
     27.3700	  591.00	  551.58	-1676.42	  417.70
     27.4700	  510.00	  556.79	-1762.62	  417.36
     27.5700	  545.00	  565.53	-1736.36	  417.02
     27.6700	  592.00	  580.28	-1704.12	  416.67
     27.7700	  587.00	  604.35	-1733.18	  416.33
     27.8700	  649.00	  640.73	-1707.56	  415.99
     27.9700	  640.00	  689.95	-1765.79	  415.65
     28.0700	  753.00	  747.24	-1710.08	  415.31
     28.1700	  879.00	  799.82	-1636.65	  414.97
     28.2700	  875.00	  827.31	-1668.14	  414.62
     28.3700	  834.00	  814.64	-1696.47	  414.28
     28.4700	  805.00	  777.14	-1687.97	  413.94
     28.5700	  784.00	  748.32	-1680.15	  413.61
     28.6700	  729.00	  746.11	-1732.94	  413.27
     28.7700	  751.00	  768.12	-1732.95	  412.93
     28.8700	  760.00	  797.02	-1752.85	  412.59
     28.9700	  856.00	  806.45	-1666.28	  412.25
     29.0700	  787.00	  776.24	-1705.08	  411.92
     29.1700	  750.00	  716.39	-1682.23	  411.58
     29.2700	  612.00	  654.95	-1758.79	  411.24
     29.3700	  592.00	  608.00	-1731.83	  410.91
     29.4700	  618.00	  577.93	-1675.76	  410.57
     29.5700	  575.00	  560.78	-1701.61	  410.24
     29.6700	  544.00	  551.43	-1723.27	  409.91
     29.7700	  630.00	  546.14	-1631.97	  409.57
     29.8700	  618.00	  542.88	-1640.72	  409.24
     29.9700	  582.00	  540.80	-1674.63	  408.91
     30.0700	  569.00	  539.61	-1686.44	  408.58
     30.1700	  538.00	  539.39	-1717.22	  408.25
     30.2700	  601.00	  540.56	-1655.40	  407.92
     30.3700	  560.00	  543.86	-1699.69	  407.59
     30.4700	  537.00	  550.50	-1729.34	  407.27
     30.5700	  523.00	  561.74	-1754.57	  406.94
     30.6700	  567.00	  577.90	-1726.73	  406.61
     30.7700	  584.00	  597.19	-1729.03	  406.29
     30.8700	  611.00	  614.74	-1719.57	  405.97
     30.9700	  609.00	  622.76	-1729.59	  405.64
     31.0700	  626.00	  614.75	-1704.58	  405.32
     31.1700	  604.00	  594.11	-1705.94	  405.00
     31.2700	  612.00	  571.35	-1675.18	  404.68
     31.3700	  560.00	  553.22	-1709.05	  404.36
     31.4700	  526.00	  541.25	-1731.08	  404.04
     31.5700	  541.00	  534.29	-1709.12	  403.72
     31.6700	  572.00	  530.48	-1674.31	  403.41
     31.7700	  557.00	  528.35	-1687.18	  403.09
     31.8700	  525.00	  527.04	-1717.87	  402.78
     31.9700	  544.00	  526.16	-1697.99	  402.47
     32.0700	  538.00	  525.56	-1703.39	  402.15
     32.1700	  565.00	  525.17	-1676.00	  401.84
     32.2700	  552.00	  524.95	-1688.78	  401.53
     32.3700	  548.00	  524.91	-1692.75	  401.22
     32.4700	  538.00	  525.05	-1702.88	  400.92
     32.5700	  541.00	  525.39	-1700.22	  400.61
     32.6700	  512.00	  525.96	-1729.79	  400.31
     32.7700	  567.00	  526.81	-1675.64	  400.00
     32.8700	  549.00	  528.03	-1694.86	  399.70
     32.9700	  537.00	  529.74	-1708.57	  399.40
     33.0700	  561.00	  532.20	-1687.03	  399.10
     33.1700	  530.00	  535.89	-1721.73	  398.80
     33.2700	  482.00	  541.89	-1775.73	  398.50
     33.3700	  597.00	  552.34	-1671.17	  398.20
     33.4700	  570.00	  571.09	-1716.93	  397.91
     33.5700	  589.00	  604.00	-1730.83	  397.62
     33.6700	  617.00	  657.50	-1756.34	  397.32
     33.7700	  711.00	  734.47	-1739.30	  397.03
     33.8700	  850.00	  827.87	-1693.70	  396.74
     33.9700	  998.00	  916.19	-1634.02	  396.45
     34.0700	 1055.00	  964.55	-1625.38	  396.17
     34.1700	 1056.00	  941.65	-1601.48	  395.88
     34.2700	  894.00	  856.14	-1677.97	  395.60
     34.3700	  786.00	  752.56	-1682.39	  395.31
     34.4700	  651.00	  664.89	-1729.72	  395.03
     34.5700	  606.00	  604.15	-1713.99	  394.75
     34.6700	  552.00	  567.60	-1731.44	  394.47
     34.7700	  553.00	  547.45	-1710.28	  394.19
     34.8700	  535.00	  536.42	-1717.25	  393.92
     34.9700	  526.00	  529.94	-1719.77	  393.64
     35.0700	  474.00	  525.63	-1767.46	  393.37
     35.1700	  517.00	  522.46	-1721.29	  393.10
     35.2700	  523.00	  519.98	-1712.81	  392.83
     35.3700	  483.00	  517.98	-1750.82	  392.56
     35.4700	  517.00	  516.33	-1715.16	  392.29
     35.5700	  551.00	  514.94	-1679.77	  392.03
     35.6700	  473.00	  513.75	-1756.59	  391.76
     35.7700	  529.00	  512.72	-1699.56	  391.50
     35.8700	  532.00	  512.28	-1696.12	  391.24
     35.9700	  523.00	  511.49	-1704.32	  390.98
     36.0700	  526.00	  510.78	-1700.61	  390.72
     36.1700	  516.00	  510.15	-1709.98	  390.47
     36.2700	  555.00	  509.57	-1670.40	  390.21
     36.3700	  480.00	  509.05	-1744.88	  389.96
     36.4700	  459.00	  508.58	-1765.41	  389.71
     36.5700	  479.00	  508.15	-1744.99	  389.46
     36.6700	  481.00	  507.78	-1742.61	  389.21
     36.7700	  525.00	  507.46	-1698.29	  388.97
     36.8700	  511.00	  507.23	-1712.06	  388.72
     36.9700	  515.00	  507.11	-1707.95	  388.48
     37.0700	  497.00	  507.22	-1726.06	  388.24
     37.1700	  510.00	  507.73	-1713.56	  388.00
     37.2700	  491.00	  508.85	-1733.69	  387.76
     37.3700	  519.00	  510.77	-1707.60	  387.52
     37.4700	  512.00	  513.45	-1717.28	  387.29
     37.5700	  499.00	  516.41	-1733.24	  387.05
     37.6700	  512.00	  518.70	-1722.53	  386.82
     37.7700	  508.00	  519.13	-1726.96	  386.59
     37.8700	  507.00	  517.22	-1726.06	  386.37
     37.9700	  503.00	  513.90	-1726.74	  386.14
     38.0700	  506.00	  510.45	-1720.29	  385.92
     38.1700	  510.00	  507.57	-1713.40	  385.69
     38.2700	  493.00	  505.44	-1728.27	  385.47
     38.3700	  489.00	  503.99	-1730.82	  385.25
     38.4700	  497.00	  503.03	-1721.87	  385.04
     38.5700	  475.00	  502.38	-1743.21	  384.82
     38.6700	  502.00	  502.06	-1715.89	  384.61
     38.7700	  528.00	  501.68	-1689.52	  384.39
     38.8700	  478.00	  501.27	-1739.10	  384.18
     38.9700	  464.00	  500.99	-1752.82	  383.97
     39.0700	  534.00	  500.73	-1682.56	  383.77
     39.1700	  495.00	  500.49	-1721.32	  383.56
     39.2700	  500.00	  500.26	-1716.09	  383.36
     39.3700	  495.00	  500.05	-1720.88	  383.16
     39.4700	  579.00	  499.85	-1636.68	  382.96
     39.5700	  516.00	  499.66	-1699.49	  382.76
     39.6700	  490.00	  499.39	-1725.23	  382.57
     39.7700	  516.00	  499.23	-1699.06	  382.37
     39.8700	  470.00	  499.07	-1744.90	  382.18
     39.9700	  500.00	  498.92	-1714.75	  381.99
     40.0700	  499.00	  498.79	-1715.62	  381.80
     40.1700	  526.00	  498.66	-1688.49	  381.61
     40.2700	  487.00	  498.55	-1727.38	  381.43
     40.3700	  486.00	  498.45	-1728.28	  381.24
     40.4700	  484.00	  498.37	-1730.20	  381.06
     40.5700	  470.00	  498.30	-1744.13	  380.88
     40.6700	  503.00	  498.25	-1711.09	  380.71
     40.7700	  437.00	  498.23	-1777.06	  380.53
     40.8700	  490.00	  498.23	-1724.06	  380.36
     40.9700	  499.00	  498.74	-1715.57	  380.19
     41.0700	  491.00	  498.81	-1723.65	  380.01
     41.1700	  482.00	  498.94	-1732.77	  379.85
     41.2700	  489.00	  499.12	-1725.95	  379.68
     41.3700	  520.00	  499.37	-1695.20	  379.52
     41.4700	  516.00	  499.72	-1699.55	  379.35
     41.5700	  506.00	  500.20	-1710.04	  379.19
     41.6700	  512.00	  500.88	-1704.72	  379.03
     41.7700	  499.00	  501.90	-1718.73	  378.88
     41.8700	  502.00	  503.52	-1717.35	  378.72
     41.9700	  481.00	  506.39	-1741.22	  378.57
     42.0700	  489.00	  511.53	-1738.36	  378.42
     42.1700	  513.00	  520.56	-1723.39	  378.27
     42.2700	  521.00	  535.11	-1729.94	  378.12
     42.3700	  543.00	  556.23	-1729.07	  377.97
     42.4700	  559.00	  582.82	-1739.65	  377.83
     42.5700	  552.00	  610.35	-1774.18	  377.69
     42.6700	  638.00	  630.27	-1708.10	  377.55
     42.7700	  563.00	  633.54	-1786.37	  377.41
     42.8700	  603.00	  617.73	-1730.56	  377.27
     42.9700	  547.00	  590.61	-1759.44	  377.14
     43.0700	  566.00	  562.39	-1712.23	  377.01
     43.1700	  507.00	  539.06	-1747.90	  376.88
     43.2700	  509.00	  522.55	-1729.39	  376.75
     43.3700	  494.00	  512.38	-1734.21	  376.62
     43.4700	  523.00	  506.38	-1699.21	  376.49
     43.5700	  477.00	  503.03	-1741.86	  376.37
     43.6700	  516.00	  501.08	-1700.91	  376.25
     43.7700	  478.00	  499.84	-1737.67	  376.13
     43.8700	  506.00	  498.97	-1708.81	  376.01
     43.9700	  517.00	  498.32	-1697.16	  375.90
     44.0700	  531.00	  497.82	-1682.65	  375.78
     44.1700	  482.00	  497.41	-1731.25	  375.67
     44.2700	  478.00	  497.09	-1734.92	  375.56
     44.3700	  511.00	  496.84	-1701.67	  375.45
     44.4700	  454.00	  496.63	-1758.47	  375.35
     44.5700	  537.00	  496.48	-1675.31	  375.24
     44.6700	  524.00	  496.36	-1688.19	  375.14
     44.7700	  511.00	  496.47	-1701.30	  375.04
     44.8700	  510.00	  496.41	-1702.25	  374.94
     44.9700	  528.00	  496.39	-1684.22	  374.84
     45.0700	  501.00	  496.39	-1711.23	  374.75
     45.1700	  531.00	  496.42	-1681.25	  374.66
     45.2700	  542.00	  496.47	-1670.31	  374.57
     45.3700	  519.00	  496.41	-1693.25	  374.48
     45.4700	  504.00	  496.52	-1708.35	  374.39
     45.5700	  498.00	  496.65	-1714.48	  374.30
     45.6700	  509.00	  496.85	-1703.68	  374.22
     45.7700	  504.00	  497.03	-1708.87	  374.14
     45.8700	  492.00	  497.25	-1721.08	  374.06
     45.9700	  510.00	  497.50	-1703.33	  373.98
     46.0700	  516.00	  497.78	-1697.62	  373.90
     46.1700	  506.00	  498.11	-1707.94	  373.83
     46.2700	  515.00	  498.48	-1699.31	  373.75
     46.3700	  580.00	  498.91	-1634.74	  373.68
     46.4700	  522.00	  499.39	-1693.23	  373.61
     46.5700	  468.00	  500.02	-1747.85	  373.55
     46.6700	  538.00	  500.70	-1678.53	  373.48
     46.7700	  498.00	  501.48	-1719.31	  373.42
     46.8700	  478.00	  502.43	-1740.26	  373.36
     46.9700	  499.00	  503.67	-1720.50	  373.30
     47.0700	  509.00	  505.43	-1712.26	  373.24
     47.1700	  500.00	  508.11	-1723.94	  373.18
     47.2700	  482.00	  512.36	-1746.19	  373.13
     47.3700	  499.00	  518.95	-1735.79	  373.07
     47.4700	  515.00	  528.64	-1729.48	  373.02
     47.5700	  542.00	  541.62	-1715.45	  372.97
     47.6700	  593.00	  556.96	-1679.79	  372.93
     47.7700	  552.00	  572.14	-1735.97	  372.88
     47.8700	  568.00	  583.07	-1730.90	  372.84
     47.9700	  608.00	  585.73	-1693.56	  372.79
     48.0700	  559.00	  579.42	-1736.25	  372.75
     48.1700	  528.00	  567.74	-1755.57	  372.72
     48.2700	  522.00	  555.29	-1749.12	  372.68
     48.3700	  559.00	  545.13	-1701.96	  372.64
     48.4700	  541.00	  538.55	-1713.39	  372.61
     48.5700	  489.00	  535.64	-1762.47	  372.58
     48.6700	  522.00	  535.84	-1729.68	  372.55
     48.7700	  556.00	  538.50	-1698.33	  372.52
     48.8700	  525.00	  543.17	-1734.00	  372.49
     48.9700	  554.00	  550.15	-1711.98	  372.47
     49.0700	  538.00	  559.17	-1737.00	  372.45
     49.1700	  543.00	  571.85	-1744.69	  372.42
     49.2700	  615.00	  590.94	-1691.77	  372.40
     49.3700	  605.00	  621.70	-1732.53	  372.39
     49.4700	  609.00	  673.26	-1780.09	  372.37
     49.5700	  709.00	  759.16	-1765.99	  372.36
     49.6700	  832.00	  895.80	-1779.64	  372.34
     49.7700	 1081.00	 1097.42	-1732.25	  372.33
     49.8700	 1285.00	 1367.23	-1798.07	  372.32
     49.9700	 1712.00	 1687.17	-1691.01	  372.31
     50.0700	 2124.00	 2008.00	-1599.83	  372.31
     50.1700	 2261.00	 2247.79	-1702.63	  372.30
     50.2700	 2431.00	 2317.35	-1602.18	  372.30
     50.3700	 2195.00	 2183.55	-1704.39	  372.30
     50.4700	 1967.00	 1904.68	-1653.51	  372.30
     50.5700	 1600.00	 1577.32	-1693.16	  372.30
     50.6700	 1123.00	 1275.11	-1867.94	  372.30
     50.7700	  901.00	 1035.43	-1850.26	  372.31
     50.8700	  787.00	  867.09	-1795.93	  372.32
     50.9700	  661.00	  760.46	-1815.29	  372.32
     51.0700	  629.00	  697.55	-1784.39	  372.33
     51.1700	  618.00	  659.93	-1757.76	  372.34
     51.2700	  547.00	  633.80	-1802.63	  372.36
     51.3700	  559.00	  612.16	-1769.00	  372.37
     51.4700	  592.00	  593.21	-1717.04	  372.39
     51.5700	  550.00	  577.39	-1743.22	  372.41
     51.6700	  609.00	  564.55	-1671.38	  372.42
     51.7700	  570.00	  554.96	-1700.79	  372.45
     51.8700	  548.00	  548.27	-1716.10	  372.47
     51.9700	  508.00	  543.92	-1751.75	  372.49
     52.0700	  544.00	  541.37	-1713.20	  372.52
     52.1700	  555.00	  540.22	-1701.05	  372.54
     52.2700	  524.00	  540.28	-1732.11	  372.57
     52.3700	  585.00	  541.61	-1672.44	  372.60
     52.4700	  550.00	  544.63	-1710.46	  372.63
     52.5700	  542.00	  550.34	-1724.17	  372.66
     52.6700	  563.00	  560.70	-1713.54	  372.70
     52.7700	  602.00	  579.05	-1692.89	  372.73
     52.8700	  628.00	  610.23	-1698.06	  372.77
     52.9700	  685.00	  659.98	-1690.82	  372.81
     53.0700	  802.00	  733.17	-1647.00	  372.85
     53.1700	  827.00	  830.90	-1719.74	  372.89
     53.2700	  991.00	  947.16	-1671.99	  372.93
     53.3700	 1124.00	 1065.90	-1657.73	  372.98
     53.4700	 1146.00	 1160.31	-1730.14	  373.02
     53.5700	 1133.00	 1199.26	-1782.10	  373.07
     53.6700	 1111.00	 1166.39	-1771.23	  373.12
     53.7700	 1049.00	 1075.16	-1742.00	  373.17
     53.8700	  960.00	  957.01	-1712.84	  373.22
     53.9700	  801.00	  839.99	-1754.82	  373.27
     54.0700	  718.00	  740.99	-1738.82	  373.32
     54.1700	  635.00	  666.55	-1747.38	  373.38
     54.2700	  622.00	  615.94	-1709.77	  373.43
     54.3700	  593.00	  584.36	-1707.19	  373.49
     54.4700	  561.00	  566.04	-1720.87	  373.55
     54.5700	  540.00	  555.93	-1731.76	  373.61
     54.6700	  594.00	  550.61	-1672.45	  373.67
     54.7700	  616.00	  548.04	-1647.88	  373.73
     54.8700	  560.00	  547.15	-1702.98	  373.80
     54.9700	  576.00	  547.43	-1687.26	  373.86
     55.0700	  547.00	  548.68	-1717.51	  373.93
     55.1700	  562.00	  550.85	-1704.68	  373.99
     55.2700	  556.00	  553.97	-1713.80	  374.06
     55.3700	  569.00	  558.15	-1704.99	  374.13
     55.4700	  587.00	  563.57	-1692.41	  374.20
     55.5700	  565.00	  570.70	-1721.53	  374.28
     55.6700	  561.00	  580.24	-1735.08	  374.35
     55.7700	  574.00	  593.72	-1735.55	  374.42
     55.8700	  595.00	  614.01	-1734.84	  374.50
     55.9700	  622.00	  646.35	-1740.18	  374.58
     56.0700	  702.00	  699.29	-1713.12	  374.65
     56.1700	  751.00	  785.13	-1749.96	  374.73
     56.2700	  886.00	  918.76	-1748.59	  374.81
     56.3700	 1044.00	 1114.03	-1785.87	  374.89
     56.4700	 1311.00	 1377.47	-1782.30	  374.98
     56.5700	 1659.00	 1700.73	-1757.56	  375.06
     56.6700	 1964.00	 2053.44	-1805.27	  375.14
     56.7700	 2289.00	 2378.46	-1805.29	  375.23
     56.8700	 2500.00	 2596.01	-1811.85	  375.32
     56.9700	 2628.00	 2633.23	-1721.06	  375.40
     57.0700	 2370.00	 2475.36	-1821.20	  375.49
     57.1700	 2124.00	 2179.87	-1771.71	  375.58
     57.2700	 1845.00	 1830.57	-1701.40	  375.67
     57.3700	 1524.00	 1494.50	-1686.33	  375.77
     57.4700	 1276.00	 1211.25	-1651.08	  375.86
     57.5700	  909.00	  996.19	-1803.02	  375.95
     57.6700	  835.00	  847.41	-1728.24	  376.05
     57.7700	  689.00	  753.32	-1780.15	  376.14
     57.8700	  696.00	  699.82	-1719.65	  376.24
     57.9700	  751.00	  674.94	-1639.77	  376.34
     58.0700	  685.00	  670.88	-1701.72	  376.44
     58.1700	  748.00	  683.81	-1651.64	  376.54
     58.2700	  746.00	  712.55	-1682.39	  376.64
     58.3700	  767.00	  757.00	-1705.83	  376.74
     58.4700	  884.00	  816.45	-1648.28	  376.84
     58.5700	  948.00	  888.13	-1655.96	  376.94
     58.6700	 1005.00	  966.05	-1676.88	  377.05
     58.7700	 1113.00	 1041.83	-1644.67	  377.15
     58.8700	 1220.00	 1108.08	-1603.92	  377.26
     58.9700	 1302.00	 1160.45	-1574.28	  377.36
     59.0700	 1352.00	 1194.73	-1558.56	  377.47
     59.1700	 1422.00	 1205.58	-1499.42	  377.58
     59.2700	 1357.00	 1192.74	-1551.58	  377.69
     59.3700	 1346.00	 1165.31	-1535.14	  377.79
     59.4700	 1250.00	 1136.46	-1602.29	  377.91
     59.5700	 1159.00	 1116.49	-1673.32	  378.02
     59.6700	 1173.00	 1112.58	-1655.41	  378.13
     59.7700	 1219.00	 1131.73	-1628.56	  378.24
     59.8700	 1159.00	 1179.61	-1736.44	  378.35
     59.9700	 1418.00	 1255.37	-1553.20	  378.47
     60.0700	 1399.00	 1347.75	-1664.59	  378.58
     60.1700	 1515.00	 1434.27	-1635.10	  378.70
     60.2700	 1548.00	 1484.63	-1652.46	  378.81
     60.3700	 1513.00	 1472.90	-1675.73	  378.93
     60.4700	 1444.00	 1394.69	-1666.52	  379.05
     60.5700	 1282.00	 1269.72	-1703.55	  379.16
     60.6700	 1183.00	 1126.42	-1659.26	  379.28
     60.7700	  993.00	  988.25	-1711.08	  379.40
     60.8700	  892.00	  870.07	-1693.91	  379.52
     60.9700	  769.00	  778.91	-1725.75	  379.64
     61.0700	  698.00	  715.96	-1733.79	  379.76
     61.1700	  631.00	  679.22	-1764.05	  379.89
     61.2700	  660.00	  666.00	-1721.83	  380.01
     61.3700	  675.00	  674.90	-1715.73	  380.13
     61.4700	  685.00	  706.53	-1737.36	  380.25
     61.5700	  726.00	  762.95	-1752.79	  380.38
     61.6700	  836.00	  845.96	-1725.80	  380.50
     61.7700	  894.00	  954.77	-1776.60	  380.63
     61.8700	 1026.00	 1083.56	-1773.39	  380.75
     61.9700	 1168.00	 1219.52	-1767.35	  380.88
     62.0700	 1241.00	 1341.89	-1816.72	  381.00
     62.1700	 1347.00	 1423.68	-1792.51	  381.13
     62.2700	 1449.00	 1440.82	-1707.65	  381.26
     62.3700	 1309.00	 1387.02	-1793.85	  381.38
     62.4700	 1181.00	 1278.83	-1813.66	  381.51
     62.5700	 1085.00	 1143.51	-1774.34	  381.64
     62.6700	  971.00	 1005.57	-1750.40	  381.77
     62.7700	  804.00	  881.55	-1793.38	  381.90
     62.8700	  702.00	  780.22	-1794.06	  382.03
     62.9700	  708.00	  703.90	-1711.73	  382.15
     63.0700	  639.00	  650.41	-1727.25	  382.28
     63.1700	  623.00	  615.31	-1708.14	  382.42
     63.2700	  622.00	  593.64	-1687.47	  382.55
     63.3700	  589.00	  581.24	-1708.07	  382.68
     63.4700	  577.00	  575.26	-1714.09	  382.81
     63.5700	  584.00	  574.23	-1706.07	  382.94
     63.6700	  581.00	  578.00	-1712.83	  383.07
     63.7700	  568.00	  587.41	-1735.25	  383.20
     63.8700	  593.00	  604.01	-1726.84	  383.34
     63.9700	  644.00	  629.67	-1701.51	  383.47
     64.0700	  695.00	  665.94	-1686.78	  383.60
     64.1700	  735.00	  713.31	-1694.14	  383.73
     64.2700	  800.00	  770.36	-1686.19	  383.87
     64.3700	  845.00	  833.06	-1703.89	  384.00
     64.4700	  965.00	  894.41	-1645.25	  384.13
     64.5700	  969.00	  944.64	-1691.47	  384.27
     64.6700	 1023.00	  974.02	-1666.85	  384.40
     64.7700	 1058.00	  976.53	-1634.36	  384.53
     64.8700	  982.00	  954.15	-1687.98	  384.67
     64.9700	  980.00	  912.69	-1648.52	  384.80
     65.0700	  898.00	  860.93	-1678.76	  384.94
     65.1700	  853.00	  807.30	-1670.13	  385.07
     65.2700	  769.00	  757.75	-1704.58	  385.21
     65.3700	  699.00	  714.99	-1731.82	  385.34
     65.4700	  682.00	  679.29	-1713.12	  385.47
     65.5700	  645.00	  649.88	-1720.71	  385.61
     65.6700	  623.00	  625.98	-1718.81	  385.74
     65.7700	  591.00	  607.03	-1731.86	  385.88
     65.8700	  555.00	  592.60	-1753.43	  386.01
     65.9700	  557.00	  581.89	-1740.73	  386.15
     66.0700	  545.00	  574.49	-1745.32	  386.28
     66.1700	  554.00	  569.94	-1731.77	  386.41
     66.2700	  541.00	  567.81	-1742.64	  386.55
     66.3700	  531.00	  567.74	-1752.57	  386.68
     66.4700	  535.00	  569.50	-1750.34	  386.82
     66.5700	  578.00	  573.03	-1710.87	  386.95
     66.6700	  604.00	  578.58	-1690.41	  387.09
     66.7700	  599.00	  586.85	-1703.68	  387.22
     66.8700	  603.00	  599.27	-1712.10	  387.35
     66.9700	  568.00	  618.43	-1766.27	  387.49
     67.0700	  655.00	  648.06	-1708.89	  387.62
     67.1700	  725.00	  693.88	-1684.72	  387.75
     67.2700	  723.00	  763.10	-1755.94	  387.89
     67.3700	  856.00	  863.79	-1723.62	  388.02
     67.4700	 1017.00	 1003.26	-1702.09	  388.15
     67.5700	 1154.00	 1185.33	-1747.16	  388.29
     67.6700	 1428.00	 1408.05	-1695.88	  388.42
     67.7700	 1619.00	 1660.71	-1757.54	  388.55
     67.8700	 1937.00	 1922.16	-1700.99	  388.68
     67.9700	 2219.00	 2159.89	-1656.72	  388.81
     68.0700	 2363.00	 2332.51	-1685.35	  388.94
     68.1700	 2444.00	 2400.54	-1672.37	  389.08
     68.2700	 2301.00	 2345.64	-1760.47	  389.21
     68.3700	 2222.00	 2182.74	-1676.57	  389.34
     68.4700	 1956.00	 1950.19	-1710.02	  389.47
     68.5700	 1750.00	 1689.84	-1655.67	  389.60
     68.6700	 1480.00	 1435.23	-1671.07	  389.73
     68.7700	 1198.00	 1209.12	-1726.95	  389.86
     68.8700	  991.00	 1022.98	-1747.81	  389.98
     68.9700	  809.00	  879.70	-1786.53	  390.11
     69.0700	  754.00	  775.73	-1737.56	  390.24
     69.1700	  696.00	  704.06	-1723.89	  390.37
     69.2700	  660.00	  656.63	-1712.46	  390.49
     69.3700	  614.00	  626.06	-1727.89	  390.62
     69.4700	  599.00	  606.57	-1723.41	  390.75
     69.5700	  577.00	  593.99	-1732.83	  390.87
     69.6700	  585.00	  585.67	-1716.50	  391.00
     69.7700	  522.00	  580.01	-1773.84	  391.12
     69.8700	  577.00	  576.09	-1714.92	  391.25
     69.9700	  561.00	  573.43	-1728.27	  391.37
     70.0700	  585.00	  571.78	-1702.61	  391.50
     70.1700	  595.00	  571.05	-1691.88	  391.62
     70.2700	  614.00	  571.20	-1673.03	  391.74
     70.3700	  568.00	  572.26	-1720.09	  391.86
     70.4700	  575.00	  574.47	-1715.30	  391.98
     70.5700	  578.00	  578.24	-1716.08	  392.10
     70.6700	  602.00	  584.32	-1698.15	  392.22
     70.7700	  585.00	  593.95	-1724.78	  392.34
     70.8700	  601.00	  609.13	-1723.96	  392.46
     70.9700	  627.00	  632.76	-1721.59	  392.58
     71.0700	  646.00	  668.76	-1738.59	  392.70
     71.1700	  697.00	  721.87	-1740.71	  392.82
     71.2700	  823.00	  797.95	-1690.78	  392.93
     71.3700	  907.00	  899.53	-1708.36	  393.05
     71.4700	 1037.00	 1029.46	-1708.29	  393.16
     71.5700	 1176.00	 1186.01	-1725.84	  393.28
     71.6700	 1318.00	 1362.34	-1760.17	  393.39
     71.7700	 1575.00	 1545.59	-1686.42	  393.50
     71.8700	 1705.00	 1716.33	-1727.16	  393.62
     71.9700	 1813.00	 1849.82	-1752.65	  393.73
     72.0700	 1821.00	 1920.67	-1815.50	  393.84
     72.1700	 1823.00	 1912.65	-1805.48	  393.95
     72.2700	 1782.00	 1827.74	-1761.58	  394.06
     72.3700	 1692.00	 1684.93	-1708.77	  394.17
     72.4700	 1458.00	 1510.14	-1767.98	  394.27
     72.5700	 1404.00	 1327.24	-1639.07	  394.38
     72.6700	 1177.00	 1154.19	-1693.02	  394.49
     72.7700	 1040.00	 1002.50	-1678.33	  394.59
     72.8700	  937.00	  877.80	-1656.64	  394.70
     72.9700	  830.00	  780.90	-1666.73	  394.80
     73.0700	  773.00	  708.76	-1651.60	  394.90
     73.1700	  683.00	  657.94	-1690.77	  395.01
     73.2700	  659.00	  623.05	-1679.88	  395.11
     73.3700	  710.00	  599.60	-1605.43	  395.21
     73.4700	  630.00	  583.96	-1669.79	  395.31
     73.5700	  619.00	  573.49	-1670.32	  395.41
     73.6700	  617.00	  566.40	-1665.24	  395.50
     73.7700	  575.00	  561.61	-1702.44	  395.60
     73.8700	  586.00	  558.45	-1688.28	  395.70
     73.9700	  591.00	  556.54	-1681.37	  395.79
     74.0700	  584.00	  555.64	-1687.47	  395.89
     74.1700	  602.00	  555.54	-1669.37	  395.98
     74.2700	  610.00	  556.04	-1661.87	  396.07
     74.3700	  625.00	  556.88	-1647.71	  396.16
     74.4700	  620.00	  557.76	-1653.59	  396.25
     74.5700	  642.00	  558.32	-1632.15	  396.34
     74.6700	  656.00	  558.23	-1618.06	  396.43
     74.7700	  629.00	  557.30	-1644.13	  396.52
     74.8700	  570.00	  555.56	-1701.40	  396.60
     74.9700	  655.00	  553.30	-1614.14	  396.69
     75.0700	  635.00	  550.90	-1631.73	  396.77
     75.1700	  587.00	  548.76	-1677.60	  396.85
     75.2700	  572.00	  547.30	-1691.14	  396.93
     75.3700	  586.00	  546.94	-1676.77	  397.02
     75.4700	  559.00	  548.05	-1704.89	  397.09
     75.5700	  590.00	  551.22	-1677.05	  397.17
     75.6700	  526.00	  556.87	-1746.70	  397.25
     75.7700	  551.00	  565.45	-1730.28	  397.33
     75.8700	  574.00	  577.29	-1719.13	  397.40
     75.9700	  606.00	  592.39	-1702.23	  397.48
     76.0700	  597.00	  610.64	-1729.47	  397.55
     76.1700	  655.00	  631.16	-1692.00	  397.62
     76.2700	  655.00	  652.63	-1713.47	  397.69
     76.3700	  680.00	  673.06	-1708.90	  397.76
     76.4700	  690.00	  690.08	-1715.91	  397.83
     76.5700	  722.00	  700.99	-1694.82	  397.90
     76.6700	  698.00	  703.70	-1721.53	  397.96
     76.7700	  671.00	  697.60	-1742.44	  398.03
     76.8700	  677.00	  683.90	-1722.73	  398.09
     76.9700	  649.00	  664.97	-1731.81	  398.15
     77.0700	  605.00	  643.47	-1754.30	  398.21
     77.1700	  610.00	  621.66	-1727.50	  398.27
     77.2700	  580.00	  601.25	-1737.09	  398.33
     77.3700	  576.00	  583.35	-1723.18	  398.39
     77.4700	  543.00	  568.31	-1741.14	  398.45
     77.5700	  545.00	  556.60	-1727.44	  398.50
     77.6700	  525.00	  547.78	-1738.61	  398.55
     77.7700	  504.00	  541.39	-1753.23	  398.61
     77.8700	  500.00	  536.93	-1752.76	  398.66
     77.9700	  504.00	  533.89	-1745.72	  398.71
     78.0700	  531.00	  531.85	-1716.68	  398.75
     78.1700	  531.00	  530.49	-1715.33	  398.80
     78.2700	  515.00	  529.59	-1730.42	  398.85
     78.3700	  545.00	  528.98	-1699.82	  398.89
     78.4700	  518.00	  528.58	-1726.42	  398.93
     78.5700	  497.00	  528.33	-1747.16	  398.98
     78.6700	  526.00	  528.20	-1718.04	  399.02
     78.7700	  500.00	  528.19	-1744.03	  399.06
     78.8700	  498.00	  528.31	-1746.14	  399.09
     78.9700	  565.00	  528.56	-1679.39	  399.13
     79.0700	  512.00	  528.98	-1732.81	  399.16
     79.1700	  501.00	  529.60	-1744.43	  399.20
     79.2700	  547.00	  530.46	-1699.29	  399.23
     79.3700	  515.00	  531.61	-1732.44	  399.26
     79.4700	  541.00	  533.09	-1707.92	  399.29
     79.5700	  528.00	  534.96	-1722.80	  399.32
     79.6700	  495.00	  537.31	-1758.14	  399.34
     79.7700	  493.00	  540.21	-1763.05	  399.37
     79.8700	  500.00	  543.61	-1759.44	  399.39
     79.9700	  530.00	  548.01	-1733.85	  399.41
     80.0700	  517.00	  553.43	-1752.26	  399.43
     80.1700	  540.00	  560.07	-1735.90	  399.45
     80.2700	  589.00	  568.21	-1695.04	  399.47
     80.3700	  559.00	  578.13	-1734.96	  399.49
     80.4700	  538.00	  590.03	-1767.86	  399.50
     80.5700	  612.00	  603.96	-1707.79	  399.51
     80.6700	  568.00	  619.70	-1767.53	  399.53
     80.7700	  630.00	  636.74	-1722.57	  399.54
     80.8700	  625.00	  654.24	-1745.07	  399.55
     80.9700	  693.00	  671.11	-1693.94	  399.55
     81.0700	  693.00	  686.17	-1709.00	  399.56
     81.1700	  709.00	  698.41	-1705.24	  399.56
     81.2700	  764.00	  707.09	-1658.92	  399.56
     81.3700	  725.00	  711.77	-1702.60	  399.57
     81.4700	  742.00	  712.26	-1686.10	  399.57
     81.5700	  736.00	  708.71	-1688.54	  399.56
     81.6700	  754.00	  701.46	-1663.29	  399.56
     81.7700	  704.00	  690.99	-1702.82	  399.55
     81.8700	  702.00	  677.93	-1691.76	  399.55
     81.9700	  714.00	  663.12	-1664.95	  399.54
     82.0700	  703.00	  647.53	-1660.36	  399.53
     82.1700	  675.00	  632.04	-1672.87	  399.52
     82.2700	  672.00	  617.27	-1661.10	  399.51
     82.3700	  629.00	  603.60	-1690.44	  399.49
     82.4700	  618.00	  591.24	-1689.07	  399.48
     82.5700	  637.00	  580.29	-1659.13	  399.46
     82.6700	  586.00	  570.87	-1700.71	  399.44
     82.7700	  581.00	  563.05	-1697.88	  399.42
     82.8700	  539.00	  556.80	-1733.63	  399.39
     82.9700	  560.00	  552.23	-1708.06	  399.37
     83.0700	  520.00	  549.23	-1745.06	  399.35
     83.1700	  534.00	  547.73	-1729.56	  399.32
     83.2700	  527.00	  547.59	-1736.42	  399.29
     83.3700	  540.00	  548.74	-1724.57	  399.26
     83.4700	  532.00	  550.94	-1734.77	  399.23
     83.5700	  521.00	  553.94	-1748.78	  399.19
     83.6700	  577.00	  557.41	-1696.25	  399.16
     83.7700	  556.00	  560.96	-1720.80	  399.12
     83.8700	  567.00	  564.13	-1712.96	  399.08
     83.9700	  538.00	  566.45	-1744.28	  399.04
     84.0700	  540.00	  567.50	-1743.33	  399.00
     84.1700	  544.00	  567.03	-1738.86	  398.95
     84.2700	  520.00	  565.05	-1760.88	  398.91
     84.3700	  568.00	  561.81	-1709.65	  398.86
     84.4700	  545.00	  557.71	-1728.55	  398.81
     84.5700	  542.00	  553.17	-1727.00	  398.76
     84.6700	  536.00	  548.54	-1728.37	  398.71
     84.7700	  540.00	  544.12	-1719.95	  398.66
     84.8700	  496.00	  540.12	-1759.95	  398.60
     84.9700	  511.00	  536.67	-1741.50	  398.55
     85.0700	  545.00	  533.82	-1704.65	  398.49
     85.1700	  500.00	  531.56	-1747.40	  398.43
     85.2700	  554.00	  529.86	-1691.70	  398.36
     85.3700	  501.00	  528.65	-1743.48	  398.30
     85.4700	  524.00	  527.86	-1719.69	  398.24
     85.5700	  489.00	  527.42	-1754.25	  398.17
     85.6700	  530.00	  527.29	-1713.12	  398.10
     85.7700	  496.00	  527.46	-1747.30	  398.03
     85.8700	  508.00	  527.96	-1735.79	  397.96
     85.9700	  517.00	  528.84	-1727.67	  397.88
     86.0700	  521.00	  530.20	-1725.03	  397.81
     86.1700	  554.00	  532.17	-1694.00	  397.73
     86.2700	  514.00	  534.92	-1736.75	  397.65
     86.3700	  515.00	  538.63	-1739.46	  397.57
     86.4700	  573.00	  543.47	-1686.31	  397.49
     86.5700	  543.00	  549.60	-1722.44	  397.41
     86.6700	  521.00	  557.10	-1751.94	  397.32
     86.7700	  586.00	  565.95	-1695.78	  397.23
     86.8700	  579.00	  575.98	-1712.81	  397.14
     86.9700	  578.00	  586.89	-1724.72	  397.05
     87.0700	  633.00	  598.18	-1681.02	  396.96
     87.1700	  613.00	  609.20	-1712.03	  396.87
     87.2700	  648.00	  619.12	-1686.95	  396.77
     87.3700	  655.00	  627.03	-1687.87	  396.67
     87.4700	  608.00	  632.07	-1739.90	  396.58
     87.5700	  681.00	  633.27	-1668.10	  396.47
     87.6700	  650.00	  631.21	-1697.04	  396.37
     87.7700	  660.00	  625.91	-1681.75	  396.27
     87.8700	  608.00	  618.17	-1726.00	  396.16
     87.9700	  600.00	  608.93	-1724.77	  396.06
     88.0700	  644.00	  599.17	-1671.00	  395.95
     88.1700	  586.00	  589.73	-1719.57	  395.84
     88.2700	  591.00	  581.35	-1706.18	  395.72
     88.3700	  623.00	  574.56	-1667.40	  395.61
     88.4700	  548.00	  569.74	-1737.57	  395.49
     88.5700	  578.00	  567.06	-1704.89	  395.37
     88.6700	  598.00	  566.51	-1684.34	  395.26
     88.7700	  590.00	  567.93	-1693.76	  395.13
     88.8700	  591.00	  571.01	-1695.84	  395.01
     88.9700	  558.00	  575.31	-1733.14	  394.89
     89.0700	  541.00	  580.31	-1755.14	  394.76
     89.1700	  579.00	  585.39	-1722.22	  394.63
     89.2700	  590.00	  589.91	-1715.74	  394.51
     89.3700	  643.00	  593.22	-1666.05	  394.37
     89.4700	  608.00	  594.77	-1702.60	  394.24
     89.5700	  642.00	  594.24	-1668.08	  394.11
     89.6700	  588.00	  591.63	-1719.46	  393.97
     89.7700	  600.00	  587.21	-1703.04	  393.83
     89.8700	  515.00	  581.44	-1782.27	  393.70
     89.9700	  605.00	  574.86	-1685.69	  393.55
     90.0700	  534.00	  567.96	-1749.79	  393.41
     90.1700	  540.00	  561.16	-1736.99	  393.27
     90.2700	  538.00	  554.78	-1732.61	  393.12
     90.3700	  516.00	  549.06	-1748.89	  392.98
     90.4700	  544.00	  544.14	-1715.97	  392.83
     90.5700	  569.00	  540.07	-1686.90	  392.68
     90.6700	  548.00	  536.83	-1704.67	  392.52
     90.7700	  511.00	  534.39	-1739.22	  392.37
     90.8700	  503.00	  532.64	-1745.48	  392.22
     90.9700	  518.00	  531.51	-1729.35	  392.06
     91.0700	  531.00	  530.91	-1715.75	  391.90
     91.1700	  464.00	  530.78	-1782.62	  391.74
     91.2700	  531.00	  531.09	-1715.93	  391.58
     91.3700	  519.00	  531.85	-1728.69	  391.42
     91.4700	  512.00	  533.10	-1736.93	  391.25
     91.5700	  546.00	  534.93	-1704.76	  391.08
     91.6700	  517.00	  537.44	-1736.28	  390.92
     91.7700	  573.00	  540.81	-1683.65	  390.75
     91.8700	  556.00	  545.21	-1705.05	  390.58
     91.9700	  531.00	  550.83	-1735.67	  390.40
     92.0700	  533.00	  557.86	-1740.69	  390.23
     92.1700	  544.00	  566.45	-1738.28	  390.05
     92.2700	  575.00	  576.71	-1717.54	  389.88
     92.3700	  539.00	  588.68	-1765.52	  389.70
     92.4700	  548.00	  602.31	-1770.14	  389.52
     92.5700	  610.00	  617.42	-1723.25	  389.34
     92.6700	  546.00	  633.73	-1803.56	  389.15
     92.7700	  592.00	  650.55	-1774.38	  388.97
     92.8700	  662.00	  667.87	-1721.70	  388.78
     92.9700	  661.00	  684.77	-1739.60	  388.60
     93.0700	  686.00	  700.60	-1730.44	  388.41
     93.1700	  718.00	  714.83	-1712.67	  388.22
     93.2700	  775.00	  727.19	-1668.02	  388.03
     93.3700	  759.00	  737.76	-1694.59	  387.83
     93.4700	  783.00	  746.91	-1679.74	  387.64
     93.5700	  763.00	  755.14	-1707.98	  387.44
     93.6700	  795.00	  762.96	-1683.79	  387.24
     93.7700	  812.00	  770.76	-1674.60	  387.05
     93.8700	  879.00	  778.92	-1615.75	  386.85
     93.9700	  823.00	  787.76	-1680.60	  386.64
     94.0700	  807.00	  797.68	-1706.52	  386.44
     94.1700	  882.00	  809.02	-1642.85	  386.24
     94.2700	  880.00	  821.94	-1657.78	  386.03
     94.3700	  835.00	  836.27	-1717.11	  385.82
     94.4700	  886.00	  851.44	-1681.27	  385.62
     94.5700	  928.00	  866.42	-1654.25	  385.41
     94.6700	  826.00	  879.84	-1769.67	  385.19
     94.7700	  895.00	  890.04	-1710.87	  384.98
     94.8700	  872.00	  895.36	-1739.19	  384.77
     94.9700	  905.00	  894.45	-1705.29	  384.55
     95.0700	  857.00	  886.67	-1745.50	  384.34
     95.1700	  916.00	  872.25	-1672.09	  384.12
     95.2700	  898.00	  852.30	-1670.13	  383.90
     95.3700	  795.00	  828.44	-1749.27	  383.68
     95.4700	  809.00	  802.56	-1709.39	  383.46
     95.5700	  801.00	  776.57	-1691.40	  383.24
     95.6700	  720.00	  752.26	-1748.09	  383.01
     95.7700	  735.00	  731.28	-1712.11	  382.79
     95.8700	  722.00	  715.11	-1708.95	  382.56
     95.9700	  636.00	  705.10	-1784.93	  382.34
     96.0700	  633.00	  702.39	-1785.23	  382.11
     96.1700	  719.00	  707.98	-1704.82	  381.88
     96.2700	  683.00	  722.67	-1755.51	  381.65
     96.3700	  726.00	  747.08	-1736.91	  381.42
     96.4700	  736.00	  781.51	-1761.34	  381.18
     96.5700	  839.00	  825.96	-1702.79	  380.95
     96.6700	  881.00	  880.00	-1714.83	  380.72
     96.7700	  945.00	  942.69	-1713.52	  380.48
     96.8700	  947.00	 1012.54	-1781.37	  380.24
     96.9700	 1064.00	 1087.38	-1739.21	  380.00
     97.0700	 1192.00	 1164.42	-1688.26	  379.77
     97.1700	 1229.00	 1240.22	-1727.05	  379.53
     97.2700	 1338.00	 1310.77	-1688.60	  379.28
     97.3700	 1342.00	 1371.72	-1745.55	  379.04
     97.4700	 1428.00	 1418.70	-1706.53	  378.80
     97.5700	 1437.00	 1448.00	-1726.83	  378.56
     97.6700	 1458.00	 1457.29	-1715.13	  378.31
     97.7700	 1456.00	 1446.17	-1706.00	  378.06
     97.8700	 1325.00	 1416.18	-1807.01	  377.82
     97.9700	 1336.00	 1370.39	-1750.22	  377.57
     98.0700	 1295.00	 1312.74	-1733.57	  377.32
     98.1700	 1208.00	 1247.44	-1755.27	  377.07
     98.2700	 1136.00	 1178.55	-1758.38	  376.82
     98.3700	 1039.00	 1109.81	-1786.64	  376.57
     98.4700	 1032.00	 1044.49	-1728.32	  376.32
     98.5700	  997.00	  985.37	-1704.20	  376.07
     98.6700	  899.00	  934.73	-1751.56	  375.81
     98.7700	  871.00	  894.37	-1739.20	  375.56
     98.8700	  852.00	  865.65	-1729.48	  375.30
     98.9700	  848.00	  849.58	-1717.41	  375.05
     99.0700	  849.00	  846.92	-1713.75	  374.79
     99.1700	  869.00	  858.08	-1704.91	  374.54
     99.2700	  879.00	  883.23	-1720.06	  374.28
     99.3700	  928.00	  922.32	-1710.16	  374.02
     99.4700	  975.00	  975.04	-1715.87	  373.76
     99.5700	 1001.00	 1040.74	-1755.57	  373.50
     99.6700	 1165.00	 1118.42	-1669.25	  373.24
     99.7700	 1260.00	 1206.58	-1662.41	  372.98
     99.8700	 1337.00	 1303.18	-1682.02	  372.72
     99.9700	 1412.00	 1405.58	-1709.41	  372.46
    100.0700	 1428.00	 1510.49	-1798.32	  372.19
    100.1700	 1664.00	 1614.04	-1665.87	  371.93
    100.2700	 1653.00	 1712.04	-1774.87	  371.67
    100.3700	 1784.00	 1800.35	-1732.18	  371.40
    100.4700	 1846.00	 1875.33	-1745.16	  371.14
    100.5700	 1980.00	 1934.18	-1670.01	  370.87
    100.6700	 2048.00	 1975.04	-1642.87	  370.61
    100.7700	 2075.00	 1996.79	-1637.62	  370.34
    100.8700	 2002.00	 1998.81	-1712.65	  370.08
    100.9700	 2055.00	 1981.01	-1641.84	  369.81
    101.0700	 1964.00	 1943.99	-1695.83	  369.54
    101.1700	 1935.00	 1889.51	-1670.34	  369.28
    101.2700	 1854.00	 1820.60	-1682.43	  369.01
    101.3700	 1747.00	 1741.35	-1710.18	  368.74
    101.4700	 1711.00	 1656.41	-1661.24	  368.48
    101.5700	 1528.00	 1570.39	-1758.23	  368.21
    101.6700	 1523.00	 1487.37	-1680.20	  367.94
    101.7700	 1406.00	 1410.57	-1720.40	  367.67
    101.8700	 1398.00	 1342.30	-1660.14	  367.40
    101.9700	 1296.00	 1283.89	-1703.72	  367.13
    102.0700	 1208.00	 1235.72	-1743.55	  366.87
    102.1700	 1231.00	 1197.28	-1682.11	  366.60
    102.2700	 1142.00	 1167.30	-1741.13	  366.33
    102.3700	 1102.00	 1143.86	-1757.69	  366.06
    102.4700	 1084.00	 1124.61	-1756.44	  365.79
    102.5700	 1117.00	 1107.00	-1705.84	  365.52
    102.6700	 1066.00	 1088.60	-1738.43	  365.25
    102.7700	 1018.00	 1067.39	-1765.23	  364.98
    102.8700	 1075.00	 1042.13	-1682.96	  364.71
    102.9700	 1032.00	 1012.37	-1696.20	  364.45
    103.0700	  982.00	  978.41	-1712.24	  364.18
    103.1700	  938.00	  941.10	-1718.93	  363.91
    103.2700	  932.00	  901.55	-1685.38	  363.64
    103.3700	  811.00	  860.97	-1765.80	  363.37
    103.4700	  814.00	  820.55	-1722.39	  363.11
    103.5700	  818.00	  781.35	-1679.18	  362.84
    103.6700	  726.00	  744.25	-1734.08	  362.57
    103.7700	  737.00	  709.96	-1688.79	  362.30
    103.8700	  687.00	  678.97	-1707.80	  362.04
    103.9700	  697.00	  651.57	-1670.41	  361.77
    104.0700	  634.00	  627.87	-1709.70	  361.51
    104.1700	  636.00	  607.79	-1687.62	  361.24
    104.2700	  603.00	  591.15	-1703.98	  360.98
    104.3700	  573.00	  577.65	-1720.48	  360.71
    104.4700	  547.00	  566.97	-1735.80	  360.45
    104.5700	  559.00	  558.72	-1715.55	  360.18
    104.6700	  548.00	  552.55	-1720.38	  359.92
    104.7700	  574.00	  548.11	-1689.95	  359.66
    104.8700	  554.00	  545.11	-1706.95	  359.40
    104.9700	  565.00	  543.28	-1694.12	  359.14
    105.0700	  503.00	  542.41	-1755.24	  358.88
    105.1700	  597.00	  542.32	-1661.15	  358.62
    105.2700	  545.00	  542.90	-1713.73	  358.36
    105.3700	  568.00	  544.06	-1691.90	  358.10
    105.4700	  554.00	  545.77	-1707.60	  357.84
    105.5700	  521.00	  548.00	-1742.83	  357.59
    105.6700	  580.00	  550.76	-1686.60	  357.33
    105.7700	  585.00	  554.16	-1684.99	  357.08
    105.8700	  543.00	  558.23	-1731.07	  356.82
    105.9700	  561.00	  563.09	-1717.92	  356.57
    106.0700	  519.00	  568.78	-1765.61	  356.32
    106.1700	  658.00	  575.39	-1633.22	  356.07
    106.2700	  565.00	  582.91	-1733.75	  355.82
    106.3700	  595.00	  591.32	-1712.15	  355.57
    106.4700	  598.00	  600.51	-1718.34	  355.32
    106.5700	  584.00	  610.34	-1742.17	  355.07
    106.6700	  624.00	  620.59	-1712.42	  354.83
    106.7700	  610.00	  630.99	-1736.82	  354.58
    106.8700	  643.00	  641.23	-1714.07	  354.34
    106.9700	  640.00	  650.97	-1726.80	  354.10
    107.0700	  645.00	  659.82	-1730.65	  353.86
    107.1700	  623.00	  667.45	-1760.28	  353.62
    107.2700	  722.00	  673.58	-1667.41	  353.38
    107.3700	  686.00	  678.05	-1707.88	  353.14
    107.4700	  694.00	  680.85	-1702.69	  352.91
    107.5700	  680.00	  682.16	-1717.99	  352.67
    107.6700	  662.00	  682.27	-1736.10	  352.44
    107.7700	  718.00	  681.59	-1679.42	  352.21
    107.8700	  691.00	  680.53	-1705.36	  351.98
    107.9700	  689.00	  679.49	-1706.32	  351.75
    108.0700	  681.00	  678.79	-1713.62	  351.53
    108.1700	  653.00	  678.67	-1741.50	  351.30
    108.2700	  667.00	  679.25	-1728.08	  351.08
    108.3700	  686.00	  680.53	-1710.37	  350.86
    108.4700	  700.00	  682.42	-1698.25	  350.64
    108.5700	  663.00	  684.69	-1737.52	  350.42
    108.6700	  738.00	  687.02	-1664.85	  350.21
    108.7700	  734.00	  689.03	-1670.86	  349.99
    108.8700	  692.00	  690.28	-1714.11	  349.78
    108.9700	  720.00	  690.34	-1686.17	  349.57
    109.0700	  693.00	  688.85	-1711.68	  349.36
    109.1700	  736.00	  685.56	-1665.39	  349.16
    109.2700	  658.00	  680.38	-1738.22	  348.96
    109.3700	  640.00	  673.40	-1749.23	  348.75
    109.4700	  657.00	  664.80	-1723.63	  348.55
    109.5700	  629.00	  654.93	-1741.76	  348.36
    109.6700	  615.00	  644.12	-1744.95	  348.16
    109.7700	  644.00	  632.76	-1704.59	  347.97
    109.8700	  618.00	  621.20	-1719.03	  347.78
    109.9700	  599.00	  609.77	-1726.60	  347.59
    110.0700	  640.00	  598.76	-1674.60	  347.40
    110.1700	  627.00	  588.41	-1677.24	  347.22
    110.2700	  581.00	  578.89	-1713.73	  347.04
    110.3700	  575.00	  570.36	-1711.19	  346.86
    110.4700	  581.00	  562.88	-1697.71	  346.69
    110.5700	  541.00	  556.49	-1731.33	  346.51
    110.6700	  598.00	  551.20	-1669.03	  346.34
    110.7700	  559.00	  546.96	-1703.79	  346.17
    110.8700	  573.00	  543.71	-1686.54	  346.01
    110.9700	  522.00	  541.37	-1735.20	  345.85
    111.0700	  588.00	  539.84	-1667.67	  345.69
    111.1700	  553.00	  539.03	-1701.86	  345.53
    111.2700	  501.00	  538.84	-1753.67	  345.38
    111.3700	  567.00	  539.19	-1688.02	  345.22
    111.4700	  545.00	  539.99	-1710.82	  345.08
    111.5700	  502.00	  541.17	-1755.00	  344.93
    111.6700	  534.00	  542.68	-1724.51	  344.79
    111.7700	  564.00	  544.45	-1696.28	  344.65
    111.8700	  560.00	  546.46	-1702.29	  344.51
    111.9700	  553.00	  548.68	-1711.51	  344.38
    112.0700	  549.00	  551.09	-1717.92	  344.25
    112.1700	  550.00	  553.70	-1719.53	  344.12
    112.2700	  548.00	  556.50	-1724.34	  344.00
    112.3700	  560.00	  559.54	-1715.37	  343.88
    112.4700	  540.00	  562.83	-1738.66	  343.76
    112.5700	  583.00	  566.41	-1699.24	  343.65
    112.6700	  513.00	  570.35	-1773.19	  343.54
    112.7700	  603.00	  574.72	-1687.55	  343.44
    112.8700	  585.00	  579.60	-1710.43	  343.33
    112.9700	  570.00	  585.11	-1730.94	  343.23
    113.0700	  551.00	  591.39	-1756.22	  343.14
    113.1700	  622.00	  598.63	-1692.47	  343.05
    113.2700	  608.00	  607.08	-1714.91	  342.96
    113.3700	  620.00	  617.03	-1712.86	  342.88
    113.4700	  664.00	  628.87	-1680.71	  342.80
    113.5700	  691.00	  643.11	-1667.94	  342.72
    113.6700	  702.00	  660.35	-1674.19	  342.65
    113.7700	  722.00	  681.36	-1675.19	  342.58
    113.8700	  738.00	  707.05	-1684.88	  342.52
    113.9700	  751.00	  738.52	-1703.36	  342.46
    114.0700	  776.00	  777.09	-1716.93	  342.40
    114.1700	  810.00	  824.28	-1730.11	  342.35
    114.2700	  868.00	  881.78	-1729.61	  342.30
    114.3700	  956.00	  951.54	-1711.38	  342.26
    114.4700	 1068.00	 1035.63	-1683.46	  342.22
    114.5700	 1201.00	 1136.24	-1651.08	  342.19
    114.6700	 1411.00	 1255.67	-1560.51	  342.16
    114.7700	 1438.00	 1396.13	-1673.96	  342.13
    114.8700	 1638.00	 1559.70	-1637.54	  342.11
    114.9700	 1899.00	 1748.19	-1565.02	  342.09
    115.0700	 2070.00	 1963.04	-1608.87	  342.08
    115.1700	 2335.00	 2205.14	-1585.97	  342.08
    115.2700	 2541.00	 2474.64	-1649.47	  342.07
    115.3700	 2766.00	 2770.85	-1720.68	  342.08
    115.4700	 3132.00	 3092.07	-1675.90	  342.08
    115.5700	 3537.00	 3435.62	-1614.45	  342.10
    115.6700	 3887.00	 3797.69	-1626.52	  342.11
    115.7700	 4031.00	 4173.19	-1858.02	  342.14
    115.8700	 4337.00	 4555.87	-1934.71	  342.16
    115.9700	 4823.00	 4938.30	-1831.13	  342.20
    116.0700	 5213.00	 5312.06	-1814.89	  342.23
    116.1700	 5625.00	 5667.79	-1758.62	  342.28
    116.2700	 5868.00	 5995.29	-1843.12	  342.33
    116.3700	 6189.00	 6284.06	-1810.89	  342.38
    116.4700	 6522.00	 6523.71	-1717.54	  342.44
    116.5700	 6674.00	 6704.84	-1746.67	  342.50
    116.6700	 6755.00	 6819.76	-1780.59	  342.57
    116.7700	 6824.00	 6863.33	-1755.16	  342.65
    116.8700	 6738.00	 6833.73	-1811.57	  342.73
    116.9700	 6704.00	 6732.67	-1744.50	  342.82
    117.0700	 6470.00	 6565.08	-1810.91	  342.91
    117.1700	 6249.00	 6338.50	-1805.34	  343.01
    117.2700	 6022.00	 6062.30	-1756.13	  343.11
    117.3700	 5725.00	 5746.75	-1737.58	  343.22
    117.4700	 5241.00	 5402.30	-1877.14	  343.34
    117.5700	 4891.00	 5038.96	-1863.80	  343.46
    117.6700	 4763.00	 4665.99	-1618.82	  343.59
    117.7700	 4263.00	 4291.79	-1744.62	  343.72
    117.8700	 4013.00	 3923.66	-1626.49	  343.87
    117.9700	 3583.00	 3567.75	-1700.58	  344.01
    118.0700	 3468.00	 3228.94	-1476.77	  344.17
    118.1700	 3091.00	 2910.94	-1535.77	  344.33
    118.2700	 2749.00	 2616.46	-1583.29	  344.49
    118.3700	 2388.00	 2347.11	-1674.94	  344.66
    118.4700	 2201.00	 2103.65	-1618.48	  344.84
    118.5700	 1833.00	 1885.96	-1768.79	  345.03
    118.6700	 1696.00	 1693.29	-1713.13	  345.22
    118.7700	 1512.00	 1524.45	-1728.28	  345.42
    118.8700	 1352.00	 1377.80	-1741.63	  345.63
    118.9700	 1287.00	 1251.49	-1680.33	  345.84
    119.0700	 1114.00	 1143.49	-1745.32	  346.06
    119.1700	 1019.00	 1051.72	-1748.55	  346.29
    119.2700	  936.00	  974.18	-1754.01	  346.52
    119.3700	  887.00	  908.95	-1737.78	  346.76
    119.4700	  829.00	  854.25	-1741.09	  347.01
    119.5700	  770.00	  808.49	-1754.33	  347.27
    119.6700	  755.00	  770.25	-1731.08	  347.53
    119.7700	  732.00	  738.30	-1722.13	  347.80
    119.8700	  650.00	  711.59	-1777.42	  348.08
    119.9700	  714.00	  689.24	-1691.08	  348.36
    120.0700	  604.00	  670.52	-1782.36	  348.65
    120.1700	  611.00	  654.82	-1759.65	  348.96
    120.2700	  608.00	  641.64	-1749.48	  349.26
    120.3700	  609.00	  630.60	-1737.43	  349.58
    120.4700	  604.00	  621.35	-1733.19	  349.90
    120.5700	  541.00	  613.66	-1788.49	  350.23
    120.6700	  586.00	  607.31	-1737.14	  350.57
    120.7700	  553.00	  602.14	-1764.97	  350.92
    120.8700	  551.00	  598.02	-1762.85	  351.28
    120.9700	  584.00	  594.85	-1726.68	  351.64
    121.0700	  578.00	  592.54	-1730.37	  352.01
    121.1700	  584.00	  591.02	-1722.85	  352.39
    121.2700	  589.00	  590.23	-1717.06	  352.78
    121.3700	  597.00	  590.11	-1708.95	  353.18
    121.4700	  607.00	  590.63	-1699.46	  353.59
    121.5700	  573.00	  591.71	-1734.54	  354.00
    121.6700	  600.00	  593.31	-1709.15	  354.42
    121.7700	  570.00	  595.38	-1741.21	  354.86
    121.8700	  588.00	  597.85	-1725.68	  355.30
    121.9700	  613.00	  600.64	-1703.47	  355.75
    122.0700	  623.00	  603.69	-1696.52	  356.20
    122.1700	  613.00	  606.91	-1709.74	  356.67
    122.2700	  600.00	  610.21	-1726.05	  357.15
    122.3700	  619.00	  613.50	-1710.34	  357.63
    122.4700	  625.00	  616.68	-1707.51	  358.13
    122.5700	  644.00	  619.64	-1691.47	  358.63
    122.6700	  640.00	  622.29	-1698.12	  359.15
    122.7700	  606.00	  624.52	-1734.35	  359.67
    122.8700	  636.00	  626.28	-1706.11	  360.20
    122.9700	  639.00	  627.50	-1704.33	  360.74
    123.0700	  589.00	  628.14	-1754.97	  361.29
    123.1700	  657.00	  628.18	-1687.01	  361.86
    123.2700	  638.00	  627.64	-1705.47	  362.43
    123.3700	  655.00	  626.54	-1687.37	  363.01
    123.4700	  648.00	  624.94	-1692.77	  363.60
    123.5700	  629.00	  622.89	-1709.73	  364.20
    123.6700	  645.00	  620.47	-1691.31	  364.81
    123.7700	  647.00	  617.73	-1686.57	  365.43
    123.8700	  612.00	  614.77	-1718.61	  366.07
    123.9700	  592.00	  611.65	-1735.49	  366.71
    124.0700	  642.00	  608.43	-1682.27	  367.36
    124.1700	  591.00	  605.18	-1730.02	  368.02
    124.2700	  643.00	  601.96	-1674.79	  368.70
    124.3700	  609.00	  598.81	-1705.64	  369.38
    124.4700	  612.00	  595.77	-1699.61	  370.08
    124.5700	  631.00	  592.89	-1677.73	  370.78
    124.6700	  578.00	  590.20	-1728.03	  371.50
    124.7700	  592.00	  587.71	-1711.54	  372.22
    124.8700	  553.00	  585.45	-1748.28	  372.96
    124.9700	  598.00	  487.74	-1605.57	  373.71
    125.0700	  533.00	  488.50	-1715.83	  374.47
    125.1700	  557.00	  489.27	-1715.83	  375.25
    125.2700	  595.00	  490.05	-1715.83	  376.03
    125.3700	  563.00	  490.85	-1715.83	  376.82
    125.4700	  581.00	  491.66	-1715.83	  377.63
    125.5700	  608.00	  492.47	-1715.83	  378.45
    125.6700	  582.00	  493.30	-1715.83	  379.28
    125.7700	  542.00	  494.14	-1715.83	  380.12
    125.8700	  583.00	  495.00	-1715.83	  380.97
    125.9700	  569.00	  495.86	-1715.83	  381.84
    126.0700	  570.00	  496.74	-1715.83	  382.72
    126.1700	  606.00	  497.63	-1715.83	  383.61
    126.2700	  582.00	  498.53	-1715.83	  384.51
    126.3700	  585.00	  499.45	-1715.83	  385.42
    126.4700	  646.00	  500.37	-1715.83	  386.35
    126.5700	  612.00	  501.31	-1715.83	  387.29
    126.6700	  621.00	  502.26	-1715.83	  388.24
    126.7700	  581.00	  503.23	-1715.83	  389.20
    126.8700	  603.00	  504.20	-1715.83	  390.18
    126.9700	  591.00	  505.19	-1715.83	  391.17
    127.0700	  613.00	  506.19	-1715.83	  392.17
    127.1700	  626.00	  507.21	-1715.83	  393.18
    127.2700	  593.00	  508.24	-1715.83	  394.21
    127.3700	  654.00	  509.28	-1715.83	  395.25
    127.4700	  635.00	  510.33	-1715.83	  396.31
    127.5700	  684.00	  511.40	-1715.83	  397.38
    127.6700	  610.00	  512.48	-1715.83	  398.46
    127.7700	  682.00	  513.58	-1715.83	  399.55
    127.8700	  744.00	  514.68	-1715.83	  400.66
    127.9700	  723.00	  515.81	-1715.83	  401.78
    128.0700	  748.00	  516.94	-1715.83	  402.92
    128.1700	  730.00	  518.09	-1715.83	  404.07
    128.2700	  705.00	  519.25	-1715.83	  405.23
    128.3700	  771.00	  520.43	-1715.83	  406.41
    128.4700	  765.00	  521.62	-1715.83	  407.60
    128.5700	    0.00	  522.83	-1715.83	  408.80
    128.6700	    0.00	  524.05	-1715.83	  410.02
     12.3099	        	        	        	        	       0	(  0  0  2)	  0  1
     24.9008	        	        	        	        	       0	(  0  0  4)	  0  1
     28.3468	        	        	        	        	       0	(  1  0  0)	  0  1
     29.0444	        	        	        	        	       0	(  1  0  1)	  0  1
     31.0518	        	        	        	        	       0	(  1  0  2)	  0  1
     34.1620	        	        	        	        	       0	(  1  0  3)	  0  1
     37.8083	        	        	        	        	       0	(  0  0  6)	  0  1
     38.1415	        	        	        	        	       0	(  1  0  4)	  0  1
     42.7946	        	        	        	        	       0	(  1  0  5)	  0  1
     47.9820	        	        	        	        	       0	(  1  0  6)	  0  1
     50.3003	        	        	        	        	       0	(  1  1  0)	  0  1
     51.2390	        	        	        	        	       0	(  0  0  8)	  0  1
     52.0245	        	        	        	        	       0	(  1  1  2)	  0  1
     53.6164	        	        	        	        	       0	(  1  0  7)	  0  1
     56.9758	        	        	        	        	       0	(  1  1  4)	  0  1
     58.8045	        	        	        	        	       0	(  2  0  0)	  0  1
     59.1963	        	        	        	        	       0	(  2  0  1)	  0  1
     59.6512	        	        	        	        	       0	(  1  0  8)	  0  1
     60.3626	        	        	        	        	       0	(  2  0  2)	  0  1
     62.2772	        	        	        	        	       0	(  2  0  3)	  0  1
     64.6763	        	        	        	        	       0	(  1  1  6)	  0  1
     64.9034	        	        	        	        	       0	(  2  0  4)	  0  1
     65.4787	        	        	        	        	       0	(  0  0 10)	  0  1
     66.0725	        	        	        	        	       0	(  1  0  9)	  0  1
     68.2002	        	        	        	        	       0	(  2  0  5)	  0  1
     72.1310	        	        	        	        	       0	(  2  0  6)	  0  1
     72.8943	        	        	        	        	       0	(  1  0 10)	  0  1
     74.7224	        	        	        	        	       0	(  1  1  8)	  0  1
     76.6692	        	        	        	        	       0	(  2  0  7)	  0  1
     80.1586	        	        	        	        	       0	(  1  0 11)	  0  1
     80.9727	        	        	        	        	       0	(  0  0 12)	  0  1
     81.0680	        	        	        	        	       0	(  2  1  0)	  0  1
     81.4082	        	        	        	        	       0	(  2  1  1)	  0  1
     81.8044	        	        	        	        	       0	(  2  0  8)	  0  1
     82.4271	        	        	        	        	       0	(  2  1  2)	  0  1
     84.1201	        	        	        	        	       0	(  2  1  3)	  0  1
     86.4823	        	        	        	        	       0	(  2  1  4)	  0  1
     87.0059	        	        	        	        	       0	(  1  1 10)	  0  1
     87.5485	        	        	        	        	       0	(  2  0  9)	  0  1
     87.9409	        	        	        	        	       0	(  1  0 12)	  0  1
     89.5115	        	        	        	        	       0	(  2  1  5)	  0  1
     93.2133	        	        	        	        	       0	(  2  1  6)	  0  1
     93.9433	        	        	        	        	       0	(  2  0 10)	  0  1
     94.9749	        	        	        	        	       0	(  3  0  0)	  0  1
     95.3127	        	        	        	        	       0	(  3  0  1)	  0  1
     96.3272	        	        	        	        	       0	(  3  0  2)	  0  1
     96.3641	        	        	        	        	       0	(  1  0 13)	  0  1
     97.6076	        	        	        	        	       0	(  2  1  7)	  0  1
     98.0228	        	        	        	        	       0	(  3  0  3)	  0  1
     98.5320	        	        	        	        	       0	(  0  0 14)	  0  1
    100.4092	        	        	        	        	       0	(  3  0  4)	  0  1
    101.0747	        	        	        	        	       0	(  2  0 11)	  0  1
    101.8949	        	        	        	        	       0	(  1  1 12)	  0  1
    102.7373	        	        	        	        	       0	(  2  1  8)	  0  1
    103.5054	        	        	        	        	       0	(  3  0  5)	  0  1
    105.6298	        	        	        	        	       0	(  1  0 14)	  0  1
    107.3468	        	        	        	        	       0	(  3  0  6)	  0  1
    108.6838	        	        	        	        	       0	(  2  1  9)	  0  1
    109.0986	        	        	        	        	       0	(  2  0 12)	  0  1
    111.9956	        	        	        	        	       0	(  3  0  7)	  0  1
    115.5939	        	        	        	        	       0	(  2  1 10)	  0  1
    116.0922	        	        	        	        	       0	(  1  0 15)	  0  1
    116.7409	        	        	        	        	       0	(  2  2  0)	  0  1
    117.5606	        	        	        	        	       0	(  3  0  8)	  0  1
    118.2596	        	        	        	        	       0	(  2  2  2)	  0  1
    118.3012	        	        	        	        	       0	(  2  0 13)	  0  1
    120.0581	        	        	        	        	       0	(  0  0 16)	  0  1
    120.7745	        	        	        	        	       0	(  1  1 14)	  0  1
    122.9570	        	        	        	        	       0	(  2  2  4)	  0  1
    123.7405	        	        	        	        	       0	(  2  1 11)	  0  1
    124.2374	        	        	        	        	       0	(  3  0  9)	  0  1
    124.8285	        	        	        	        	       0	(  3  1  0)	  0  1
    125.2400	        	        	        	        	       0	(  3  1  1)	  0  1
    126.4872	        	        	        	        	       0	(  3  1  2)	  0  1
    128.4672	        	        	        	        	       0	(  1  0 16)	  0  1
    128.6123	        	        	        	        	       0	(  3  1  3)	  0  1
    129.2610	        	        	        	        	       0	(  2  0 14)	  0  1
    131.4239	        	        	        	        	       0	(  2  2  6)	  0  1
    131.6993	        	        	        	        	       0	(  3  1  4)	  0  1
    132.4049	        	        	        	        	       0	(  3  0 10)	  0  1
    133.6859	        	        	        	        	       0	(  2  1 12)	  0  1
    135.9038	        	        	        	        	       0	(  3  1  5)	  0  1
    141.5285	        	        	        	        	       0	(  3  1  6)	  0  1
    142.9355	        	        	        	        	       0	(  3  0 11)	  0  1
    143.4667	        	        	        	        	       0	(  2  0 15)	  0  1
    144.7127	        	        	        	        	       0	(  1  0 17)	  0  1
    145.7336	        	        	        	        	       0	(  2  2  8)	  0  1
    146.9163	        	        	        	        	       0	(  2  1 13)	  0  1
    149.2593	        	        	        	        	       0	(  3  1  7)	  0  1
    149.8497	        	        	        	        	       0	(  1  1 16)	  0  1
    154.2984	        	        	        	        	       0	(  0  0 18)	  0  1
    158.9936	        	        	        	        	       0	(  3  0 12)	  0  1
    159.2593	        	        	        	        	       0	(  4  0  0)	  0  1
    160.2371	        	        	        	        	       0	(  4  0  1)	  0  1
    161.4397	        	        	        	        	       0	(  3  1  8)	  0  1
    163.5032	        	        	        	        	       0	(  4  0  2)	  0  1
    170.5700	        	        	        	        	       0	(  2  0 16)	  0  1
    171.2995	        	        	        	        	       0	(  4  0  3)	  0  1
    175.9206	        	        	        	        	       0	(  2  1 14)	  0  1
