MSG Master    CELL:    5.89861   5.89861  23.17369   90.0000   90.0000  120.0000   SPGR: P 63/m m c             TEMP:    762.15
  1   1280     2.52000     0.00000    -0.12434     0.00000     0.00000    0
    96     0     2
       0.00000      10.00000
     125.00000     130.00000
 2Theta	Yobs	Ycal	Yobs-Ycal	Backg	Posr	(hkl)	K
      0.7700	    0.00	  473.73	-1772.69	  360.54
      0.8700	    0.00	  476.09	-1772.69	  362.90
      0.9700	   53.00	  478.43	-1772.69	  365.24
      1.0700	   42.00	  480.74	-1772.69	  367.55
      1.1700	   46.00	  483.03	-1772.69	  369.84
      1.2700	   40.00	  485.29	-1772.69	  372.10
      1.3700	   44.00	  487.54	-1772.69	  374.34
      1.4700	   98.00	  489.75	-1772.69	  376.56
      1.5700	  283.00	  491.95	-1772.69	  378.76
      1.6700	  446.00	  494.12	-1772.69	  380.93
      1.7700	  554.00	  496.27	-1772.69	  383.08
      1.8700	  674.00	  498.39	-1772.69	  385.20
      1.9700	  681.00	  500.49	-1772.69	  387.30
      2.0700	  768.00	  502.57	-1772.69	  389.38
      2.1700	  769.00	  504.63	-1772.69	  391.44
      2.2700	  789.00	  506.66	-1772.69	  393.47
      2.3700	  706.00	  508.67	-1772.69	  395.48
      2.4700	  680.00	  510.66	-1772.69	  397.47
      2.5700	  669.00	  512.63	-1772.69	  399.44
      2.6700	  648.00	  514.58	-1772.69	  401.39
      2.7700	  638.00	  516.50	-1772.69	  403.31
      2.8700	  648.00	  518.40	-1772.69	  405.21
      2.9700	  623.00	  520.28	-1772.69	  407.09
      3.0700	  598.00	  522.14	-1772.69	  408.95
      3.1700	  585.00	  523.98	-1772.69	  410.79
      3.2700	  724.00	  525.80	-1772.69	  412.61
      3.3700	  842.00	  527.59	-1772.69	  414.40
      3.4700	 1038.00	  529.37	-1772.69	  416.18
      3.5700	 1130.00	  531.12	-1772.69	  417.93
      3.6700	 1214.00	  532.85	-1772.69	  419.66
      3.7700	 1318.00	  534.57	-1772.69	  421.38
      3.8700	 1400.00	  536.26	-1772.69	  423.07
      3.9700	 1433.00	  537.93	-1772.69	  424.74
      4.0700	 1606.00	  539.58	-1772.69	  426.39
      4.1700	 1580.00	  541.22	-1772.69	  428.02
      4.2700	 1555.00	  542.83	-1772.69	  429.64
      4.3700	 1519.00	  544.42	-1772.69	  431.23
      4.4700	 1535.00	  545.99	-1772.69	  432.80
      4.5700	 1445.00	  547.55	-1772.69	  434.36
      4.6700	 1400.00	  549.08	-1772.69	  435.89
      4.7700	 1372.00	  550.60	-1772.69	  437.41
      4.8700	 1246.00	  552.09	-1772.69	  438.90
      4.9700	 1265.00	  553.57	-1772.69	  440.38
      5.0700	 1231.00	  555.03	-1772.69	  441.84
      5.1700	 1202.00	  556.47	-1772.69	  443.27
      5.2700	 1227.00	  557.89	-1772.69	  444.70
      5.3700	 1144.00	  559.29	-1772.69	  446.10
      5.4700	 1061.00	  560.67	-1772.69	  447.48
      5.5700	 1117.00	  562.04	-1772.69	  448.85
      5.6700	  985.00	  563.38	-1772.69	  450.19
      5.7700	  954.00	  564.71	-1772.69	  451.52
      5.8700	 1014.00	  566.02	-1772.69	  452.83
      5.9700	  983.00	  567.32	-1772.69	  454.13
      6.0700	  997.00	  568.59	-1772.69	  455.40
      6.1700	  885.00	  569.85	-1772.69	  456.66
      6.2700	  885.00	  571.09	-1772.69	  457.90
      6.3700	  905.00	  572.32	-1772.69	  459.13
      6.4700	  874.00	  573.52	-1772.69	  460.33
      6.5700	  887.00	  574.71	-1772.69	  461.52
      6.6700	  862.00	  575.88	-1772.69	  462.69
      6.7700	  832.00	  577.04	-1772.69	  463.85
      6.8700	  816.00	  578.18	-1772.69	  464.99
      6.9700	  813.00	  579.30	-1772.69	  466.11
      7.0700	  832.00	  580.41	-1772.69	  467.22
      7.1700	  820.00	  581.50	-1772.69	  468.31
      7.2700	  860.00	  582.57	-1772.69	  469.38
      7.3700	  786.00	  583.63	-1772.69	  470.44
      7.4700	  829.00	  584.67	-1772.69	  471.48
      7.5700	  762.00	  585.69	-1772.69	  472.50
      7.6700	  736.00	  586.70	-1772.69	  473.51
      7.7700	  781.00	  587.69	-1772.69	  474.50
      7.8700	  763.00	  588.67	-1772.69	  475.48
      7.9700	  762.00	  589.63	-1772.69	  476.44
      8.0700	  675.00	  590.58	-1772.69	  477.39
      8.1700	  720.00	  591.51	-1772.69	  478.32
      8.2700	  688.00	  592.43	-1772.69	  479.24
      8.3700	  711.00	  593.33	-1772.69	  480.14
      8.4700	  769.00	  594.22	-1772.69	  481.03
      8.5700	  693.00	  595.09	-1772.69	  481.90
      8.6700	  759.00	  595.94	-1772.69	  482.75
      8.7700	  749.00	  596.79	-1772.69	  483.60
      8.8700	  684.00	  597.61	-1772.69	  484.42
      8.9700	  684.00	  598.43	-1772.69	  485.24
      9.0700	  688.00	  599.23	-1772.69	  486.04
      9.1700	  627.00	  600.01	-1772.69	  486.82
      9.2700	  705.00	  600.78	-1772.69	  487.59
      9.3700	  669.00	  601.54	-1772.69	  488.35
      9.4700	  712.00	  602.28	-1772.69	  489.09
      9.5700	  677.00	  603.01	-1772.69	  489.82
      9.6700	  662.00	  603.72	-1772.69	  490.53
      9.7700	  647.00	  604.43	-1772.69	  491.24
      9.8700	  681.00	  605.11	-1772.69	  491.92
      9.9700	  649.00	  605.79	-1772.69	  492.60
     10.0700	  689.00	  608.28	-1691.97	  493.26
     10.1700	  676.00	  609.14	-1705.83	  493.91
     10.2700	  692.00	  610.04	-1690.73	  494.54
     10.3700	  665.00	  610.98	-1718.67	  495.17
     10.4700	  643.00	  612.01	-1741.70	  495.77
     10.5700	  670.00	  613.18	-1715.87	  496.37
     10.6700	  646.00	  614.56	-1741.25	  496.96
     10.7700	  654.00	  616.24	-1734.93	  497.53
     10.8700	  682.00	  618.31	-1709.00	  498.09
     10.9700	  634.00	  620.82	-1759.51	  498.63
     11.0700	  681.00	  623.79	-1715.48	  499.17
     11.1700	  675.00	  627.21	-1724.90	  499.69
     11.2700	  645.00	  631.14	-1758.83	  500.20
     11.3700	  611.00	  635.62	-1797.31	  500.70
     11.4700	  648.00	  640.80	-1765.49	  501.18
     11.5700	  657.00	  646.86	-1762.55	  501.66
     11.6700	  672.00	  654.10	-1754.79	  502.12
     11.7700	  690.00	  662.87	-1745.55	  502.57
     11.8700	  683.00	  673.43	-1763.12	  503.01
     11.9700	  716.00	  685.60	-1742.29	  503.44
     12.0700	  701.00	  698.12	-1769.81	  503.85
     12.1700	  767.00	  708.02	-1713.71	  504.26
     12.2700	  777.00	  710.39	-1706.08	  504.65
     12.3700	  753.00	  701.10	-1720.78	  505.04
     12.4700	  682.00	  683.01	-1773.70	  505.41
     12.5700	  706.00	  664.23	-1730.91	  505.77
     12.6700	  694.00	  649.57	-1728.26	  506.12
     12.7700	  654.00	  639.77	-1758.46	  506.46
     12.8700	  662.00	  633.82	-1744.51	  506.79
     12.9700	  614.00	  630.38	-1789.07	  507.11
     13.0700	  625.00	  628.39	-1776.07	  507.42
     13.1700	  649.00	  627.17	-1750.86	  507.71
     13.2700	  602.00	  626.38	-1797.07	  508.00
     13.3700	  549.00	  625.89	-1849.58	  508.28
     13.4700	  585.00	  625.53	-1813.22	  508.55
     13.5700	  641.00	  625.29	-1756.98	  508.80
     13.6700	  619.00	  625.13	-1778.82	  509.05
     13.7700	  578.00	  625.04	-1819.73	  509.29
     13.8700	  641.00	  625.00	-1756.69	  509.52
     13.9700	  613.00	  624.98	-1784.67	  509.74
     14.0700	  606.00	  625.00	-1791.69	  509.94
     14.1700	  640.00	  625.03	-1757.72	  510.14
     14.2700	  606.00	  625.08	-1791.77	  510.33
     14.3700	  606.00	  625.13	-1791.82	  510.51
     14.4700	  607.00	  625.20	-1790.89	  510.69
     14.5700	  548.00	  625.27	-1849.95	  510.85
     14.6700	  569.00	  625.33	-1829.02	  511.00
     14.7700	  619.00	  625.40	-1779.09	  511.15
     14.8700	  599.00	  625.47	-1799.16	  511.28
     14.9700	  555.00	  625.54	-1843.23	  511.41
     15.0700	  605.00	  625.61	-1793.30	  511.53
     15.1700	  604.00	  625.67	-1794.36	  511.64
     15.2700	  622.00	  625.73	-1776.41	  511.74
     15.3700	  574.00	  625.78	-1824.47	  511.83
     15.4700	  568.00	  625.83	-1830.52	  511.91
     15.5700	  622.00	  625.87	-1776.56	  511.99
     15.6700	  567.00	  625.91	-1831.60	  512.06
     15.7700	  589.00	  625.94	-1809.63	  512.12
     15.8700	  579.00	  625.97	-1819.66	  512.17
     15.9700	  570.00	  625.99	-1828.68	  512.21
     16.0700	  560.00	  626.00	-1838.69	  512.25
     16.1700	  621.00	  626.01	-1777.70	  512.27
     16.2700	  551.00	  626.01	-1847.70	  512.29
     16.3700	  663.00	  626.01	-1735.70	  512.30
     16.4700	  610.00	  626.00	-1788.69	  512.31
     16.5700	  627.00	  625.98	-1771.67	  512.31
     16.6700	  623.00	  625.96	-1775.65	  512.30
     16.7700	  567.00	  625.93	-1831.62	  512.28
     16.8700	  631.00	  625.89	-1767.58	  512.25
     16.9700	  602.00	  625.85	-1796.54	  512.22
     17.0700	  621.00	  625.80	-1777.49	  512.18
     17.1700	  603.00	  625.75	-1795.44	  512.13
     17.2700	  596.00	  625.69	-1802.38	  512.08
     17.3700	  581.00	  625.74	-1817.43	  512.02
     17.4700	  613.00	  625.67	-1785.36	  511.95
     17.5700	  567.00	  625.59	-1831.28	  511.88
     17.6700	  594.00	  625.50	-1804.19	  511.80
     17.7700	  695.00	  625.56	-1703.25	  511.71
     17.8700	  601.00	  625.46	-1797.15	  511.62
     17.9700	  546.00	  625.36	-1852.05	  511.52
     18.0700	  570.00	  625.26	-1827.95	  511.41
     18.1700	  624.00	  625.15	-1773.84	  511.30
     18.2700	  578.00	  625.03	-1819.72	  511.18
     18.3700	  585.00	  624.91	-1812.60	  511.05
     18.4700	  593.00	  624.78	-1804.47	  510.92
     18.5700	  654.00	  624.65	-1743.34	  510.78
     18.6700	  606.00	  624.51	-1791.20	  510.64
     18.7700	  599.00	  624.37	-1798.06	  510.49
     18.8700	  619.00	  624.22	-1777.91	  510.33
     18.9700	  588.00	  624.06	-1808.75	  510.17
     19.0700	  668.00	  623.90	-1728.59	  510.00
     19.1700	  590.00	  623.74	-1806.43	  509.83
     19.2700	  625.00	  623.57	-1771.26	  509.65
     19.3700	  622.00	  623.44	-1774.13	  509.47
     19.4700	  574.00	  623.26	-1821.95	  509.28
     19.5700	  582.00	  623.08	-1813.77	  509.08
     19.6700	  624.00	  622.89	-1771.58	  508.88
     19.7700	  569.00	  622.70	-1826.39	  508.67
     19.8700	  581.00	  622.50	-1814.19	  508.46
     19.9700	  605.00	  622.30	-1789.99	  508.25
     20.0700	  619.00	  622.10	-1775.79	  508.03
     20.1700	  604.00	  621.89	-1790.58	  507.80
     20.2700	  596.00	  621.68	-1798.37	  507.57
     20.3700	  618.00	  621.46	-1776.15	  507.33
     20.4700	  593.00	  621.24	-1800.93	  507.09
     20.5700	  600.00	  621.02	-1793.71	  506.85
     20.6700	  594.00	  620.79	-1799.48	  506.60
     20.7700	  591.00	  620.56	-1802.25	  506.34
     20.8700	  563.00	  620.33	-1830.02	  506.08
     20.9700	  607.00	  620.09	-1785.78	  505.82
     21.0700	  596.00	  619.85	-1796.54	  505.55
     21.1700	  600.00	  619.61	-1792.30	  505.28
     21.2700	  553.00	  619.37	-1839.06	  505.00
     21.3700	  596.00	  619.12	-1795.81	  504.72
     21.4700	  573.00	  618.87	-1818.56	  504.44
     21.5700	  580.00	  618.62	-1811.31	  504.15
     21.6700	  613.00	  618.38	-1778.06	  503.85
     21.7700	  572.00	  618.13	-1818.81	  503.55
     21.8700	  602.00	  617.87	-1788.56	  503.25
     21.9700	  644.00	  617.78	-1746.47	  502.95
     22.0700	  576.00	  617.54	-1814.23	  502.64
     22.1700	  579.00	  617.29	-1810.98	  502.32
     22.2700	  543.00	  617.05	-1846.74	  502.01
     22.3700	  606.00	  616.81	-1783.50	  501.69
     22.4700	  587.00	  616.58	-1802.27	  501.36
     22.5700	  583.00	  616.35	-1806.04	  501.03
     22.6700	  603.00	  616.13	-1785.82	  500.70
     22.7700	  617.00	  615.91	-1771.60	  500.37
     22.8700	  586.00	  615.71	-1802.40	  500.03
     22.9700	  587.00	  615.53	-1801.22	  499.69
     23.0700	  662.00	  615.36	-1726.05	  499.34
     23.1700	  633.00	  615.22	-1754.91	  498.99
     23.2700	  603.00	  615.11	-1784.80	  498.64
     23.3700	  588.00	  615.03	-1799.72	  498.29
     23.4700	  641.00	  614.96	-1746.65	  497.93
     23.5700	  605.00	  615.00	-1782.69	  497.57
     23.6700	  625.00	  615.15	-1762.83	  497.21
     23.7700	  664.00	  615.43	-1724.11	  496.84
     23.8700	  567.00	  615.92	-1821.61	  496.47
     23.9700	  631.00	  616.78	-1758.47	  496.10
     24.0700	  582.00	  618.21	-1808.90	  495.72
     24.1700	  593.00	  620.58	-1800.27	  495.35
     24.2700	  591.00	  624.39	-1806.07	  494.97
     24.3700	  618.00	  630.17	-1784.86	  494.58
     24.4700	  654.00	  638.35	-1757.04	  494.20
     24.5700	  672.00	  648.96	-1749.65	  493.81
     24.6700	  701.00	  661.19	-1732.88	  493.42
     24.7700	  709.00	  672.94	-1736.63	  493.02
     24.8700	  689.00	  680.41	-1764.10	  492.63
     24.9700	  767.00	  679.00	-1684.68	  492.23
     25.0700	  699.00	  667.85	-1741.53	  491.83
     25.1700	  681.00	  652.38	-1744.07	  491.43
     25.2700	  749.00	  638.29	-1661.98	  491.03
     25.3700	  673.00	  627.77	-1727.46	  490.62
     25.4700	  645.00	  620.78	-1748.47	  490.21
     25.5700	  638.00	  616.43	-1751.12	  489.80
     25.6700	  682.00	  613.77	-1704.46	  489.39
     25.7700	  668.00	  612.08	-1716.77	  488.97
     25.8700	  656.00	  610.94	-1727.63	  488.56
     25.9700	  738.00	  610.12	-1644.81	  488.14
     26.0700	  643.00	  609.52	-1739.21	  487.72
     26.1700	  683.00	  609.09	-1698.78	  487.30
     26.2700	  671.00	  608.80	-1710.49	  486.87
     26.3700	  674.00	  608.64	-1707.33	  486.45
     26.4700	  670.00	  608.61	-1711.30	  486.02
     26.5700	  705.00	  608.72	-1676.41	  485.59
     26.6700	  683.00	  608.97	-1698.66	  485.16
     26.7700	  630.00	  609.39	-1752.08	  484.73
     26.8700	  634.00	  610.01	-1748.70	  484.30
     26.9700	  692.00	  610.88	-1691.57	  483.86
     27.0700	  636.00	  612.07	-1748.76	  483.43
     27.1700	  732.00	  613.68	-1654.37	  482.99
     27.2700	  694.00	  615.89	-1694.58	  482.55
     27.3700	  736.00	  619.03	-1655.72	  482.11
     27.4700	  735.00	  623.71	-1661.40	  481.67
     27.5700	  678.00	  631.05	-1725.74	  481.23
     27.6700	  696.00	  642.93	-1719.62	  480.79
     27.7700	  700.00	  662.18	-1734.87	  480.34
     27.8700	  695.00	  692.21	-1769.90	  479.90
     27.9700	  767.00	  735.59	-1741.28	  479.45
     28.0700	  828.00	  791.79	-1736.48	  479.00
     28.1700	  914.00	  854.65	-1713.34	  478.55
     28.2700	  992.00	  910.34	-1691.02	  478.11
     28.3700	  978.00	  938.73	-1733.42	  477.66
     28.4700	 1040.00	  928.40	-1661.09	  477.20
     28.5700	  990.00	  898.84	-1681.53	  476.75
     28.6700	  922.00	  882.80	-1733.49	  476.30
     28.7700	  859.00	  895.23	-1808.92	  475.85
     28.8700	  903.00	  930.43	-1800.12	  475.39
     28.9700	  949.00	  967.04	-1790.73	  474.94
     29.0700	 1015.00	  974.48	-1732.17	  474.49
     29.1700	  966.00	  932.02	-1738.71	  474.03
     29.2700	  886.00	  854.66	-1741.35	  473.57
     29.3700	  806.00	  775.43	-1742.12	  473.12
     29.4700	  702.00	  713.04	-1783.72	  472.66
     29.5700	  721.00	  670.80	-1722.49	  472.20
     29.6700	  692.00	  644.93	-1725.62	  471.75
     29.7700	  767.00	  629.88	-1635.57	  471.29
     29.8700	  722.00	  621.05	-1671.74	  470.83
     29.9700	  715.00	  615.64	-1673.33	  470.37
     30.0700	  700.00	  612.28	-1684.96	  469.91
     30.1700	  710.00	  610.45	-1673.14	  469.46
     30.2700	  707.00	  610.23	-1675.91	  469.00
     30.3700	  707.00	  612.09	-1677.78	  468.54
     30.4700	  688.00	  616.98	-1701.66	  468.08
     30.5700	  689.00	  626.15	-1709.84	  467.62
     30.6700	  659.00	  640.67	-1754.35	  467.16
     30.7700	  703.00	  660.37	-1730.06	  466.70
     30.8700	  705.00	  682.83	-1750.52	  466.24
     30.9700	  731.00	  702.51	-1744.20	  465.78
     31.0700	  695.00	  711.11	-1788.80	  465.32
     31.1700	  695.00	  701.96	-1779.65	  464.86
     31.2700	  740.00	  678.53	-1711.22	  464.40
     31.3700	  659.00	  651.75	-1765.44	  463.95
     31.4700	  658.00	  629.19	-1743.88	  463.49
     31.5700	  706.00	  613.04	-1679.73	  463.03
     31.6700	  592.00	  602.65	-1783.34	  462.57
     31.7700	  660.00	  596.36	-1709.05	  462.11
     31.8700	  628.00	  592.57	-1737.26	  461.66
     31.9700	  586.00	  590.18	-1776.87	  461.20
     32.0700	  566.00	  588.57	-1795.26	  460.74
     32.1700	  630.00	  587.43	-1730.12	  460.29
     32.2700	  622.00	  586.63	-1737.32	  459.83
     32.3700	  596.00	  586.12	-1762.81	  459.38
     32.4700	  554.00	  585.85	-1804.54	  458.92
     32.5700	  629.00	  585.84	-1729.53	  458.47
     32.6700	  604.00	  586.11	-1754.79	  458.02
     32.7700	  616.00	  586.67	-1743.36	  457.56
     32.8700	  613.00	  587.61	-1747.30	  457.11
     32.9700	  611.00	  589.05	-1750.74	  456.66
     33.0700	  577.00	  591.10	-1786.79	  456.21
     33.1700	  608.00	  594.10	-1758.78	  455.76
     33.2700	  613.00	  598.64	-1758.33	  455.31
     33.3700	  644.00	  605.85	-1734.54	  454.86
     33.4700	  613.00	  617.77	-1777.46	  454.41
     33.5700	  605.00	  637.60	-1805.29	  453.96
     33.6700	  680.00	  669.63	-1762.32	  453.52
     33.7700	  687.00	  717.96	-1803.65	  453.07
     33.8700	  779.00	  783.65	-1777.34	  452.63
     33.9700	  880.00	  860.93	-1753.62	  452.18
     34.0700	  948.00	  934.17	-1758.86	  451.74
     34.1700	 1060.00	  978.11	-1690.80	  451.30
     34.2700	 1049.00	  968.22	-1691.91	  450.86
     34.3700	  990.00	  905.77	-1688.46	  450.42
     34.4700	  866.00	  821.17	-1727.86	  449.98
     34.5700	  730.00	  742.84	-1785.53	  449.54
     34.6700	  688.00	  682.77	-1767.45	  449.11
     34.7700	  655.00	  641.93	-1759.62	  448.67
     34.8700	  633.00	  616.35	-1756.04	  448.23
     34.9700	  643.00	  600.91	-1730.60	  447.80
     35.0700	  607.00	  591.40	-1757.09	  447.37
     35.1700	  562.00	  585.13	-1795.82	  446.94
     35.2700	  564.00	  580.64	-1789.33	  446.51
     35.3700	  546.00	  577.17	-1803.86	  446.08
     35.4700	  584.00	  574.87	-1763.56	  445.65
     35.5700	  549.00	  572.57	-1796.26	  445.23
     35.6700	  543.00	  570.62	-1800.31	  444.80
     35.7700	  569.00	  568.94	-1772.63	  444.38
     35.8700	  541.00	  567.49	-1799.18	  443.96
     35.9700	  551.00	  566.20	-1787.89	  443.53
     36.0700	  570.00	  565.06	-1767.75	  443.11
     36.1700	  530.00	  564.03	-1806.72	  442.70
     36.2700	  536.00	  563.10	-1799.79	  442.28
     36.3700	  497.00	  562.26	-1837.95	  441.86
     36.4700	  566.00	  561.46	-1768.14	  441.45
     36.5700	  539.00	  560.76	-1794.45	  441.04
     36.6700	  548.00	  560.13	-1784.82	  440.63
     36.7700	  569.00	  559.57	-1763.25	  440.22
     36.8700	  501.00	  559.09	-1830.78	  439.81
     36.9700	  545.00	  558.72	-1786.41	  439.40
     37.0700	  536.00	  558.51	-1795.20	  439.00
     37.1700	  528.00	  558.73	-1803.42	  438.59
     37.2700	  556.00	  559.16	-1775.85	  438.19
     37.3700	  553.00	  560.13	-1779.82	  437.79
     37.4700	  502.00	  561.77	-1832.46	  437.39
     37.5700	  571.00	  564.12	-1765.81	  437.00
     37.6700	  558.00	  566.91	-1781.60	  436.60
     37.7700	  578.00	  569.57	-1764.26	  436.21
     37.8700	  572.00	  571.17	-1771.85	  435.82
     37.9700	  574.00	  570.90	-1769.59	  435.42
     38.0700	  554.00	  568.85	-1787.54	  435.04
     38.1700	  518.00	  565.81	-1820.49	  434.65
     38.2700	  569.00	  562.44	-1766.13	  434.26
     38.3700	  529.00	  559.15	-1802.84	  433.88
     38.4700	  544.00	  556.28	-1784.97	  433.50
     38.5700	  497.00	  554.01	-1829.70	  433.12
     38.6700	  546.00	  552.30	-1778.99	  432.74
     38.7700	  535.00	  551.03	-1788.72	  432.36
     38.8700	  568.00	  550.08	-1754.77	  431.99
     38.9700	  510.00	  549.33	-1812.02	  431.62
     39.0700	  570.00	  548.71	-1751.40	  431.25
     39.1700	  560.00	  548.22	-1760.91	  430.88
     39.2700	  482.00	  547.73	-1838.42	  430.51
     39.3700	  560.00	  547.27	-1759.96	  430.14
     39.4700	  518.00	  546.84	-1801.53	  429.78
     39.5700	  530.00	  546.32	-1789.01	  429.42
     39.6700	  528.00	  545.94	-1790.63	  429.06
     39.7700	  532.00	  545.57	-1786.26	  428.70
     39.8700	  552.00	  545.21	-1765.90	  428.35
     39.9700	  544.00	  545.43	-1774.12	  427.99
     40.0700	  541.00	  545.11	-1776.80	  427.64
     40.1700	  524.00	  544.81	-1793.50	  427.29
     40.2700	  507.00	  544.52	-1810.21	  426.94
     40.3700	  545.00	  544.25	-1771.94	  426.60
     40.4700	  531.00	  544.00	-1785.68	  426.25
     40.5700	  519.00	  543.62	-1797.31	  425.91
     40.6700	  528.00	  543.41	-1788.10	  425.57
     40.7700	  477.00	  543.21	-1838.90	  425.23
     40.8700	  543.00	  543.05	-1772.73	  424.90
     40.9700	  579.00	  542.91	-1736.60	  424.57
     41.0700	  519.00	  542.80	-1796.49	  424.23
     41.1700	  511.00	  542.74	-1804.43	  423.90
     41.2700	  513.00	  542.72	-1802.41	  423.58
     41.3700	  534.00	  542.77	-1781.46	  423.25
     41.4700	  491.00	  542.89	-1824.58	  422.93
     41.5700	  493.00	  543.17	-1822.86	  422.61
     41.6700	  474.00	  543.52	-1842.21	  422.29
     41.7700	  542.00	  544.13	-1774.82	  421.97
     41.8700	  570.00	  545.01	-1747.70	  421.66
     41.9700	  518.00	  546.53	-1801.22	  421.34
     42.0700	  536.00	  548.89	-1785.58	  421.03
     42.1700	  521.00	  552.83	-1804.52	  420.72
     42.2700	  529.00	  559.20	-1802.89	  420.42
     42.3700	  564.00	  568.92	-1777.61	  420.11
     42.4700	  582.00	  582.61	-1773.29	  419.81
     42.5700	  556.00	  599.96	-1816.65	  419.51
     42.6700	  627.00	  619.26	-1764.95	  419.21
     42.7700	  608.00	  635.88	-1800.57	  418.92
     42.8700	  628.00	  644.20	-1788.89	  418.63
     42.9700	  610.00	  639.97	-1802.66	  418.34
     43.0700	  597.00	  624.93	-1800.62	  418.05
     43.1700	  571.00	  605.22	-1806.91	  417.76
     43.2700	  547.00	  586.24	-1811.93	  417.48
     43.3700	  534.00	  570.69	-1809.38	  417.19
     43.4700	  549.00	  559.27	-1782.96	  416.91
     43.5700	  534.00	  551.52	-1790.21	  416.64
     43.6700	  509.00	  546.55	-1810.24	  416.36
     43.7700	  584.00	  543.41	-1732.09	  416.09
     43.8700	  526.00	  541.37	-1788.06	  415.82
     43.9700	  541.00	  540.17	-1771.86	  415.55
     44.0700	  554.00	  539.14	-1757.83	  415.28
     44.1700	  516.00	  538.33	-1795.02	  415.02
     44.2700	  553.00	  537.67	-1757.36	  414.76
     44.3700	  516.00	  537.12	-1793.81	  414.50
     44.4700	  548.00	  536.66	-1761.35	  414.24
     44.5700	  503.00	  536.27	-1805.95	  413.98
     44.6700	  520.00	  535.93	-1788.62	  413.73
     44.7700	  542.00	  535.65	-1766.34	  413.48
     44.8700	  541.00	  535.41	-1767.10	  413.23
     44.9700	  545.00	  535.21	-1762.90	  412.99
     45.0700	  529.00	  535.05	-1778.74	  412.74
     45.1700	  520.00	  534.92	-1787.61	  412.50
     45.2700	  516.00	  534.82	-1791.51	  412.26
     45.3700	  559.00	  534.83	-1748.51	  412.03
     45.4700	  523.00	  534.79	-1784.48	  411.79
     45.5700	  542.00	  534.80	-1765.49	  411.56
     45.6700	  516.00	  534.86	-1791.55	  411.33
     45.7700	  496.00	  534.92	-1811.61	  411.10
     45.8700	  534.00	  535.02	-1773.71	  410.88
     45.9700	  557.00	  535.15	-1750.84	  410.65
     46.0700	  557.00	  535.32	-1751.01	  410.43
     46.1700	  554.00	  535.53	-1754.22	  410.21
     46.2700	  525.00	  535.80	-1783.49	  410.00
     46.3700	  536.00	  536.12	-1772.81	  409.78
     46.4700	  572.00	  536.51	-1737.20	  409.57
     46.5700	  522.00	  536.81	-1787.50	  409.36
     46.6700	  514.00	  537.37	-1796.06	  409.16
     46.7700	  524.00	  538.03	-1786.72	  408.95
     46.8700	  556.00	  538.84	-1755.53	  408.75
     46.9700	  491.00	  539.85	-1821.54	  408.55
     47.0700	  525.00	  541.17	-1788.86	  408.35
     47.1700	  547.00	  542.99	-1768.68	  408.16
     47.2700	  539.00	  545.60	-1779.29	  407.96
     47.3700	  574.00	  549.46	-1748.14	  407.77
     47.4700	  548.00	  555.10	-1779.79	  407.58
     47.5700	  593.00	  563.07	-1742.76	  407.40
     47.6700	  535.00	  573.66	-1811.35	  407.21
     47.7700	  583.00	  586.64	-1776.33	  407.03
     47.8700	  610.00	  601.26	-1763.95	  406.85
     47.9700	  587.00	  614.21	-1799.89	  406.67
     48.0700	  595.00	  622.44	-1800.13	  406.50
     48.1700	  633.00	  623.18	-1762.87	  406.33
     48.2700	  619.00	  616.80	-1770.48	  406.16
     48.3700	  623.00	  606.62	-1756.31	  405.99
     48.4700	  592.00	  596.22	-1776.91	  405.82
     48.5700	  612.00	  587.80	-1748.49	  405.66
     48.6700	  623.00	  582.35	-1732.04	  405.50
     48.7700	  587.00	  580.05	-1765.74	  405.34
     48.8700	  557.00	  580.68	-1796.37	  405.18
     48.9700	  585.00	  583.91	-1771.60	  405.03
     49.0700	  566.00	  589.55	-1796.24	  404.88
     49.1700	  535.00	  597.81	-1835.50	  404.73
     49.2700	  603.00	  609.55	-1779.24	  404.58
     49.3700	  574.00	  626.78	-1825.46	  404.43
     49.4700	  612.00	  653.41	-1814.10	  404.29
     49.5700	  606.00	  696.26	-1862.95	  404.15
     49.6700	  651.00	  765.68	-1887.37	  404.01
     49.7700	  781.00	  874.94	-1866.63	  403.87
     49.8700	  878.00	 1037.30	-1931.99	  403.74
     49.9700	 1238.00	 1260.31	-1794.99	  403.61
     50.0700	 1559.00	 1537.92	-1751.61	  403.48
     50.1700	 1819.00	 1842.15	-1795.84	  403.35
     50.2700	 2218.00	 2115.79	-1670.48	  403.23
     50.3700	 2478.00	 2278.21	-1572.90	  403.10
     50.4700	 2385.00	 2263.91	-1651.60	  402.98
     50.5700	 2094.00	 2077.52	-1756.21	  402.86
     50.6700	 1786.00	 1793.25	-1779.94	  402.75
     50.7700	 1447.00	 1492.69	-1818.38	  402.63
     50.8700	 1073.00	 1228.35	-1928.04	  402.52
     50.9700	  929.00	 1023.30	-1866.99	  402.41
     51.0700	  805.00	  879.85	-1847.54	  402.30
     51.1700	  717.00	  787.79	-1843.48	  402.19
     51.2700	  667.00	  731.88	-1837.57	  402.09
     51.3700	  628.00	  697.23	-1841.91	  401.99
     51.4700	  635.00	  672.74	-1810.43	  401.89
     51.5700	  644.00	  652.58	-1781.27	  401.79
     51.6700	  629.00	  634.97	-1778.66	  401.70
     51.7700	  648.00	  619.88	-1744.57	  401.60
     51.8700	  597.00	  607.54	-1783.23	  401.51
     51.9700	  594.00	  597.99	-1776.68	  401.42
     52.0700	  616.00	  591.05	-1747.74	  401.34
     52.1700	  630.00	  586.41	-1729.10	  401.25
     52.2700	  616.00	  583.75	-1740.44	  401.17
     52.3700	  621.00	  582.82	-1734.51	  401.09
     52.4700	  594.00	  583.53	-1762.22	  401.01
     52.5700	  593.00	  586.09	-1765.78	  400.93
     52.6700	  586.00	  591.13	-1777.82	  400.86
     52.7700	  600.00	  599.86	-1772.55	  400.79
     52.8700	  623.00	  614.27	-1763.96	  400.72
     52.9700	  641.00	  637.26	-1768.95	  400.65
     53.0700	  662.00	  672.36	-1783.05	  400.58
     53.1700	  748.00	  723.07	-1747.76	  400.52
     53.2700	  841.00	  791.70	-1723.39	  400.46
     53.3700	  926.00	  877.48	-1724.17	  400.40
     53.4700	 1034.00	  974.97	-1713.66	  400.34
     53.5700	 1127.00	 1071.81	-1717.50	  400.28
     53.6700	 1196.00	 1147.76	-1724.45	  400.23
     53.7700	 1230.00	 1179.63	-1722.32	  400.17
     53.8700	 1117.00	 1155.09	-1810.77	  400.12
     53.9700	 1116.00	 1083.52	-1740.20	  400.07
     54.0700	  995.00	  988.08	-1765.77	  400.03
     54.1700	  911.00	  890.22	-1751.91	  399.98
     54.2700	  793.00	  803.27	-1782.96	  399.94
     54.3700	  734.00	  733.33	-1772.02	  399.90
     54.4700	  666.00	  681.47	-1788.16	  399.86
     54.5700	  689.00	  645.64	-1729.33	  399.82
     54.6700	  632.00	  622.39	-1763.08	  399.79
     54.7700	  620.00	  608.10	-1760.79	  399.76
     54.8700	  620.00	  599.80	-1752.49	  399.72
     54.9700	  571.00	  595.35	-1797.04	  399.69
     55.0700	  579.00	  593.44	-1787.13	  399.67
     55.1700	  653.00	  593.32	-1713.01	  399.64
     55.2700	  610.00	  594.64	-1757.33	  399.62
     55.3700	  632.00	  597.25	-1737.94	  399.59
     55.4700	  629.00	  601.19	-1744.88	  399.57
     55.5700	  611.00	  606.61	-1768.30	  399.55
     55.6700	  636.00	  613.84	-1750.53	  399.54
     55.7700	  621.00	  623.50	-1775.18	  399.52
     55.8700	  674.00	  636.73	-1735.42	  399.51
     55.9700	  593.00	  655.64	-1835.33	  399.50
     56.0700	  656.00	  683.84	-1800.53	  399.49
     56.1700	  693.00	  727.11	-1806.80	  399.48
     56.2700	  756.00	  793.80	-1810.49	  399.47
     56.3700	  882.00	  894.46	-1785.15	  399.47
     56.4700	 1010.00	 1040.19	-1802.88	  399.46
     56.5700	 1162.00	 1239.50	-1850.19	  399.46
     56.6700	 1461.00	 1493.76	-1805.45	  399.46
     56.7700	 1791.00	 1792.19	-1773.88	  399.46
     56.8700	 2041.00	 2106.35	-1838.04	  399.47
     56.9700	 2357.00	 2386.40	-1802.09	  399.47
     57.0700	 2558.00	 2564.65	-1779.34	  399.48
     57.1700	 2597.00	 2583.18	-1758.87	  399.48
     57.2700	 2421.00	 2434.98	-1786.67	  399.49
     57.3700	 2159.00	 2170.89	-1784.58	  399.51
     57.4700	 1844.00	 1860.62	-1789.31	  399.52
     57.5700	 1471.00	 1559.04	-1860.73	  399.53
     57.6700	 1214.00	 1298.45	-1857.14	  399.55
     57.7700	 1057.00	 1092.74	-1808.43	  399.57
     57.8700	  910.00	  942.83	-1805.52	  399.59
     57.9700	  870.00	  841.79	-1744.48	  399.61
     58.0700	  807.00	  779.74	-1745.42	  399.63
     58.1700	  731.00	  747.24	-1788.93	  399.65
     58.2700	  728.00	  737.35	-1782.03	  399.68
     58.3700	  766.00	  745.90	-1752.59	  399.70
     58.4700	  748.00	  770.87	-1795.56	  399.73
     58.5700	  856.00	  811.24	-1727.93	  399.76
     58.6700	  919.00	  865.56	-1719.25	  399.79
     58.7700	  953.00	  930.63	-1750.31	  399.82
     58.8700	 1022.00	 1000.58	-1751.27	  399.86
     58.9700	 1128.00	 1067.84	-1712.53	  399.89
     59.0700	 1188.00	 1126.17	-1710.86	  399.93
     59.1700	 1170.00	 1171.76	-1774.45	  399.96
     59.2700	 1280.00	 1200.67	-1693.36	  400.00
     59.3700	 1299.00	 1208.67	-1682.36	  400.04
     59.4700	 1288.00	 1196.96	-1681.65	  400.09
     59.5700	 1218.00	 1175.09	-1729.78	  400.13
     59.6700	 1271.00	 1155.74	-1657.43	  400.17
     59.7700	 1159.00	 1148.40	-1762.09	  400.22
     59.8700	 1192.00	 1158.38	-1739.07	  400.26
     59.9700	 1263.00	 1189.29	-1698.98	  400.31
     60.0700	 1310.00	 1243.43	-1706.12	  400.36
     60.1700	 1354.00	 1318.64	-1737.32	  400.41
     60.2700	 1540.00	 1404.55	-1637.24	  400.46
     60.3700	 1485.00	 1481.27	-1768.96	  400.52
     60.4700	 1582.00	 1522.30	-1712.99	  400.57
     60.5700	 1581.00	 1505.80	-1697.49	  400.63
     60.6700	 1491.00	 1429.21	-1710.90	  400.68
     60.7700	 1351.00	 1310.75	-1732.44	  400.74
     60.8700	 1216.00	 1175.84	-1732.53	  400.80
     60.9700	 1056.00	 1045.19	-1761.88	  400.86
     61.0700	  892.00	  931.94	-1812.63	  400.92
     61.1700	  836.00	  842.67	-1779.36	  400.98
     61.2700	  773.00	  779.30	-1778.99	  401.04
     61.3700	  774.00	  740.99	-1739.68	  401.11
     61.4700	  735.00	  726.02	-1763.70	  401.17
     61.5700	  739.00	  733.20	-1766.89	  401.24
     61.6700	  758.00	  762.48	-1777.17	  401.30
     61.7700	  819.00	  814.58	-1768.27	  401.37
     61.8700	  870.00	  889.85	-1792.54	  401.44
     61.9700	  943.00	  986.63	-1816.32	  401.51
     62.0700	 1104.00	 1099.59	-1768.28	  401.58
     62.1700	 1185.00	 1218.09	-1805.78	  401.65
     62.2700	 1222.00	 1325.12	-1875.81	  401.73
     62.3700	 1314.00	 1398.22	-1856.91	  401.80
     62.4700	 1372.00	 1416.76	-1817.45	  401.88
     62.5700	 1335.00	 1374.18	-1811.87	  401.95
     62.6700	 1202.00	 1283.07	-1853.76	  402.03
     62.7700	 1102.00	 1165.86	-1836.55	  402.10
     62.8700	 1040.00	 1043.52	-1776.21	  402.18
     62.9700	  844.00	  930.51	-1859.20	  402.26
     63.0700	  804.00	  834.94	-1803.63	  402.34
     63.1700	  750.00	  759.85	-1782.54	  402.42
     63.2700	  695.00	  704.56	-1782.25	  402.50
     63.3700	  672.00	  666.31	-1767.00	  402.58
     63.4700	  632.00	  641.45	-1782.14	  402.67
     63.5700	  623.00	  626.56	-1776.24	  402.75
     63.6700	  653.00	  619.07	-1738.76	  402.83
     63.7700	  662.00	  617.52	-1728.20	  402.92
     63.8700	  636.00	  621.48	-1758.17	  403.01
     63.9700	  639.00	  631.51	-1765.20	  403.09
     64.0700	  695.00	  648.62	-1726.31	  403.18
     64.1700	  722.00	  674.24	-1724.93	  403.27
     64.2700	  708.00	  709.55	-1774.24	  403.35
     64.3700	  813.00	  754.95	-1714.64	  403.44
     64.4700	  824.00	  809.47	-1758.16	  403.53
     64.5700	  915.00	  870.28	-1727.97	  403.62
     64.6700	  977.00	  931.52	-1727.21	  403.71
     64.7700	 1041.00	  985.19	-1716.88	  403.80
     64.8700	 1040.00	 1022.01	-1754.70	  403.90
     64.9700	 1067.00	 1034.97	-1740.66	  403.99
     65.0700	 1065.00	 1022.51	-1730.20	  404.08
     65.1700	  999.00	  988.59	-1762.28	  404.17
     65.2700	  915.00	  940.82	-1798.51	  404.27
     65.3700	  862.00	  887.61	-1798.30	  404.36
     65.4700	  823.00	  835.75	-1785.44	  404.46
     65.5700	  767.00	  788.74	-1794.43	  404.55
     65.6700	  783.00	  749.08	-1738.77	  404.65
     65.7700	  715.00	  715.71	-1773.40	  404.74
     65.8700	  718.00	  688.11	-1742.80	  404.84
     65.9700	  652.00	  665.83	-1786.52	  404.93
     66.0700	  628.00	  648.17	-1792.86	  405.03
     66.1700	  605.00	  634.74	-1802.43	  405.13
     66.2700	  583.00	  624.98	-1814.67	  405.23
     66.3700	  649.00	  618.40	-1742.09	  405.32
     66.4700	  640.00	  614.61	-1747.30	  405.42
     66.5700	  629.00	  613.42	-1757.11	  405.52
     66.6700	  605.00	  614.52	-1782.21	  405.62
     66.7700	  601.00	  618.00	-1789.69	  405.72
     66.8700	  621.00	  624.20	-1775.89	  405.82
     66.9700	  644.00	  633.84	-1762.53	  405.92
     67.0700	  611.00	  648.41	-1810.10	  406.02
     67.1700	  707.00	  670.09	-1735.78	  406.12
     67.2700	  694.00	  702.41	-1781.10	  406.22
     67.3700	  707.00	  750.09	-1815.77	  406.32
     67.4700	  823.00	  818.88	-1768.57	  406.42
     67.5700	  904.00	  915.08	-1783.77	  406.52
     67.6700	 1005.00	 1044.17	-1811.86	  406.62
     67.7700	 1194.00	 1209.26	-1787.95	  406.72
     67.8700	 1407.00	 1409.28	-1774.96	  406.82
     67.9700	 1618.00	 1636.88	-1791.57	  406.92
     68.0700	 1871.00	 1877.00	-1778.69	  407.02
     68.1700	 2144.00	 2105.22	-1733.91	  407.12
     68.2700	 2284.00	 2287.87	-1776.56	  407.22
     68.3700	 2396.00	 2388.49	-1765.18	  407.32
     68.4700	 2346.00	 2382.15	-1808.84	  407.42
     68.5700	 2245.00	 2270.55	-1798.24	  407.52
     68.6700	 2055.00	 2080.85	-1798.54	  407.62
     68.7700	 1825.00	 1850.02	-1797.71	  407.72
     68.8700	 1662.00	 1610.63	-1721.32	  407.82
     68.9700	 1399.00	 1386.04	-1759.73	  407.92
     69.0700	 1134.00	 1190.31	-1829.00	  408.02
     69.1700	 1056.00	 1029.92	-1746.61	  408.12
     69.2700	  891.00	  905.40	-1787.09	  408.22
     69.3700	  738.00	  813.20	-1847.89	  408.32
     69.4700	  730.00	  747.62	-1790.31	  408.42
     69.5700	  730.00	  702.42	-1745.11	  408.52
     69.6700	  683.00	  671.90	-1761.59	  408.62
     69.7700	  665.00	  651.44	-1759.13	  408.72
     69.8700	  621.00	  637.65	-1789.34	  408.82
     69.9700	  653.00	  628.26	-1747.94	  408.92
     70.0700	  680.00	  621.76	-1714.45	  409.02
     70.1700	  622.00	  617.32	-1768.01	  409.12
     70.2700	  628.00	  614.43	-1759.12	  409.21
     70.3700	  603.00	  612.67	-1782.36	  409.31
     70.4700	  564.00	  613.30	-1821.99	  409.41
     70.5700	  622.00	  614.21	-1764.90	  409.51
     70.6700	  639.00	  616.59	-1750.28	  409.60
     70.7700	  639.00	  620.84	-1754.53	  409.70
     70.8700	  630.00	  627.67	-1770.35	  409.79
     70.9700	  659.00	  638.21	-1751.90	  409.89
     71.0700	  663.00	  654.19	-1763.88	  409.98
     71.1700	  693.00	  678.02	-1757.71	  410.08
     71.2700	  727.00	  712.84	-1758.53	  410.17
     71.3700	  764.00	  762.37	-1771.06	  410.27
     71.4700	  771.00	  830.52	-1832.21	  410.36
     71.5700	  895.00	  920.71	-1798.40	  410.45
     71.6700	  951.00	 1034.94	-1856.63	  410.54
     71.7700	 1081.00	 1172.79	-1864.48	  410.64
     71.8700	 1311.00	 1330.37	-1792.06	  410.73
     71.9700	 1465.00	 1499.35	-1807.04	  410.82
     72.0700	 1670.00	 1666.20	-1768.89	  410.91
     72.1700	 1755.00	 1811.91	-1829.60	  411.00
     72.2700	 1819.00	 1913.80	-1867.49	  411.09
     72.3700	 1900.00	 1951.51	-1824.20	  411.17
     72.4700	 1833.00	 1916.39	-1856.08	  411.26
     72.5700	 1755.00	 1816.56	-1834.25	  411.35
     72.6700	 1677.00	 1672.15	-1767.84	  411.44
     72.7700	 1560.00	 1505.90	-1718.59	  411.52
     72.8700	 1270.00	 1336.89	-1839.57	  411.61
     72.9700	 1246.00	 1178.71	-1705.40	  411.69
     73.0700	 1048.00	 1039.74	-1764.43	  411.77
     73.1700	  967.00	  923.89	-1729.58	  411.86
     73.2700	  859.00	  831.63	-1745.31	  411.94
     73.3700	  746.00	  761.02	-1787.71	  412.02
     73.4700	  690.00	  708.79	-1791.48	  412.10
     73.5700	  665.00	  671.18	-1778.87	  412.18
     73.6700	  703.00	  644.56	-1714.25	  412.26
     73.7700	  638.00	  625.86	-1760.55	  412.34
     73.8700	  634.00	  612.69	-1751.38	  412.42
     73.9700	  639.00	  603.35	-1737.04	  412.49
     74.0700	  628.00	  596.71	-1741.40	  412.57
     74.1700	  642.00	  592.00	-1722.69	  412.64
     74.2700	  631.00	  588.20	-1729.89	  412.72
     74.3700	  600.00	  586.09	-1758.78	  412.79
     74.4700	  616.00	  584.86	-1741.55	  412.86
     74.5700	  655.00	  584.28	-1701.97	  412.93
     74.6700	  644.00	  584.09	-1712.78	  413.00
     74.7700	  635.00	  584.03	-1721.72	  413.07
     74.8700	  663.00	  583.79	-1693.48	  413.14
     74.9700	  657.00	  583.11	-1698.80	  413.21
     75.0700	  668.00	  581.85	-1686.54	  413.28
     75.1700	  658.00	  580.08	-1694.77	  413.34
     75.2700	  660.00	  578.05	-1690.74	  413.41
     75.3700	  657.00	  576.12	-1691.81	  413.47
     75.4700	  625.00	  574.67	-1722.35	  413.53
     75.5700	  635.00	  574.07	-1711.76	  413.59
     75.6700	  649.00	  574.73	-1698.42	  413.66
     75.7700	  617.00	  577.08	-1732.77	  413.71
     75.8700	  596.00	  581.53	-1758.22	  413.77
     75.9700	  566.00	  588.49	-1795.18	  413.83
     76.0700	  638.00	  598.29	-1732.98	  413.89
     76.1700	  579.00	  611.10	-1804.79	  413.94
     76.2700	  653.00	  626.84	-1746.53	  414.00
     76.3700	  687.00	  645.07	-1730.76	  414.05
     76.4700	  666.00	  665.07	-1771.76	  414.10
     76.5700	  737.00	  685.48	-1721.17	  414.15
     76.6700	  740.00	  704.50	-1737.19	  414.20
     76.7700	  732.00	  719.83	-1760.52	  414.25
     76.8700	  779.00	  728.98	-1722.67	  414.29
     76.9700	  750.00	  730.35	-1753.04	  414.34
     77.0700	  703.00	  723.50	-1793.19	  414.38
     77.1700	  711.00	  709.69	-1771.38	  414.43
     77.2700	  698.00	  691.18	-1765.87	  414.47
     77.3700	  679.00	  670.34	-1764.03	  414.51
     77.4700	  641.00	  649.19	-1780.88	  414.55
     77.5700	  637.00	  629.20	-1764.89	  414.59
     77.6700	  600.00	  611.34	-1784.03	  414.62
     77.7700	  553.00	  596.12	-1815.81	  414.66
     77.8700	  574.00	  583.69	-1782.38	  414.69
     77.9700	  531.00	  573.93	-1815.61	  414.73
     78.0700	  530.00	  566.45	-1809.14	  414.76
     78.1700	  551.00	  560.97	-1782.66	  414.79
     78.2700	  561.00	  557.01	-1768.70	  414.82
     78.3700	  511.00	  554.19	-1815.88	  414.84
     78.4700	  546.00	  551.97	-1778.66	  414.87
     78.5700	  540.00	  550.55	-1783.24	  414.89
     78.6700	  528.00	  549.54	-1794.23	  414.92
     78.7700	  560.00	  548.81	-1761.50	  414.94
     78.8700	  554.00	  548.30	-1766.99	  414.96
     78.9700	  529.00	  547.95	-1791.64	  414.98
     79.0700	  532.00	  547.75	-1788.43	  414.99
     79.1700	  565.00	  547.68	-1755.37	  415.01
     79.2700	  560.00	  547.76	-1760.45	  415.02
     79.3700	  566.00	  547.99	-1754.68	  415.04
     79.4700	  529.00	  548.41	-1792.10	  415.05
     79.5700	  539.00	  549.02	-1782.71	  415.06
     79.6700	  554.00	  549.88	-1768.57	  415.07
     79.7700	  559.00	  551.02	-1764.71	  415.07
     79.8700	  553.00	  552.49	-1772.18	  415.08
     79.9700	  560.00	  554.35	-1767.04	  415.08
     80.0700	  553.00	  556.69	-1776.38	  415.08
     80.1700	  572.00	  559.58	-1760.27	  415.08
     80.2700	  602.00	  563.14	-1733.83	  415.08
     80.3700	  574.00	  567.46	-1766.15	  415.08
     80.4700	  586.00	  572.67	-1759.36	  415.08
     80.5700	  603.00	  578.90	-1748.59	  415.07
     80.6700	  596.00	  586.30	-1762.99	  415.06
     80.7700	  666.00	  594.97	-1701.65	  415.05
     80.8700	  632.00	  604.94	-1745.63	  415.04
     80.9700	  647.00	  616.11	-1741.80	  415.03
     81.0700	  697.00	  627.99	-1703.68	  415.02
     81.1700	  678.00	  640.54	-1735.23	  415.00
     81.2700	  689.00	  652.95	-1736.64	  414.98
     81.3700	  692.00	  664.64	-1745.33	  414.96
     81.4700	  698.00	  675.18	-1749.87	  414.94
     81.5700	  753.00	  684.30	-1703.99	  414.92
     81.6700	  781.00	  691.85	-1683.54	  414.90
     81.7700	  782.00	  697.68	-1688.37	  414.87
     81.8700	  780.00	  701.57	-1694.26	  414.84
     81.9700	  724.00	  703.22	-1751.91	  414.82
     82.0700	  723.00	  702.29	-1751.98	  414.78
     82.1700	  736.00	  698.60	-1735.29	  414.75
     82.2700	  709.00	  692.32	-1756.01	  414.72
     82.3700	  683.00	  683.93	-1773.62	  414.68
     82.4700	  628.00	  674.03	-1818.72	  414.64
     82.5700	  706.00	  663.12	-1729.80	  414.60
     82.6700	  673.00	  651.52	-1751.21	  414.56
     82.7700	  646.00	  639.55	-1766.24	  414.52
     82.8700	  638.00	  627.58	-1762.27	  414.47
     82.9700	  608.00	  616.08	-1780.77	  414.43
     83.0700	  585.00	  605.53	-1793.22	  414.38
     83.1700	  598.00	  596.33	-1771.02	  414.33
     83.2700	  560.00	  588.78	-1801.47	  414.27
     83.3700	  585.00	  583.03	-1770.72	  414.22
     83.4700	  620.00	  579.13	-1731.82	  414.16
     83.5700	  600.00	  577.03	-1749.72	  414.11
     83.6700	  550.00	  576.59	-1799.28	  414.05
     83.7700	  534.00	  577.58	-1816.27	  413.99
     83.8700	  562.00	  579.69	-1790.38	  413.92
     83.9700	  576.00	  582.54	-1779.23	  413.86
     84.0700	  560.00	  585.67	-1798.35	  413.79
     84.1700	  589.00	  588.55	-1772.24	  413.72
     84.2700	  593.00	  590.66	-1770.35	  413.65
     84.3700	  569.00	  591.44	-1795.13	  413.58
     84.4700	  571.00	  590.76	-1792.45	  413.50
     84.5700	  574.00	  588.49	-1787.18	  413.43
     84.6700	  603.00	  584.96	-1754.65	  413.35
     84.7700	  603.00	  580.52	-1750.21	  413.27
     84.8700	  522.00	  575.60	-1826.29	  413.19
     84.9700	  555.00	  570.59	-1788.27	  413.10
     85.0700	  582.00	  565.77	-1756.46	  413.02
     85.1700	  501.00	  561.37	-1833.06	  412.93
     85.2700	  556.00	  557.53	-1774.22	  412.84
     85.3700	  555.00	  554.33	-1772.02	  412.75
     85.4700	  502.00	  551.79	-1822.47	  412.65
     85.5700	  558.00	  549.87	-1764.56	  412.56
     85.6700	  519.00	  548.54	-1802.23	  412.46
     85.7700	  525.00	  547.73	-1795.42	  412.36
     85.8700	  556.00	  547.40	-1764.09	  412.26
     85.9700	  560.00	  547.51	-1760.20	  412.16
     86.0700	  592.00	  548.04	-1728.73	  412.05
     86.1700	  537.00	  549.01	-1784.70	  411.94
     86.2700	  510.00	  550.44	-1813.13	  411.83
     86.3700	  558.00	  552.41	-1767.09	  411.72
     86.4700	  579.00	  555.00	-1748.69	  411.61
     86.5700	  540.00	  558.33	-1791.02	  411.49
     86.6700	  530.00	  562.52	-1805.21	  411.38
     86.7700	  543.00	  567.68	-1797.37	  411.26
     86.8700	  578.00	  573.92	-1768.61	  411.14
     86.9700	  593.00	  581.30	-1760.99	  411.01
     87.0700	  584.00	  589.83	-1778.52	  410.89
     87.1700	  615.00	  599.43	-1757.12	  410.76
     87.2700	  594.00	  609.89	-1788.58	  410.63
     87.3700	  585.00	  620.86	-1808.55	  410.50
     87.4700	  655.00	  631.83	-1749.52	  410.37
     87.5700	  693.00	  642.12	-1721.81	  410.23
     87.6700	  611.00	  650.92	-1812.61	  410.10
     87.7700	  654.00	  657.37	-1776.06	  409.96
     87.8700	  662.00	  660.72	-1771.41	  409.82
     87.9700	  617.00	  660.60	-1816.29	  409.68
     88.0700	  636.00	  657.11	-1793.80	  409.53
     88.1700	  659.00	  650.85	-1764.54	  409.38
     88.2700	  610.00	  642.68	-1805.37	  409.24
     88.3700	  612.00	  633.56	-1794.25	  409.09
     88.4700	  618.00	  624.39	-1779.08	  408.93
     88.5700	  615.00	  615.93	-1773.62	  408.78
     88.6700	  579.00	  608.80	-1802.49	  408.62
     88.7700	  573.00	  603.43	-1803.11	  408.46
     88.8700	  604.00	  600.09	-1768.78	  408.30
     88.9700	  588.00	  598.45	-1783.14	  408.14
     89.0700	  569.00	  599.32	-1803.01	  407.98
     89.1700	  557.00	  602.03	-1817.71	  407.81
     89.2700	  601.00	  606.20	-1777.89	  407.64
     89.3700	  607.00	  611.35	-1777.04	  407.47
     89.4700	  589.00	  616.86	-1800.55	  407.30
     89.5700	  632.00	  622.04	-1762.73	  407.12
     89.6700	  609.00	  626.16	-1789.85	  406.95
     89.7700	  619.00	  628.55	-1782.24	  406.77
     89.8700	  646.00	  628.72	-1755.41	  406.59
     89.9700	  625.00	  626.50	-1774.19	  406.41
     90.0700	  604.00	  622.08	-1790.77	  406.22
     90.1700	  578.00	  615.90	-1810.59	  406.04
     90.2700	  579.00	  608.54	-1802.23	  405.85
     90.3700	  580.00	  600.56	-1793.24	  405.66
     90.4700	  560.00	  592.46	-1805.15	  405.47
     90.5700	  542.00	  584.66	-1815.35	  405.27
     90.6700	  601.00	  577.45	-1749.14	  405.08
     90.7700	  574.00	  571.03	-1769.72	  404.88
     90.8700	  538.00	  565.53	-1800.22	  404.68
     90.9700	  535.00	  560.97	-1798.66	  404.48
     91.0700	  528.00	  557.36	-1802.05	  404.28
     91.1700	  553.00	  554.61	-1774.30	  404.07
     91.2700	  536.00	  552.66	-1789.35	  403.86
     91.3700	  499.00	  551.42	-1825.11	  403.65
     91.4700	  524.00	  550.82	-1799.51	  403.44
     91.5700	  577.00	  550.81	-1746.50	  403.23
     91.6700	  551.00	  551.36	-1773.05	  403.02
     91.7700	  526.00	  552.49	-1799.18	  402.80
     91.8700	  517.00	  554.25	-1809.94	  402.58
     91.9700	  491.00	  556.73	-1838.42	  402.36
     92.0700	  539.00	  560.06	-1793.74	  402.14
     92.1700	  548.00	  564.35	-1789.04	  401.91
     92.2700	  511.00	  569.78	-1831.47	  401.69
     92.3700	  566.00	  576.50	-1783.18	  401.46
     92.4700	  558.00	  584.62	-1799.31	  401.23
     92.5700	  602.00	  594.27	-1764.96	  401.00
     92.6700	  570.00	  605.47	-1808.16	  400.77
     92.7700	  608.00	  618.22	-1782.91	  400.53
     92.8700	  632.00	  632.40	-1773.09	  400.29
     92.9700	  561.00	  647.82	-1859.50	  400.06
     93.0700	  609.00	  664.15	-1827.84	  399.82
     93.1700	  633.00	  681.00	-1820.69	  399.57
     93.2700	  704.00	  697.83	-1766.52	  399.33
     93.3700	  690.00	  714.07	-1796.76	  399.08
     93.4700	  681.00	  729.19	-1820.88	  398.84
     93.5700	  761.00	  742.83	-1754.52	  398.59
     93.6700	  771.00	  754.95	-1756.64	  398.34
     93.7700	  747.00	  765.84	-1791.53	  398.08
     93.8700	  760.00	  775.98	-1788.67	  397.83
     93.9700	  811.00	  785.90	-1747.59	  397.57
     94.0700	  791.00	  796.03	-1777.72	  397.32
     94.1700	  792.00	  806.62	-1787.31	  397.06
     94.2700	  875.00	  817.46	-1715.14	  396.80
     94.3700	  824.00	  829.21	-1777.90	  396.53
     94.4700	  862.00	  841.57	-1752.26	  396.27
     94.5700	  845.00	  854.54	-1782.23	  396.00
     94.6700	  896.00	  868.07	-1744.76	  395.73
     94.7700	  881.00	  881.90	-1773.59	  395.47
     94.8700	  945.00	  895.47	-1723.16	  395.19
     94.9700	  944.00	  907.85	-1736.54	  394.92
     95.0700	  973.00	  917.81	-1717.50	  394.65
     95.1700	  911.00	  923.95	-1785.64	  394.37
     95.2700	  860.00	  924.96	-1837.65	  394.10
     95.3700	  849.00	  919.96	-1843.65	  393.82
     95.4700	  874.00	  908.78	-1807.47	  393.54
     95.5700	  842.00	  892.06	-1822.75	  393.25
     95.6700	  890.00	  871.10	-1753.79	  392.97
     95.7700	  860.00	  847.56	-1760.25	  392.69
     95.8700	  785.00	  823.23	-1810.92	  392.40
     95.9700	  830.00	  799.84	-1742.53	  392.11
     96.0700	  780.00	  779.00	-1771.69	  391.82
     96.1700	  780.00	  762.17	-1754.86	  391.53
     96.2700	  803.00	  750.66	-1720.35	  391.24
     96.3700	  755.00	  745.61	-1763.30	  390.95
     96.4700	  681.00	  748.02	-1839.71	  390.65
     96.5700	  778.00	  758.71	-1753.40	  390.36
     96.6700	  773.00	  778.32	-1778.01	  390.06
     96.7700	  805.00	  807.24	-1774.93	  389.76
     96.8700	  875.00	  845.65	-1743.34	  389.46
     96.9700	  915.00	  893.36	-1751.05	  389.16
     97.0700	  945.00	  949.83	-1777.52	  388.86
     97.1700	  944.00	 1014.08	-1842.77	  388.55
     97.2700	 1047.00	 1084.60	-1810.29	  388.25
     97.3700	 1092.00	 1159.37	-1840.06	  387.94
     97.4700	 1232.00	 1235.76	-1776.45	  387.63
     97.5700	 1290.00	 1310.56	-1793.25	  387.32
     97.6700	 1424.00	 1380.00	-1728.69	  387.01
     97.7700	 1419.00	 1439.93	-1793.62	  386.70
     97.8700	 1445.00	 1486.22	-1813.91	  386.39
     97.9700	 1524.00	 1515.32	-1764.00	  386.07
     98.0700	 1473.00	 1524.98	-1824.67	  385.76
     98.1700	 1492.00	 1514.79	-1795.48	  385.44
     98.2700	 1441.00	 1486.22	-1817.91	  385.13
     98.3700	 1384.00	 1442.21	-1830.90	  384.81
     98.4700	 1366.00	 1386.57	-1793.26	  384.49
     98.5700	 1282.00	 1323.34	-1814.03	  384.17
     98.6700	 1190.00	 1256.45	-1839.14	  383.85
     98.7700	 1205.00	 1189.50	-1757.19	  383.52
     98.8700	 1094.00	 1125.59	-1804.28	  383.20
     98.9700	 1054.00	 1067.40	-1786.09	  382.88
     99.0700	  952.00	 1017.08	-1837.77	  382.55
     99.1700	  968.00	  976.39	-1781.08	  382.22
     99.2700	  955.00	  946.73	-1764.42	  381.90
     99.3700	  933.00	  929.09	-1768.78	  381.57
     99.4700	  909.00	  924.19	-1787.88	  381.24
     99.5700	  889.00	  932.44	-1816.13	  380.91
     99.6700	  955.00	  953.96	-1771.65	  380.58
     99.7700	  980.00	  988.62	-1781.31	  380.25
     99.8700	 1009.00	 1036.01	-1799.70	  379.92
     99.9700	 1118.00	 1095.40	-1750.08	  379.59
    100.0700	 1148.00	 1165.74	-1790.43	  379.25
    100.1700	 1210.00	 1245.57	-1808.26	  378.92
    100.2700	 1306.00	 1333.01	-1799.70	  378.58
    100.3700	 1425.00	 1425.68	-1773.36	  378.25
    100.4700	 1620.00	 1520.65	-1673.34	  377.91
    100.5700	 1718.00	 1614.58	-1669.27	  377.57
    100.6700	 1758.00	 1703.96	-1718.65	  377.24
    100.7700	 1726.00	 1785.29	-1831.98	  376.90
    100.8700	 1850.00	 1855.64	-1778.33	  376.56
    100.9700	 1967.00	 1912.81	-1718.50	  376.22
    101.0700	 2043.00	 1955.43	-1685.12	  375.88
    101.1700	 2060.00	 1982.66	-1695.34	  375.54
    101.2700	 2011.00	 1993.92	-1755.61	  375.20
    101.3700	 1943.00	 1988.81	-1818.50	  374.86
    101.4700	 2004.00	 1967.25	-1735.94	  374.52
    101.5700	 1892.00	 1929.86	-1810.54	  374.18
    101.6700	 1909.00	 1878.27	-1741.96	  373.84
    101.7700	 1897.00	 1815.24	-1690.93	  373.50
    101.8700	 1724.00	 1744.35	-1793.04	  373.15
    101.9700	 1692.00	 1669.55	-1750.24	  372.81
    102.0700	 1610.00	 1594.56	-1757.25	  372.47
    102.1700	 1547.00	 1522.57	-1748.26	  372.13
    102.2700	 1477.00	 1456.02	-1751.71	  371.78
    102.3700	 1336.00	 1396.50	-1833.19	  371.44
    102.4700	 1343.00	 1344.84	-1774.53	  371.10
    102.5700	 1309.00	 1301.07	-1764.76	  370.75
    102.6700	 1283.00	 1264.56	-1754.25	  370.41
    102.7700	 1147.00	 1234.09	-1859.78	  370.07
    102.8700	 1191.00	 1207.94	-1789.63	  369.72
    102.9700	 1229.00	 1184.12	-1727.81	  369.38
    103.0700	 1150.00	 1160.53	-1783.22	  369.04
    103.1700	 1122.00	 1135.34	-1786.03	  368.69
    103.2700	 1114.00	 1107.25	-1765.94	  368.35
    103.3700	 1088.00	 1075.58	-1760.27	  368.01
    103.4700	 1008.00	 1040.40	-1805.09	  367.66
    103.5700	  975.00	 1002.27	-1799.96	  367.32
    103.6700	 1008.00	  962.11	-1726.80	  366.98
    103.7700	  928.00	  920.93	-1765.62	  366.64
    103.8700	  872.00	  879.75	-1780.44	  366.30
    103.9700	  848.00	  839.51	-1764.20	  365.95
    104.0700	  819.00	  801.00	-1754.69	  365.61
    104.1700	  760.00	  764.88	-1777.56	  365.27
    104.2700	  733.00	  731.61	-1771.30	  364.93
    104.3700	  706.00	  701.54	-1768.23	  364.59
    104.4700	  705.00	  674.84	-1742.53	  364.26
    104.5700	  650.00	  651.56	-1774.25	  363.92
    104.6700	  653.00	  631.62	-1751.31	  363.58
    104.7700	  605.00	  614.83	-1782.52	  363.24
    104.8700	  611.00	  600.96	-1762.65	  362.90
    104.9700	  599.00	  589.73	-1763.42	  362.57
    105.0700	  659.00	  580.82	-1694.51	  362.23
    105.1700	  586.00	  573.94	-1760.63	  361.90
    105.2700	  595.00	  568.81	-1746.50	  361.57
    105.3700	  561.00	  565.16	-1776.85	  361.23
    105.4700	  594.00	  562.79	-1741.48	  360.90
    105.5700	  584.00	  561.50	-1750.19	  360.57
    105.6700	  595.00	  561.17	-1738.86	  360.24
    105.7700	  593.00	  561.68	-1741.37	  359.91
    105.8700	  540.00	  562.96	-1795.65	  359.58
    105.9700	  609.00	  564.98	-1728.67	  359.26
    106.0700	  567.00	  567.71	-1773.40	  358.93
    106.1700	  567.00	  571.17	-1776.86	  358.60
    106.2700	  601.00	  575.37	-1747.05	  358.28
    106.3700	  585.00	  580.37	-1768.06	  357.96
    106.4700	  607.00	  586.21	-1751.90	  357.64
    106.5700	  616.00	  592.92	-1749.61	  357.32
    106.6700	  615.00	  600.51	-1758.20	  357.00
    106.7700	  594.00	  608.95	-1787.64	  356.68
    106.8700	  585.00	  618.17	-1805.86	  356.37
    106.9700	  597.00	  628.04	-1803.73	  356.05
    107.0700	  634.00	  638.39	-1777.08	  355.74
    107.1700	  709.00	  648.99	-1712.68	  355.43
    107.2700	  648.00	  659.55	-1784.24	  355.12
    107.3700	  701.00	  669.75	-1741.44	  354.81
    107.4700	  673.00	  679.21	-1778.90	  354.50
    107.5700	  682.00	  687.58	-1778.27	  354.20
    107.6700	  707.00	  694.51	-1760.20	  353.89
    107.7700	  745.00	  699.74	-1727.43	  353.59
    107.8700	  704.00	  703.12	-1771.81	  353.29
    107.9700	  695.00	  704.74	-1782.43	  353.00
    108.0700	  677.00	  704.78	-1800.47	  352.70
    108.1700	  723.00	  703.55	-1753.24	  352.41
    108.2700	  673.00	  701.46	-1801.15	  352.11
    108.3700	  689.00	  698.93	-1782.62	  351.82
    108.4700	  711.00	  696.35	-1758.04	  351.54
    108.5700	  691.00	  694.05	-1775.74	  351.25
    108.6700	  696.00	  692.26	-1768.94	  350.97
    108.7700	  734.00	  691.11	-1729.80	  350.69
    108.8700	  744.00	  690.68	-1719.37	  350.41
    108.9700	  698.00	  690.89	-1765.58	  350.13
    109.0700	  686.00	  691.61	-1778.30	  349.86
    109.1700	  724.00	  692.60	-1741.29	  349.59
    109.2700	  670.00	  693.54	-1796.23	  349.32
    109.3700	  753.00	  694.09	-1713.78	  349.05
    109.4700	  731.00	  693.87	-1735.56	  348.79
    109.5700	  704.00	  692.55	-1761.24	  348.52
    109.6700	  704.00	  689.86	-1758.55	  348.26
    109.7700	  683.00	  685.68	-1775.37	  348.01
    109.8700	  701.00	  680.00	-1751.69	  347.75
    109.9700	  715.00	  672.97	-1730.66	  347.50
    110.0700	  723.00	  664.81	-1714.50	  347.26
    110.1700	  684.00	  655.81	-1744.50	  347.01
    110.2700	  685.00	  646.27	-1733.96	  346.77
    110.3700	  641.00	  636.50	-1768.19	  346.53
    110.4700	  666.00	  626.79	-1733.47	  346.29
    110.5700	  618.00	  617.37	-1772.06	  346.06
    110.6700	  607.00	  608.46	-1774.15	  345.83
    110.7700	  616.00	  600.24	-1756.93	  345.60
    110.8700	  622.00	  592.84	-1743.53	  345.38
    110.9700	  615.00	  586.37	-1744.06	  345.16
    111.0700	  621.00	  580.89	-1732.58	  344.94
    111.1700	  578.00	  576.42	-1771.11	  344.73
    111.2700	  585.00	  572.95	-1760.64	  344.52
    111.3700	  623.00	  570.46	-1720.15	  344.31
    111.4700	  588.00	  568.88	-1753.57	  344.11
    111.5700	  558.00	  568.16	-1782.85	  343.91
    111.6700	  578.00	  568.19	-1762.88	  343.72
    111.7700	  607.00	  568.90	-1734.59	  343.52
    111.8700	  603.00	  570.17	-1739.86	  343.34
    111.9700	  594.00	  571.91	-1750.60	  343.15
    112.0700	  580.00	  574.02	-1766.71	  342.97
    112.1700	  599.00	  576.41	-1750.10	  342.79
    112.2700	  556.00	  579.00	-1795.69	  342.62
    112.3700	  584.00	  581.70	-1770.39	  342.45
    112.4700	  506.00	  584.47	-1851.16	  342.29
    112.5700	  535.00	  587.28	-1824.97	  342.13
    112.6700	  533.00	  590.12	-1829.81	  341.97
    112.7700	  583.00	  593.01	-1782.70	  341.82
    112.8700	  604.00	  596.00	-1764.69	  341.68
    112.9700	  557.00	  599.15	-1814.84	  341.53
    113.0700	  596.00	  602.54	-1779.23	  341.40
    113.1700	  550.00	  606.27	-1828.96	  341.26
    113.2700	  605.00	  610.46	-1778.15	  341.13
    113.3700	  594.00	  615.25	-1793.94	  341.01
    113.4700	  588.00	  620.78	-1805.47	  340.89
    113.5700	  648.00	  627.27	-1751.96	  340.77
    113.6700	  600.00	  634.92	-1807.61	  340.66
    113.7700	  644.00	  644.04	-1772.73	  340.56
    113.8700	  684.00	  654.97	-1743.66	  340.46
    113.9700	  623.00	  668.15	-1817.84	  340.36
    114.0700	  677.00	  684.12	-1779.81	  340.27
    114.1700	  687.00	  703.51	-1789.20	  340.19
    114.2700	  722.00	  727.14	-1777.83	  340.11
    114.3700	  720.00	  755.94	-1808.63	  340.03
    114.4700	  803.00	  791.04	-1760.73	  339.96
    114.5700	  816.00	  833.75	-1790.44	  339.90
    114.6700	  843.00	  885.55	-1815.24	  339.84
    114.7700	  926.00	  948.12	-1794.81	  339.79
    114.8700	 1015.00	 1023.33	-1781.02	  339.74
    114.9700	 1118.00	 1113.15	-1767.84	  339.70
    115.0700	 1265.00	 1219.66	-1727.35	  339.66
    115.1700	 1346.00	 1344.96	-1771.65	  339.63
    115.2700	 1549.00	 1491.12	-1714.81	  339.61
    115.3700	 1658.00	 1660.08	-1774.77	  339.59
    115.4700	 1951.00	 1853.46	-1675.15	  339.58
    115.5700	 2190.00	 2072.52	-1655.21	  339.57
    115.6700	 2447.00	 2317.98	-1643.67	  339.57
    115.7700	 2738.00	 2589.95	-1624.64	  339.58
    115.8700	 2872.00	 2887.81	-1788.50	  339.59
    115.9700	 3242.00	 3209.97	-1740.66	  339.61
    116.0700	 3602.00	 3553.88	-1724.57	  339.63
    116.1700	 3993.00	 3915.90	-1695.59	  339.66
    116.2700	 4247.00	 4291.47	-1817.16	  339.70
    116.3700	 4643.00	 4674.87	-1804.55	  339.75
    116.4700	 4982.00	 5059.18	-1849.86	  339.80
    116.5700	 5374.00	 5436.50	-1835.19	  339.86
    116.6700	 5812.00	 5797.93	-1758.62	  339.92
    116.7700	 6165.00	 6133.88	-1741.57	  339.99
    116.8700	 6434.00	 6434.29	-1772.98	  340.07
    116.9700	 6596.00	 6688.91	-1865.60	  340.16
    117.0700	 6788.00	 6888.22	-1872.91	  340.25
    117.1700	 6996.00	 7024.09	-1800.78	  340.35
    117.2700	 7051.00	 7090.76	-1812.45	  340.46
    117.3700	 7022.00	 7085.38	-1836.07	  340.57
    117.4700	 7059.00	 7008.52	-1722.21	  340.69
    117.5700	 6757.00	 6864.04	-1879.72	  340.82
    117.6700	 6563.00	 6658.59	-1868.28	  340.96
    117.7700	 6305.00	 6400.81	-1868.50	  341.10
    117.8700	 5865.00	 6100.39	-2008.08	  341.26
    117.9700	 5641.00	 5767.49	-1899.18	  341.42
    118.0700	 5239.00	 5412.02	-1945.71	  341.58
    118.1700	 4964.00	 5043.30	-1851.99	  341.76
    118.2700	 4740.00	 4669.67	-1702.36	  341.94
    118.3700	 4371.00	 4298.47	-1700.16	  342.14
    118.4700	 3982.00	 3936.05	-1726.74	  342.34
    118.5700	 3790.00	 3587.63	-1570.32	  342.54
    118.6700	 3423.00	 3257.34	-1607.03	  342.76
    118.7700	 3107.00	 2948.19	-1613.88	  342.99
    118.8700	 2716.00	 2662.17	-1718.86	  343.22
    118.9700	 2443.00	 2400.54	-1730.23	  343.46
    119.0700	 2171.00	 2163.69	-1765.38	  343.71
    119.1700	 1941.00	 1951.37	-1783.06	  343.97
    119.2700	 1814.00	 1762.75	-1721.44	  344.24
    119.3700	 1685.00	 1596.58	-1684.27	  344.52
    119.4700	 1474.00	 1451.35	-1750.04	  344.80
    119.5700	 1288.00	 1325.33	-1810.02	  345.10
    119.6700	 1148.00	 1216.67	-1841.36	  345.40
    119.7700	 1139.00	 1123.47	-1757.16	  345.71
    119.8700	 1131.00	 1043.87	-1685.56	  346.04
    119.9700	 1054.00	  976.13	-1694.82	  346.37
    120.0700	  934.00	  918.63	-1757.32	  346.71
    120.1700	  902.00	  869.89	-1740.58	  347.06
    120.2700	  799.00	  828.60	-1802.29	  347.42
    120.3700	  744.00	  793.61	-1822.29	  347.79
    120.4700	  762.00	  763.94	-1774.63	  348.17
    120.5700	  743.00	  738.76	-1768.45	  348.56
    120.6700	  685.00	  717.38	-1805.07	  348.96
    120.7700	  693.00	  699.22	-1778.91	  349.37
    120.8700	  692.00	  683.80	-1764.49	  349.79
    120.9700	  634.00	  670.73	-1809.42	  350.22
    121.0700	  644.00	  659.69	-1788.38	  350.66
    121.1700	  631.00	  650.44	-1792.13	  351.11
    121.2700	  632.00	  642.76	-1783.45	  351.57
    121.3700	  648.00	  636.47	-1761.16	  352.05
    121.4700	  615.00	  631.45	-1789.14	  352.53
    121.5700	  621.00	  627.58	-1779.26	  353.02
    121.6700	  580.00	  624.75	-1817.43	  353.53
    121.7700	  606.00	  622.88	-1789.57	  354.04
    121.8700	  623.00	  621.89	-1771.58	  354.57
    121.9700	  601.00	  621.72	-1793.41	  355.10
    122.0700	  616.00	  622.30	-1778.99	  355.65
    122.1700	  585.00	  623.56	-1811.25	  356.21
    122.2700	  609.00	  625.43	-1789.12	  356.78
    122.3700	  632.00	  627.84	-1768.53	  357.37
    122.4700	  658.00	  630.71	-1745.39	  357.96
    122.5700	  612.00	  633.95	-1794.64	  358.57
    122.6700	  649.00	  637.49	-1761.18	  359.18
    122.7700	  613.00	  641.22	-1800.91	  359.81
    122.8700	  664.00	  645.04	-1753.73	  360.45
    122.9700	  635.00	  648.84	-1786.53	  361.11
    123.0700	  704.00	  652.51	-1721.20	  361.77
    123.1700	  623.00	  655.94	-1805.63	  362.45
    123.2700	  679.00	  659.00	-1752.69	  363.14
    123.3700	  667.00	  661.60	-1767.29	  363.84
    123.4700	  631.00	  663.65	-1805.34	  364.56
    123.5700	  664.00	  665.08	-1773.77	  365.29
    123.6700	  687.00	  665.84	-1751.53	  366.03
    123.7700	  668.00	  665.92	-1770.61	  366.78
    123.8700	  635.00	  665.33	-1803.02	  367.55
    123.9700	  703.00	  664.12	-1733.81	  368.32
    124.0700	  648.00	  662.32	-1787.01	  369.12
    124.1700	  672.00	  660.03	-1760.72	  369.92
    124.2700	  661.00	  657.30	-1768.99	  370.74
    124.3700	  649.00	  654.24	-1777.92	  371.57
    124.4700	  637.00	  650.88	-1786.57	  372.42
    124.5700	  647.00	  647.37	-1773.05	  373.28
    124.6700	  682.00	  643.74	-1734.43	  374.15
    124.7700	  609.00	  640.08	-1803.77	  375.04
    124.8700	  629.00	  636.44	-1780.13	  375.94
    124.9700	  607.00	  490.04	-1655.73	  376.85
    125.0700	  596.00	  490.97	-1772.69	  377.78
    125.1700	  663.00	  491.91	-1772.69	  378.72
    125.2700	  646.00	  492.87	-1772.69	  379.68
    125.3700	  585.00	  493.84	-1772.69	  380.65
    125.4700	  581.00	  494.83	-1772.69	  381.64
    125.5700	  571.00	  495.83	-1772.69	  382.64
    125.6700	  616.00	  496.84	-1772.69	  383.65
    125.7700	  572.00	  497.87	-1772.69	  384.68
    125.8700	  574.00	  498.92	-1772.69	  385.73
    125.9700	  587.00	  499.98	-1772.69	  386.79
    126.0700	  562.00	  501.05	-1772.69	  387.86
    126.1700	  624.00	  502.15	-1772.69	  388.95
    126.2700	  595.00	  503.25	-1772.69	  390.06
    126.3700	  586.00	  504.37	-1772.69	  391.18
    126.4700	  587.00	  505.51	-1772.69	  392.32
    126.5700	  586.00	  506.66	-1772.69	  393.47
    126.6700	  554.00	  507.83	-1772.69	  394.64
    126.7700	  564.00	  509.02	-1772.69	  395.83
    126.8700	  551.00	  510.22	-1772.69	  397.03
    126.9700	  559.00	  511.43	-1772.69	  398.24
    127.0700	  602.00	  512.67	-1772.69	  399.48
    127.1700	  558.00	  513.92	-1772.69	  400.73
    127.2700	  573.00	  515.18	-1772.69	  401.99
    127.3700	  577.00	  516.47	-1772.69	  403.28
    127.4700	  577.00	  517.77	-1772.69	  404.57
    127.5700	  539.00	  519.08	-1772.69	  405.89
    127.6700	  583.00	  520.41	-1772.69	  407.22
    127.7700	  621.00	  521.76	-1772.69	  408.57
    127.8700	  619.00	  523.13	-1772.69	  409.94
    127.9700	  644.00	  524.52	-1772.69	  411.33
    128.0700	  598.00	  525.92	-1772.69	  412.73
    128.1700	  609.00	  527.34	-1772.69	  414.15
    128.2700	  642.00	  528.78	-1772.69	  415.58
    128.3700	  638.00	  530.23	-1772.69	  417.04
    128.4700	  682.00	  531.70	-1772.69	  418.51
    128.5700	    0.00	  533.19	-1772.69	  420.00
    128.6700	    0.00	  534.70	-1772.69	  421.51
     12.3615	        	        	        	        	       0	(  0  0  2)	  0  1
     24.9988	        	        	        	        	       0	(  0  0  4)	  0  1
     28.4350	        	        	        	        	       0	(  1  0  0)	  0  1
     29.1357	        	        	        	        	       0	(  1  0  1)	  0  1
     31.1521	        	        	        	        	       0	(  1  0  2)	  0  1
     34.2761	        	        	        	        	       0	(  1  0  3)	  0  1
     37.9562	        	        	        	        	       0	(  0  0  6)	  0  1
     38.2732	        	        	        	        	       0	(  1  0  4)	  0  1
     42.9468	        	        	        	        	       0	(  1  0  5)	  0  1
     48.1575	        	        	        	        	       0	(  1  0  6)	  0  1
     50.4580	        	        	        	        	       0	(  1  1  0)	  0  1
     51.4433	        	        	        	        	       0	(  0  0  8)	  0  1
     52.1908	        	        	        	        	       0	(  1  1  2)	  0  1
     53.8177	        	        	        	        	       0	(  1  0  7)	  0  1
     57.1671	        	        	        	        	       0	(  1  1  4)	  0  1
     58.9924	        	        	        	        	       0	(  2  0  0)	  0  1
     59.3863	        	        	        	        	       0	(  2  0  1)	  0  1
     59.8814	        	        	        	        	       0	(  1  0  8)	  0  1
     60.5587	        	        	        	        	       0	(  2  0  2)	  0  1
     62.4836	        	        	        	        	       0	(  2  0  3)	  0  1
     64.9076	        	        	        	        	       0	(  1  1  6)	  0  1
     65.1239	        	        	        	        	       0	(  2  0  4)	  0  1
     65.7503	        	        	        	        	       0	(  0  0 10)	  0  1
     66.3351	        	        	        	        	       0	(  1  0  9)	  0  1
     68.4389	        	        	        	        	       0	(  2  0  5)	  0  1
     72.3919	        	        	        	        	       0	(  2  0  6)	  0  1
     73.1938	        	        	        	        	       0	(  1  0 10)	  0  1
     75.0097	        	        	        	        	       0	(  1  1  8)	  0  1
     76.9568	        	        	        	        	       0	(  2  0  7)	  0  1
     80.5009	        	        	        	        	       0	(  1  0 11)	  0  1
     81.3311	        	        	        	        	       0	(  0  0 12)	  0  1
     81.3496	        	        	        	        	       0	(  2  1  0)	  0  1
     81.6920	        	        	        	        	       0	(  2  1  1)	  0  1
     82.1239	        	        	        	        	       0	(  2  0  8)	  0  1
     82.7176	        	        	        	        	       0	(  2  1  2)	  0  1
     84.4218	        	        	        	        	       0	(  2  1  3)	  0  1
     86.7999	        	        	        	        	       0	(  2  1  4)	  0  1
     87.3709	        	        	        	        	       0	(  1  1 10)	  0  1
     87.9062	        	        	        	        	       0	(  2  0  9)	  0  1
     88.3342	        	        	        	        	       0	(  1  0 12)	  0  1
     89.8503	        	        	        	        	       0	(  2  1  5)	  0  1
     93.5794	        	        	        	        	       0	(  2  1  6)	  0  1
     94.3478	        	        	        	        	       0	(  2  0 10)	  0  1
     95.3325	        	        	        	        	       0	(  3  0  0)	  0  1
     95.6729	        	        	        	        	       0	(  3  0  1)	  0  1
     96.6954	        	        	        	        	       0	(  3  0  2)	  0  1
     96.8206	        	        	        	        	       0	(  1  0 13)	  0  1
     98.0081	        	        	        	        	       0	(  2  1  7)	  0  1
     98.4047	        	        	        	        	       0	(  3  0  3)	  0  1
     99.0175	        	        	        	        	       0	(  0  0 14)	  0  1
    100.8109	        	        	        	        	       0	(  3  0  4)	  0  1
    101.5378	        	        	        	        	       0	(  2  0 11)	  0  1
    102.3765	        	        	        	        	       0	(  1  1 12)	  0  1
    103.1816	        	        	        	        	       0	(  2  1  8)	  0  1
    103.9342	        	        	        	        	       0	(  3  0  5)	  0  1
    106.1691	        	        	        	        	       0	(  1  0 14)	  0  1
    107.8115	        	        	        	        	       0	(  3  0  6)	  0  1
    109.1849	        	        	        	        	       0	(  2  1  9)	  0  1
    109.6387	        	        	        	        	       0	(  2  0 12)	  0  1
    112.5080	        	        	        	        	       0	(  3  0  7)	  0  1
    116.1715	        	        	        	        	       0	(  2  1 10)	  0  1
    116.7493	        	        	        	        	       0	(  1  0 15)	  0  1
    117.2710	        	        	        	        	       0	(  2  2  0)	  0  1
    118.1378	        	        	        	        	       0	(  3  0  8)	  0  1
    118.8082	        	        	        	        	       0	(  2  2  2)	  0  1
    118.9502	        	        	        	        	       0	(  2  0 13)	  0  1
    120.7822	        	        	        	        	       0	(  0  0 16)	  0  1
    121.4706	        	        	        	        	       0	(  1  1 14)	  0  1
    123.5678	        	        	        	        	       0	(  2  2  4)	  0  1
    124.4289	        	        	        	        	       0	(  2  1 11)	  0  1
    124.9068	        	        	        	        	       0	(  3  0  9)	  0  1
    125.4533	        	        	        	        	       0	(  3  1  0)	  0  1
    125.8709	        	        	        	        	       0	(  3  1  1)	  0  1
    127.1373	        	        	        	        	       0	(  3  1  2)	  0  1
    129.2971	        	        	        	        	       0	(  3  1  3)	  0  1
    129.3191	        	        	        	        	       0	(  1  0 16)	  0  1
    130.0855	        	        	        	        	       0	(  2  0 14)	  0  1
    132.1734	        	        	        	        	       0	(  2  2  6)	  0  1
    132.4393	        	        	        	        	       0	(  3  1  4)	  0  1
    133.2184	        	        	        	        	       0	(  3  0 10)	  0  1
    134.5570	        	        	        	        	       0	(  2  1 12)	  0  1
    136.7304	        	        	        	        	       0	(  3  1  5)	  0  1
    142.4989	        	        	        	        	       0	(  3  1  6)	  0  1
    144.0231	        	        	        	        	       0	(  3  0 11)	  0  1
    144.6668	        	        	        	        	       0	(  2  0 15)	  0  1
    146.0189	        	        	        	        	       0	(  1  0 17)	  0  1
    146.8617	        	        	        	        	       0	(  2  2  8)	  0  1
    148.1940	        	        	        	        	       0	(  2  1 13)	  0  1
    150.5121	        	        	        	        	       0	(  3  1  7)	  0  1
    151.3581	        	        	        	        	       0	(  1  1 16)	  0  1
    156.1808	        	        	        	        	       0	(  0  0 18)	  0  1
    161.0523	        	        	        	        	       0	(  3  0 12)	  0  1
    161.1092	        	        	        	        	       0	(  4  0  0)	  0  1
    162.1924	        	        	        	        	       0	(  4  0  1)	  0  1
    163.6596	        	        	        	        	       0	(  3  1  8)	  0  1
    165.9214	        	        	        	        	       0	(  4  0  2)	  0  1
