MSG Master    CELL:    5.87820   5.87820  23.08764   90.0000   90.0000  120.0000   SPGR: P 63/m m c             TEMP:    488.45
  2   1280     2.52000     0.00000    -0.08889     0.00000     0.00000    0
    95    95     0     0     2
       0.00000      10.00000
     125.00000     130.00000
 2Theta	Yobs	Ycal	Yobs-Ycal	Backg	Posr	(hkl)	K
      0.7700	    0.00	  957.26	-2186.75	  819.85
      0.8700	    0.00	  954.14	-2186.75	  816.74
      0.9700	   48.00	  951.04	-2186.75	  813.64
      1.0700	   52.00	  947.96	-2186.75	  810.56
      1.1700	   48.00	  944.90	-2186.75	  807.49
      1.2700	   47.00	  941.85	-2186.75	  804.45
      1.3700	   63.00	  938.83	-2186.75	  801.43
      1.4700	  104.00	  935.83	-2186.75	  798.42
      1.5700	  302.00	  932.84	-2186.75	  795.44
      1.6700	  454.00	  929.87	-2186.75	  792.47
      1.7700	  595.00	  926.92	-2186.75	  789.52
      1.8700	  682.00	  923.99	-2186.75	  786.59
      1.9700	  716.00	  921.08	-2186.75	  783.68
      2.0700	  764.00	  918.19	-2186.75	  780.78
      2.1700	  811.00	  915.31	-2186.75	  777.91
      2.2700	  739.00	  912.45	-2186.75	  775.05
      2.3700	  737.00	  909.61	-2186.75	  772.21
      2.4700	  741.00	  906.79	-2186.75	  769.39
      2.5700	  751.00	  903.99	-2186.75	  766.58
      2.6700	  629.00	  901.20	-2186.75	  763.80
      2.7700	  655.00	  898.43	-2186.75	  761.03
      2.8700	  651.00	  895.68	-2186.75	  758.28
      2.9700	  576.00	  892.95	-2186.75	  755.55
      3.0700	  621.00	  890.23	-2186.75	  752.83
      3.1700	  614.00	  887.53	-2186.75	  750.13
      3.2700	  707.00	  884.85	-2186.75	  747.45
      3.3700	  911.00	  882.19	-2186.75	  744.79
      3.4700	 1054.00	  879.54	-2186.75	  742.14
      3.5700	 1224.00	  876.92	-2186.75	  739.51
      3.6700	 1273.00	  874.30	-2186.75	  736.90
      3.7700	 1476.00	  871.71	-2186.75	  734.31
      3.8700	 1473.00	  869.13	-2186.75	  731.73
      3.9700	 1576.00	  866.57	-2186.75	  729.17
      4.0700	 1607.00	  864.03	-2186.75	  726.62
      4.1700	 1767.00	  861.50	-2186.75	  724.10
      4.2700	 1666.00	  858.99	-2186.75	  721.59
      4.3700	 1677.00	  856.49	-2186.75	  719.09
      4.4700	 1605.00	  854.02	-2186.75	  716.61
      4.5700	 1536.00	  851.55	-2186.75	  714.15
      4.6700	 1480.00	  849.11	-2186.75	  711.71
      4.7700	 1438.00	  846.68	-2186.75	  709.28
      4.8700	 1386.00	  844.27	-2186.75	  706.87
      4.9700	 1379.00	  841.87	-2186.75	  704.47
      5.0700	 1293.00	  839.49	-2186.75	  702.09
      5.1700	 1402.00	  837.13	-2186.75	  699.73
      5.2700	 1299.00	  834.78	-2186.75	  697.38
      5.3700	 1231.00	  832.45	-2186.75	  695.04
      5.4700	 1212.00	  830.13	-2186.75	  692.73
      5.5700	 1205.00	  827.83	-2186.75	  690.43
      5.6700	 1167.00	  825.54	-2186.75	  688.14
      5.7700	 1123.00	  823.27	-2186.75	  685.87
      5.8700	 1075.00	  821.02	-2186.75	  683.62
      5.9700	 1097.00	  818.78	-2186.75	  681.38
      6.0700	 1041.00	  816.56	-2186.75	  679.16
      6.1700	 1061.00	  814.35	-2186.75	  676.95
      6.2700	 1004.00	  812.16	-2186.75	  674.76
      6.3700	 1051.00	  809.98	-2186.75	  672.58
      6.4700	 1039.00	  807.82	-2186.75	  670.42
      6.5700	 1002.00	  805.67	-2186.75	  668.27
      6.6700	  971.00	  803.54	-2186.75	  666.14
      6.7700	  902.00	  801.42	-2186.75	  664.02
      6.8700	  900.00	  799.32	-2186.75	  661.92
      6.9700	  901.00	  797.23	-2186.75	  659.83
      7.0700	  952.00	  795.16	-2186.75	  657.76
      7.1700	  939.00	  793.10	-2186.75	  655.70
      7.2700	  885.00	  791.06	-2186.75	  653.65
      7.3700	  864.00	  789.03	-2186.75	  651.62
      7.4700	  926.00	  787.01	-2186.75	  649.61
      7.5700	  863.00	  785.01	-2186.75	  647.61
      7.6700	  884.00	  783.02	-2186.75	  645.62
      7.7700	  830.00	  781.05	-2186.75	  643.65
      7.8700	  837.00	  779.09	-2186.75	  641.69
      7.9700	  803.00	  777.15	-2186.75	  639.75
      8.0700	  876.00	  775.22	-2186.75	  637.82
      8.1700	  855.00	  773.31	-2186.75	  635.90
      8.2700	  797.00	  771.40	-2186.75	  634.00
      8.3700	  794.00	  769.52	-2186.75	  632.11
      8.4700	  832.00	  767.64	-2186.75	  630.24
      8.5700	  805.00	  765.78	-2186.75	  628.38
      8.6700	  759.00	  763.93	-2186.75	  626.53
      8.7700	  753.00	  762.10	-2186.75	  624.70
      8.8700	  766.00	  760.28	-2186.75	  622.88
      8.9700	  774.00	  758.48	-2186.75	  621.07
      9.0700	  783.00	  756.68	-2186.75	  619.28
      9.1700	  764.00	  754.90	-2186.75	  617.50
      9.2700	  750.00	  753.14	-2186.75	  615.74
      9.3700	  809.00	  751.38	-2186.75	  613.98
      9.4700	  791.00	  749.64	-2186.75	  612.24
      9.5700	  764.00	  747.92	-2186.75	  610.52
      9.6700	  730.00	  746.20	-2186.75	  608.80
      9.7700	  745.00	  744.50	-2186.75	  607.10
      9.8700	  740.00	  742.82	-2186.75	  605.41
      9.9700	  749.00	  741.14	-2186.75	  603.74
     10.0700	  733.00	  741.72	-2195.47	  602.08
     10.1700	  721.00	  740.31	-2206.06	  600.43
     10.2700	  757.00	  738.97	-2168.72	  598.79
     10.3700	  764.00	  737.70	-2160.45	  597.17
     10.4700	  703.00	  736.54	-2220.29	  595.56
     10.5700	  736.00	  735.51	-2186.26	  593.96
     10.6700	  719.00	  734.69	-2202.44	  592.37
     10.7700	  733.00	  734.14	-2187.89	  590.80
     10.8700	  765.00	  733.96	-2155.71	  589.23
     10.9700	  714.00	  734.23	-2206.98	  587.68
     11.0700	  772.00	  735.01	-2149.76	  586.15
     11.1700	  765.00	  736.31	-2158.06	  584.62
     11.2700	  719.00	  738.17	-2205.92	  583.11
     11.3700	  720.00	  740.63	-2207.38	  581.61
     11.4700	  763.00	  743.78	-2167.53	  580.12
     11.5700	  752.00	  747.76	-2182.51	  578.64
     11.6700	  759.00	  752.78	-2180.53	  577.17
     11.7700	  758.00	  759.08	-2187.83	  575.72
     11.8700	  755.00	  766.90	-2198.65	  574.28
     11.9700	  824.00	  776.23	-2138.98	  572.84
     12.0700	  889.00	  786.49	-2084.24	  571.43
     12.1700	  855.00	  796.11	-2127.86	  570.02
     12.2700	  876.00	  802.08	-2112.83	  568.62
     12.3700	  855.00	  800.05	-2131.80	  567.24
     12.4700	  892.00	  787.65	-2082.40	  565.86
     12.5700	  819.00	  768.51	-2136.26	  564.50
     12.6700	  708.00	  749.25	-2228.00	  563.15
     12.7700	  714.00	  733.55	-2206.30	  561.81
     12.8700	  685.00	  721.99	-2223.74	  560.48
     12.9700	  691.00	  713.87	-2209.62	  559.16
     13.0700	  653.00	  708.18	-2241.93	  557.86
     13.1700	  685.00	  704.04	-2205.79	  556.56
     13.2700	  671.00	  700.83	-2216.58	  555.28
     13.3700	  646.00	  698.18	-2238.93	  554.00
     13.4700	  681.00	  695.89	-2201.64	  552.74
     13.5700	  650.00	  693.83	-2230.58	  551.49
     13.6700	  638.00	  691.95	-2240.70	  550.25
     13.7700	  667.00	  690.20	-2209.95	  549.01
     13.8700	  674.00	  688.55	-2201.30	  547.79
     13.9700	  662.00	  686.98	-2211.73	  546.58
     14.0700	  691.00	  685.48	-2181.23	  545.38
     14.1700	  685.00	  684.03	-2185.78	  544.20
     14.2700	  669.00	  682.63	-2200.38	  543.02
     14.3700	  661.00	  681.27	-2207.02	  541.85
     14.4700	  677.00	  679.95	-2189.70	  540.69
     14.5700	  676.00	  678.66	-2189.41	  539.54
     14.6700	  680.00	  677.39	-2184.14	  538.40
     14.7700	  658.00	  676.15	-2204.90	  537.27
     14.8700	  654.00	  674.93	-2207.68	  536.16
     14.9700	  668.00	  673.74	-2192.49	  535.05
     15.0700	  697.00	  672.56	-2162.31	  533.95
     15.1700	  643.00	  671.40	-2215.15	  532.86
     15.2700	  675.00	  670.26	-2182.01	  531.78
     15.3700	  683.00	  669.13	-2172.88	  530.71
     15.4700	  687.00	  668.02	-2167.77	  529.66
     15.5700	  660.00	  666.92	-2193.67	  528.61
     15.6700	  679.00	  665.84	-2173.59	  527.57
     15.7700	  684.00	  664.77	-2167.52	  526.54
     15.8700	  687.00	  663.71	-2163.46	  525.51
     15.9700	  677.00	  662.67	-2172.42	  524.50
     16.0700	  637.00	  661.63	-2211.38	  523.50
     16.1700	  687.00	  660.61	-2160.36	  522.51
     16.2700	  651.00	  659.60	-2195.35	  521.52
     16.3700	  656.00	  658.60	-2189.35	  520.55
     16.4700	  640.00	  657.62	-2204.37	  519.58
     16.5700	  678.00	  656.64	-2165.39	  518.63
     16.6700	  612.00	  655.67	-2230.42	  517.68
     16.7700	  687.00	  654.72	-2154.47	  516.74
     16.8700	  707.00	  653.77	-2133.52	  515.81
     16.9700	  659.00	  652.84	-2180.59	  514.89
     17.0700	  627.00	  651.91	-2211.66	  513.98
     17.1700	  723.00	  651.00	-2114.75	  513.08
     17.2700	  598.00	  650.09	-2238.84	  512.19
     17.3700	  631.00	  649.19	-2204.94	  511.30
     17.4700	  708.00	  648.31	-2127.06	  510.43
     17.5700	  648.00	  647.43	-2186.18	  509.56
     17.6700	  644.00	  646.56	-2189.31	  508.70
     17.7700	  621.00	  645.70	-2211.45	  507.85
     17.8700	  662.00	  644.85	-2169.60	  507.01
     17.9700	  625.00	  644.01	-2205.76	  506.17
     18.0700	  634.00	  643.18	-2195.93	  505.35
     18.1700	  599.00	  642.36	-2230.11	  504.53
     18.2700	  690.00	  641.55	-2138.30	  503.72
     18.3700	  680.00	  640.74	-2147.49	  502.92
     18.4700	  663.00	  639.94	-2163.69	  502.13
     18.5700	  658.00	  639.16	-2167.91	  501.34
     18.6700	  665.00	  638.38	-2160.13	  500.57
     18.7700	  670.00	  637.61	-2154.36	  499.80
     18.8700	  623.00	  636.84	-2200.59	  499.04
     18.9700	  660.00	  636.09	-2162.84	  498.29
     19.0700	  629.00	  636.57	-2194.32	  497.54
     19.1700	  695.00	  637.86	-2129.61	  496.81
     19.2700	  643.00	  637.20	-2180.95	  496.08
     19.3700	  617.00	  636.55	-2206.30	  495.36
     19.4700	  624.00	  635.91	-2198.66	  494.64
     19.5700	  611.00	  635.29	-2211.04	  493.94
     19.6700	  604.00	  634.67	-2217.42	  493.24
     19.7700	  619.00	  634.06	-2201.81	  492.55
     19.8700	  666.00	  633.47	-2154.22	  491.87
     19.9700	  608.00	  632.88	-2211.63	  491.19
     20.0700	  633.00	  632.36	-2186.11	  490.52
     20.1700	  599.00	  631.80	-2219.55	  489.86
     20.2700	  606.00	  631.25	-2212.00	  489.21
     20.3700	  641.00	  630.71	-2176.46	  488.56
     20.4700	  627.00	  630.18	-2189.93	  487.92
     20.5700	  649.00	  629.67	-2167.42	  487.29
     20.6700	  618.00	  629.16	-2197.91	  486.67
     20.7700	  635.00	  628.67	-2180.42	  486.05
     20.8700	  612.00	  628.19	-2202.94	  485.44
     20.9700	  633.00	  627.73	-2181.48	  484.84
     21.0700	  665.00	  627.27	-2149.02	  484.24
     21.1700	  608.00	  626.83	-2205.58	  483.65
     21.2700	  615.00	  626.41	-2198.16	  483.07
     21.3700	  600.00	  626.00	-2212.75	  482.49
     21.4700	  620.00	  625.60	-2192.35	  481.92
     21.5700	  629.00	  625.22	-2182.97	  481.36
     21.6700	  636.00	  624.85	-2175.60	  480.80
     21.7700	  589.00	  624.50	-2222.25	  480.25
     21.8700	  665.00	  624.17	-2145.92	  479.71
     21.9700	  624.00	  623.86	-2186.61	  479.18
     22.0700	  667.00	  623.56	-2143.31	  478.65
     22.1700	  616.00	  623.50	-2194.25	  478.12
     22.2700	  582.00	  623.24	-2227.99	  477.61
     22.3700	  603.00	  623.01	-2206.76	  477.10
     22.4700	  629.00	  622.81	-2180.56	  476.59
     22.5700	  651.00	  622.62	-2158.37	  476.10
     22.6700	  631.00	  622.47	-2178.22	  475.61
     22.7700	  660.00	  622.34	-2149.09	  475.12
     22.8700	  620.00	  622.25	-2189.00	  474.64
     22.9700	  632.00	  622.19	-2176.94	  474.17
     23.0700	  630.00	  622.17	-2178.92	  473.70
     23.1700	  615.00	  622.19	-2193.94	  473.24
     23.2700	  637.00	  622.27	-2172.02	  472.79
     23.3700	  647.00	  622.40	-2162.15	  472.34
     23.4700	  613.00	  622.60	-2196.35	  471.90
     23.5700	  635.00	  622.88	-2174.63	  471.46
     23.6700	  644.00	  623.25	-2166.00	  471.03
     23.7700	  602.00	  623.75	-2208.50	  470.61
     23.8700	  604.00	  624.41	-2207.16	  470.19
     23.9700	  610.00	  625.31	-2202.06	  469.78
     24.0700	  651.00	  626.55	-2162.30	  469.37
     24.1700	  595.00	  628.31	-2220.06	  468.97
     24.2700	  651.00	  630.84	-2166.59	  468.57
     24.3700	  655.00	  634.49	-2166.24	  468.18
     24.4700	  653.00	  639.64	-2173.39	  467.80
     24.5700	  673.00	  646.57	-2160.32	  467.42
     24.6700	  625.00	  655.25	-2217.00	  467.04
     24.7700	  706.00	  665.17	-2145.92	  466.67
     24.8700	  692.00	  674.98	-2169.73	  466.31
     24.9700	  726.00	  682.45	-2143.20	  465.95
     25.0700	  748.00	  684.47	-2123.22	  465.60
     25.1700	  785.00	  679.59	-2081.33	  465.25
     25.2700	  701.00	  670.15	-2155.90	  464.91
     25.3700	  665.00	  660.41	-2182.16	  464.57
     25.4700	  630.00	  652.74	-2209.49	  464.24
     25.5700	  618.00	  647.70	-2216.45	  463.91
     25.6700	  651.00	  644.99	-2180.74	  463.59
     25.7700	  654.00	  644.07	-2176.82	  463.28
     25.8700	  634.00	  644.44	-2197.19	  462.96
     25.9700	  641.00	  645.73	-2191.48	  462.66
     26.0700	  658.00	  647.73	-2176.48	  462.36
     26.1700	  641.00	  650.36	-2196.11	  462.06
     26.2700	  654.00	  653.61	-2186.36	  461.77
     26.3700	  676.00	  657.52	-2168.27	  461.48
     26.4700	  621.00	  662.17	-2227.92	  461.20
     26.5700	  675.00	  667.67	-2179.42	  460.92
     26.6700	  672.00	  674.19	-2188.94	  460.65
     26.7700	  675.00	  681.94	-2193.69	  460.38
     26.8700	  680.00	  691.19	-2197.94	  460.11
     26.9700	  625.00	  702.33	-2264.08	  459.86
     27.0700	  681.00	  715.89	-2221.64	  459.60
     27.1700	  669.00	  732.57	-2250.32	  459.35
     27.2700	  719.00	  753.44	-2221.19	  459.11
     27.3700	  763.00	  780.16	-2203.91	  458.86
     27.4700	  786.00	  815.76	-2216.51	  458.63
     27.5700	  792.00	  866.72	-2261.47	  458.40
     27.6700	  852.00	  947.48	-2282.23	  458.17
     27.7700	  919.00	 1088.17	-2355.92	  457.94
     27.8700	  998.00	 1343.88	-2532.63	  457.73
     27.9700	 1327.00	 1800.40	-2660.15	  457.51
     28.0700	 1985.00	 2563.26	-2765.01	  457.30
     28.1700	 3299.00	 3712.28	-2600.03	  457.09
     28.2700	 5491.00	 5206.07	-1901.82	  456.89
     28.3700	 7564.00	 6747.39	-1370.14	  456.69
     28.4700	 8747.00	 7726.12	-1165.87	  456.50
     28.5700	 8201.00	 7490.92	-1476.67	  456.31
     28.6700	 6210.00	 6180.43	-2157.18	  456.12
     28.7700	 4429.00	 4787.04	-2544.79	  455.94
     28.8700	 3782.00	 4007.21	-2411.96	  455.76
     28.9700	 3792.00	 3926.65	-2321.40	  455.59
     29.0700	 4561.00	 4243.35	-1869.10	  455.41
     29.1700	 4901.00	 4489.29	-1775.04	  455.25
     29.2700	 4527.00	 4244.66	-1904.41	  455.09
     29.3700	 3498.00	 3480.86	-2169.61	  454.93
     29.4700	 2335.00	 2580.40	-2432.15	  454.77
     29.5700	 1629.00	 1849.48	-2407.23	  454.62
     29.6700	 1322.00	 1368.68	-2233.43	  454.47
     29.7700	 1078.00	 1093.82	-2202.57	  454.33
     29.8700	  999.00	  946.78	-2134.53	  454.18
     29.9700	  838.00	  865.46	-2214.21	  454.05
     30.0700	  762.00	  815.16	-2239.91	  453.91
     30.1700	  773.00	  780.37	-2194.12	  453.78
     30.2700	  745.00	  754.75	-2196.50	  453.66
     30.3700	  781.00	  735.66	-2141.41	  453.53
     30.4700	  761.00	  722.05	-2147.80	  453.41
     30.5700	  727.00	  713.89	-2173.64	  453.30
     30.6700	  766.00	  711.99	-2132.74	  453.18
     30.7700	  720.00	  717.62	-2184.37	  453.07
     30.8700	  700.00	  731.50	-2218.25	  452.97
     30.9700	  732.00	  752.19	-2206.94	  452.86
     31.0700	  772.00	  774.68	-2189.43	  452.76
     31.1700	  819.00	  789.74	-2157.49	  452.67
     31.2700	  798.00	  786.25	-2175.00	  452.57
     31.3700	  740.00	  761.18	-2207.93	  452.48
     31.4700	  704.00	  725.92	-2208.67	  452.39
     31.5700	  758.00	  693.33	-2122.08	  452.31
     31.6700	  723.00	  668.86	-2132.61	  452.23
     31.7700	  678.00	  652.65	-2161.40	  452.15
     31.8700	  717.00	  642.63	-2112.38	  452.08
     31.9700	  651.00	  636.46	-2172.21	  452.00
     32.0700	  679.00	  632.42	-2140.17	  451.93
     32.1700	  677.00	  629.56	-2139.31	  451.87
     32.2700	  680.00	  627.43	-2134.18	  451.80
     32.3700	  623.00	  625.82	-2189.57	  451.74
     32.4700	  647.00	  624.67	-2164.42	  451.68
     32.5700	  641.00	  623.88	-2169.63	  451.63
     32.6700	  651.00	  623.46	-2159.21	  451.58
     32.7700	  642.00	  623.43	-2168.18	  451.53
     32.8700	  623.00	  623.81	-2187.56	  451.48
     32.9700	  684.00	  624.67	-2127.42	  451.43
     33.0700	  654.00	  626.10	-2158.85	  451.39
     33.1700	  663.00	  628.26	-2152.01	  451.35
     33.2700	  675.00	  631.42	-2143.17	  451.32
     33.3700	  667.00	  636.12	-2155.87	  451.28
     33.4700	  666.00	  643.35	-2164.10	  451.25
     33.5700	  692.00	  655.04	-2149.79	  451.22
     33.6700	  704.00	  674.57	-2157.32	  451.20
     33.7700	  732.00	  707.08	-2161.83	  451.17
     33.8700	  780.00	  758.84	-2165.59	  451.15
     33.9700	  871.00	  834.77	-2150.52	  451.13
     34.0700	  982.00	  933.58	-2138.33	  451.11
     34.1700	 1142.00	 1042.40	-2087.15	  451.10
     34.2700	 1231.00	 1133.71	-2089.46	  451.09
     34.3700	 1296.00	 1169.36	-2060.11	  451.08
     34.4700	 1244.00	 1124.55	-2067.30	  451.07
     34.5700	 1045.00	 1020.27	-2162.02	  451.06
     34.6700	  906.00	  903.37	-2184.12	  451.06
     34.7700	  855.00	  804.60	-2136.35	  451.06
     34.8700	  714.00	  733.34	-2206.09	  451.06
     34.9700	  730.00	  687.24	-2143.99	  451.06
     35.0700	  710.00	  659.42	-2136.17	  451.07
     35.1700	  704.00	  642.96	-2125.71	  451.08
     35.2700	  664.00	  632.84	-2155.59	  451.08
     35.3700	  646.00	  626.11	-2166.86	  451.10
     35.4700	  648.00	  621.27	-2160.02	  451.11
     35.5700	  615.00	  617.58	-2189.33	  451.12
     35.6700	  608.00	  614.69	-2193.44	  451.14
     35.7700	  625.00	  612.38	-2174.12	  451.16
     35.8700	  615.00	  610.51	-2182.26	  451.18
     35.9700	  598.00	  609.05	-2197.80	  451.21
     36.0700	  619.00	  607.82	-2175.57	  451.23
     36.1700	  610.00	  606.82	-2183.57	  451.26
     36.2700	  621.00	  606.03	-2171.78	  451.29
     36.3700	  600.00	  605.42	-2192.17	  451.32
     36.4700	  600.00	  604.98	-2191.73	  451.35
     36.5700	  637.00	  604.69	-2154.44	  451.38
     36.6700	  587.00	  604.75	-2204.50	  451.42
     36.7700	  642.00	  604.78	-2149.53	  451.45
     36.8700	  632.00	  604.98	-2159.73	  451.49
     36.9700	  602.00	  605.40	-2190.15	  451.53
     37.0700	  613.00	  606.06	-2179.81	  451.57
     37.1700	  614.00	  607.08	-2179.83	  451.62
     37.2700	  622.00	  609.08	-2173.83	  451.66
     37.3700	  659.00	  611.33	-2139.08	  451.71
     37.4700	  589.00	  614.74	-2212.49	  451.76
     37.5700	  672.00	  620.02	-2134.77	  451.81
     37.6700	  608.00	  628.22	-2206.97	  451.86
     37.7700	  610.00	  640.73	-2217.48	  451.91
     37.8700	  675.00	  658.97	-2170.72	  451.97
     37.9700	  634.00	  683.71	-2236.46	  452.02
     38.0700	  761.00	  712.12	-2137.87	  452.08
     38.1700	  759.00	  744.37	-2172.12	  452.14
     38.2700	  773.00	  771.46	-2185.21	  452.19
     38.3700	  761.00	  783.63	-2209.38	  452.26
     38.4700	  750.00	  773.54	-2210.29	  452.32
     38.5700	  744.00	  744.66	-2187.41	  452.38
     38.6700	  690.00	  708.96	-2205.71	  452.45
     38.7700	  657.00	  676.23	-2205.98	  452.51
     38.8700	  631.00	  650.65	-2206.40	  452.58
     38.9700	  615.00	  632.71	-2204.46	  452.65
     39.0700	  597.00	  621.06	-2210.81	  452.72
     39.1700	  621.00	  613.85	-2179.60	  452.79
     39.2700	  586.00	  609.39	-2210.14	  452.86
     39.3700	  579.00	  606.53	-2214.28	  452.93
     39.4700	  618.00	  604.58	-2173.33	  453.00
     39.5700	  654.00	  601.99	-2134.74	  453.08
     39.6700	  611.00	  600.93	-2176.68	  453.16
     39.7700	  576.00	  600.11	-2210.86	  453.23
     39.8700	  641.00	  599.46	-2145.21	  453.31
     39.9700	  613.00	  598.95	-2172.70	  453.39
     40.0700	  632.00	  598.56	-2153.31	  453.47
     40.1700	  585.00	  598.25	-2200.00	  453.55
     40.2700	  623.00	  598.02	-2161.77	  453.63
     40.3700	  610.00	  597.85	-2174.60	  453.71
     40.4700	  613.00	  597.74	-2171.49	  453.80
     40.5700	  591.00	  597.68	-2193.43	  453.88
     40.6700	  593.00	  598.21	-2191.96	  453.97
     40.7700	  570.00	  598.25	-2215.00	  454.05
     40.8700	  594.00	  598.32	-2191.07	  454.14
     40.9700	  559.00	  598.50	-2226.25	  454.23
     41.0700	  574.00	  598.66	-2211.41	  454.32
     41.1700	  603.00	  598.87	-2182.62	  454.40
     41.2700	  616.00	  599.13	-2169.88	  454.49
     41.3700	  598.00	  599.44	-2188.19	  454.58
     41.4700	  605.00	  599.82	-2181.57	  454.68
     41.5700	  595.00	  600.28	-2192.03	  454.77
     41.6700	  591.00	  600.84	-2196.59	  454.86
     41.7700	  618.00	  601.52	-2170.27	  454.95
     41.8700	  618.00	  602.37	-2171.12	  455.05
     41.9700	  605.00	  603.48	-2185.23	  455.14
     42.0700	  600.00	  604.98	-2191.73	  455.24
     42.1700	  622.00	  607.15	-2171.90	  455.33
     42.2700	  622.00	  610.44	-2175.19	  455.43
     42.3700	  601.00	  615.53	-2201.28	  455.52
     42.4700	  627.00	  623.30	-2183.05	  455.62
     42.5700	  614.00	  634.60	-2207.35	  455.72
     42.6700	  655.00	  650.06	-2181.81	  455.82
     42.7700	  638.00	  669.19	-2217.94	  455.91
     42.8700	  676.00	  689.85	-2200.60	  456.01
     42.9700	  637.00	  707.66	-2257.41	  456.11
     43.0700	  681.00	  716.58	-2222.33	  456.21
     43.1700	  670.00	  712.39	-2229.14	  456.31
     43.2700	  684.00	  696.88	-2199.63	  456.41
     43.3700	  675.00	  676.35	-2188.10	  456.51
     43.4700	  633.00	  656.40	-2210.15	  456.62
     43.5700	  627.00	  639.95	-2199.70	  456.72
     43.6700	  640.00	  627.71	-2174.46	  456.82
     43.7700	  596.00	  619.27	-2210.02	  456.92
     43.8700	  607.00	  613.83	-2193.58	  457.02
     43.9700	  563.00	  610.43	-2234.18	  457.13
     44.0700	  601.00	  608.52	-2194.27	  457.23
     44.1700	  627.00	  607.18	-2166.93	  457.33
     44.2700	  598.00	  606.28	-2195.03	  457.43
     44.3700	  622.00	  605.66	-2170.41	  457.54
     44.4700	  630.00	  605.25	-2162.00	  457.64
     44.5700	  615.00	  604.94	-2176.69	  457.75
     44.6700	  612.00	  604.74	-2179.49	  457.85
     44.7700	  616.00	  604.62	-2175.37	  457.95
     44.8700	  597.00	  604.56	-2194.31	  458.06
     44.9700	  616.00	  604.57	-2175.32	  458.16
     45.0700	  650.00	  604.88	-2141.63	  458.27
     45.1700	  583.00	  604.97	-2208.72	  458.37
     45.2700	  631.00	  605.11	-2160.86	  458.47
     45.3700	  607.00	  605.27	-2185.02	  458.58
     45.4700	  565.00	  605.47	-2227.22	  458.68
     45.5700	  637.00	  605.80	-2155.55	  458.79
     45.6700	  654.00	  606.06	-2138.81	  458.89
     45.7700	  612.00	  606.36	-2181.11	  459.00
     45.8700	  612.00	  606.68	-2181.43	  459.10
     45.9700	  619.00	  607.04	-2174.79	  459.21
     46.0700	  589.00	  607.44	-2205.19	  459.31
     46.1700	  613.00	  607.87	-2181.62	  459.42
     46.2700	  626.00	  608.35	-2169.10	  459.52
     46.3700	  569.00	  608.88	-2226.63	  459.62
     46.4700	  593.00	  609.46	-2203.21	  459.73
     46.5700	  646.00	  610.24	-2150.99	  459.83
     46.6700	  615.00	  610.94	-2182.69	  459.94
     46.7700	  586.00	  611.52	-2212.27	  460.04
     46.8700	  639.00	  612.40	-2160.15	  460.14
     46.9700	  626.00	  613.41	-2174.16	  460.25
     47.0700	  609.00	  614.59	-2192.34	  460.35
     47.1700	  623.00	  616.00	-2179.75	  460.45
     47.2700	  622.00	  617.79	-2182.54	  460.55
     47.3700	  591.00	  620.15	-2215.90	  460.66
     47.4700	  591.00	  623.43	-2219.18	  460.76
     47.5700	  611.00	  628.10	-2203.85	  460.86
     47.6700	  642.00	  634.74	-2179.49	  460.96
     47.7700	  593.00	  643.91	-2237.66	  461.06
     47.8700	  657.00	  655.95	-2185.70	  461.17
     47.9700	  649.00	  670.65	-2208.40	  461.27
     48.0700	  652.00	  686.89	-2221.64	  461.37
     48.1700	  691.00	  702.22	-2197.97	  461.47
     48.2700	  701.00	  712.91	-2198.66	  461.57
     48.3700	  681.00	  715.49	-2221.24	  461.67
     48.4700	  688.00	  709.90	-2208.65	  461.77
     48.5700	  693.00	  698.42	-2192.17	  461.86
     48.6700	  667.00	  685.57	-2205.32	  461.96
     48.7700	  593.00	  674.24	-2267.99	  462.06
     48.8700	  660.00	  665.83	-2192.58	  462.16
     48.9700	  636.00	  660.76	-2211.51	  462.26
     49.0700	  636.00	  658.89	-2209.64	  462.35
     49.1700	  641.00	  659.84	-2205.59	  462.45
     49.2700	  603.00	  663.27	-2247.02	  462.54
     49.3700	  659.00	  669.05	-2196.80	  462.64
     49.4700	  672.00	  677.51	-2192.26	  462.73
     49.5700	  665.00	  689.90	-2211.65	  462.83
     49.6700	  697.00	  709.36	-2199.11	  462.92
     49.7700	  728.00	  742.93	-2201.68	  463.02
     49.8700	  821.00	  804.38	-2170.13	  463.11
     49.9700	  914.00	  916.61	-2189.36	  463.20
     50.0700	 1168.00	 1110.23	-2128.98	  463.29
     50.1700	 1555.00	 1414.24	-2045.99	  463.38
     50.2700	 1975.00	 1837.71	-2049.46	  463.48
     50.3700	 2401.00	 2346.83	-2132.58	  463.57
     50.4700	 2868.00	 2848.86	-2167.61	  463.66
     50.5700	 3220.00	 3197.77	-2164.52	  463.74
     50.6700	 3178.00	 3251.50	-2260.25	  463.83
     50.7700	 2870.00	 2982.03	-2298.78	  463.92
     50.8700	 2433.00	 2507.81	-2261.56	  464.01
     50.9700	 1947.00	 1989.33	-2229.08	  464.09
     51.0700	 1389.00	 1539.12	-2336.87	  464.18
     51.1700	 1135.00	 1206.96	-2258.71	  464.27
     51.2700	  977.00	  993.24	-2202.99	  464.35
     51.3700	  895.00	  871.27	-2163.02	  464.43
     51.4700	  866.00	  807.71	-2128.46	  464.52
     51.5700	  782.00	  775.05	-2179.80	  464.60
     51.6700	  768.00	  755.53	-2174.28	  464.68
     51.7700	  775.00	  740.30	-2152.05	  464.76
     51.8700	  762.00	  726.66	-2151.41	  464.84
     51.9700	  723.00	  714.85	-2178.60	  464.92
     52.0700	  751.00	  705.36	-2141.11	  465.00
     52.1700	  722.00	  698.27	-2163.02	  465.08
     52.2700	  728.00	  693.12	-2151.87	  465.16
     52.3700	  685.00	  689.12	-2190.87	  465.24
     52.4700	  717.00	  685.66	-2155.41	  465.31
     52.5700	  696.00	  682.82	-2173.57	  465.39
     52.6700	  678.00	  681.21	-2189.96	  465.46
     52.7700	  685.00	  681.57	-2183.32	  465.54
     52.8700	  660.00	  684.76	-2211.51	  465.61
     52.9700	  678.00	  691.94	-2200.69	  465.68
     53.0700	  687.00	  704.71	-2204.46	  465.75
     53.1700	  703.00	  725.34	-2209.09	  465.82
     53.2700	  785.00	  756.64	-2158.39	  465.89
     53.3700	  811.00	  801.55	-2177.30	  465.96
     53.4700	  877.00	  862.38	-2172.13	  466.03
     53.5700	  965.00	  939.20	-2160.95	  466.10
     53.6700	 1064.00	 1028.96	-2151.71	  466.16
     53.7700	 1172.00	 1123.24	-2137.99	  466.23
     53.8700	 1219.00	 1206.72	-2174.47	  466.30
     53.9700	 1269.00	 1258.52	-2176.27	  466.36
     54.0700	 1281.00	 1261.11	-2166.86	  466.42
     54.1700	 1291.00	 1213.39	-2109.14	  466.48
     54.2700	 1155.00	 1131.94	-2163.69	  466.55
     54.3700	 1042.00	 1038.29	-2183.04	  466.61
     54.4700	  923.00	  948.48	-2212.23	  466.67
     54.5700	  890.00	  871.37	-2168.12	  466.73
     54.6700	  848.00	  810.31	-2149.06	  466.78
     54.7700	  703.00	  765.16	-2248.91	  466.84
     54.8700	  714.00	  733.72	-2206.47	  466.90
     54.9700	  713.00	  712.93	-2186.69	  466.95
     55.0700	  727.00	  699.83	-2159.58	  467.00
     55.1700	  636.00	  691.95	-2242.70	  467.06
     55.2700	  681.00	  687.57	-2193.32	  467.11
     55.3700	  719.00	  685.56	-2153.31	  467.16
     55.4700	  686.00	  685.31	-2186.06	  467.21
     55.5700	  718.00	  686.50	-2155.25	  467.26
     55.6700	  726.00	  689.01	-2149.75	  467.31
     55.7700	  663.00	  692.88	-2216.63	  467.36
     55.8700	  649.00	  698.29	-2236.04	  467.40
     55.9700	  698.00	  705.62	-2194.37	  467.45
     56.0700	  695.00	  715.60	-2207.35	  467.49
     56.1700	  674.00	  729.64	-2242.39	  467.54
     56.2700	  729.00	  750.34	-2208.09	  467.58
     56.3700	  796.00	  782.24	-2172.99	  467.62
     56.4700	  826.00	  832.45	-2193.20	  467.66
     56.5700	  961.00	  911.18	-2136.93	  467.70
     56.6700	 1005.00	 1030.83	-2212.58	  467.74
     56.7700	 1195.00	 1203.61	-2195.36	  467.78
     56.8700	 1427.00	 1437.03	-2196.78	  467.81
     56.9700	 1744.00	 1728.37	-2171.12	  467.85
     57.0700	 2064.00	 2058.65	-2181.40	  467.88
     57.1700	 2383.00	 2387.09	-2190.84	  467.92
     57.2700	 2547.00	 2649.37	-2289.12	  467.95
     57.3700	 2793.00	 2771.13	-2164.88	  467.98
     57.4700	 2633.00	 2708.78	-2262.53	  468.01
     57.5700	 2414.00	 2485.18	-2257.93	  468.04
     57.6700	 2092.00	 2170.94	-2265.69	  468.07
     57.7700	 1802.00	 1837.24	-2221.99	  468.09
     57.8700	 1427.00	 1532.87	-2292.62	  468.12
     57.9700	 1230.00	 1283.14	-2239.89	  468.14
     58.0700	 1045.00	 1095.46	-2237.21	  468.17
     58.1700	  985.00	  965.40	-2167.15	  468.19
     58.2700	  895.00	  882.63	-2174.38	  468.21
     58.3700	  800.00	  836.15	-2222.90	  468.23
     58.4700	  785.00	  817.55	-2219.30	  468.25
     58.5700	  779.00	  822.24	-2229.99	  468.27
     58.6700	  856.00	  848.64	-2179.39	  468.29
     58.7700	  877.00	  896.47	-2206.22	  468.30
     58.8700	  954.00	  964.71	-2197.46	  468.32
     58.9700	 1058.00	 1049.30	-2178.05	  468.33
     59.0700	 1098.00	 1141.80	-2230.55	  468.35
     59.1700	 1197.00	 1229.46	-2219.21	  468.36
     59.2700	 1284.00	 1299.54	-2202.29	  468.37
     59.3700	 1256.00	 1345.59	-2276.34	  468.38
     59.4700	 1337.00	 1367.13	-2216.88	  468.39
     59.5700	 1307.00	 1363.75	-2243.50	  468.39
     59.6700	 1383.00	 1335.73	-2139.48	  468.40
     59.7700	 1385.00	 1290.61	-2092.36	  468.41
     59.8700	 1268.00	 1243.26	-2162.01	  468.41
     59.9700	 1266.00	 1208.39	-2129.14	  468.41
     60.0700	 1261.00	 1195.93	-2121.68	  468.41
     60.1700	 1350.00	 1211.71	-2048.46	  468.41
     60.2700	 1364.00	 1259.07	-2081.82	  468.41
     60.3700	 1446.00	 1337.83	-2078.58	  468.41
     60.4700	 1483.00	 1440.63	-2144.38	  468.41
     60.5700	 1621.00	 1549.97	-2115.72	  468.41
     60.6700	 1657.00	 1638.24	-2167.99	  468.40
     60.7700	 1627.00	 1673.65	-2233.40	  468.39
     60.8700	 1587.00	 1636.02	-2235.77	  468.39
     60.9700	 1474.00	 1531.50	-2244.25	  468.38
     61.0700	 1355.00	 1387.23	-2218.98	  468.37
     61.1700	 1197.00	 1233.26	-2223.01	  468.36
     61.2700	 1068.00	 1091.99	-2210.74	  468.35
     61.3700	  932.00	  976.46	-2231.21	  468.33
     61.4700	  857.00	  891.81	-2221.56	  468.32
     61.5700	  860.00	  837.76	-2164.51	  468.30
     61.6700	  825.00	  811.69	-2173.44	  468.29
     61.7700	  836.00	  811.32	-2162.07	  468.27
     61.8700	  836.00	  836.54	-2187.29	  468.25
     61.9700	  921.00	  889.60	-2155.35	  468.23
     62.0700	 1001.00	  973.99	-2159.74	  468.21
     62.1700	 1073.00	 1092.01	-2205.76	  468.19
     62.2700	 1257.00	 1241.89	-2171.64	  468.16
     62.3700	 1523.00	 1414.84	-2078.59	  468.14
     62.4700	 1684.00	 1593.01	-2095.76	  468.11
     62.5700	 1749.00	 1748.16	-2185.91	  468.08
     62.6700	 1856.00	 1845.34	-2176.09	  468.06
     62.7700	 1782.00	 1855.82	-2260.57	  468.03
     62.8700	 1745.00	 1775.74	-2217.49	  468.00
     62.9700	 1605.00	 1629.24	-2210.99	  467.96
     63.0700	 1443.00	 1451.61	-2195.36	  467.93
     63.1700	 1280.00	 1273.21	-2179.96	  467.90
     63.2700	 1036.00	 1114.16	-2264.91	  467.86
     63.3700	  918.00	  984.89	-2253.64	  467.83
     63.4700	  885.00	  887.91	-2189.66	  467.79
     63.5700	  843.00	  820.30	-2164.05	  467.75
     63.6700	  818.00	  776.43	-2145.18	  467.71
     63.7700	  730.00	  750.14	-2206.89	  467.67
     63.8700	  696.00	  736.32	-2227.07	  467.63
     63.9700	  722.00	  731.54	-2196.29	  467.58
     64.0700	  753.00	  734.21	-2167.96	  467.54
     64.1700	  749.00	  743.96	-2181.71	  467.49
     64.2700	  772.00	  763.32	-2178.07	  467.45
     64.3700	  801.00	  794.59	-2180.34	  467.40
     64.4700	  809.00	  841.19	-2218.94	  467.35
     64.5700	  932.00	  906.63	-2161.38	  467.30
     64.6700	 1017.00	  993.43	-2163.18	  467.25
     64.7700	 1183.00	 1101.87	-2105.62	  467.20
     64.8700	 1304.00	 1228.45	-2111.20	  467.14
     64.9700	 1265.00	 1364.42	-2286.17	  467.09
     65.0700	 1444.00	 1495.20	-2237.95	  467.03
     65.1700	 1583.00	 1601.81	-2205.56	  466.97
     65.2700	 1655.00	 1664.90	-2196.65	  466.92
     65.3700	 1611.00	 1670.76	-2246.51	  466.86
     65.4700	 1505.00	 1617.99	-2299.74	  466.80
     65.5700	 1513.00	 1518.82	-2192.57	  466.73
     65.6700	 1332.00	 1393.83	-2248.58	  466.67
     65.7700	 1147.00	 1263.03	-2302.78	  466.61
     65.8700	 1065.00	 1140.61	-2262.36	  466.54
     65.9700	  940.00	 1034.51	-2281.26	  466.48
     66.0700	  953.00	  947.56	-2181.31	  466.41
     66.1700	  882.00	  879.39	-2184.14	  466.34
     66.2700	  771.00	  827.93	-2243.68	  466.27
     66.3700	  764.00	  790.21	-2212.96	  466.20
     66.4700	  713.00	  763.27	-2237.02	  466.13
     66.5700	  752.00	  744.38	-2179.13	  466.05
     66.6700	  705.00	  731.42	-2213.17	  465.98
     66.7700	  689.00	  722.88	-2220.63	  465.90
     66.8700	  691.00	  717.82	-2213.57	  465.83
     66.9700	  733.00	  715.80	-2169.55	  465.75
     67.0700	  699.00	  716.45	-2204.20	  465.67
     67.1700	  705.00	  720.04	-2201.79	  465.59
     67.2700	  717.00	  727.19	-2196.94	  465.51
     67.3700	  751.00	  739.29	-2175.04	  465.43
     67.4700	  787.00	  758.38	-2158.13	  465.35
     67.5700	  781.00	  788.07	-2193.82	  465.26
     67.6700	  850.00	  833.16	-2169.91	  465.18
     67.7700	  961.00	  899.91	-2125.66	  465.09
     67.8700	  962.00	  995.23	-2219.98	  465.00
     67.9700	 1075.00	 1125.53	-2237.28	  464.91
     68.0700	 1296.00	 1294.98	-2185.73	  464.82
     68.1700	 1516.00	 1503.31	-2174.06	  464.73
     68.2700	 1822.00	 1743.60	-2108.35	  464.64
     68.3700	 2046.00	 2000.47	-2141.22	  464.55
     68.4700	 2229.00	 2248.44	-2206.19	  464.45
     68.5700	 2443.00	 2452.28	-2196.03	  464.36
     68.6700	 2540.00	 2572.21	-2218.96	  464.26
     68.7700	 2548.00	 2578.86	-2217.61	  464.16
     68.8700	 2491.00	 2470.36	-2166.11	  464.07
     68.9700	 2289.00	 2273.60	-2171.35	  463.97
     69.0700	 1959.00	 2028.15	-2255.90	  463.87
     69.1700	 1755.00	 1770.29	-2202.04	  463.76
     69.2700	 1556.00	 1526.59	-2157.34	  463.66
     69.3700	 1358.00	 1313.56	-2142.31	  463.56
     69.4700	 1139.00	 1138.96	-2186.71	  463.45
     69.5700	 1083.00	 1003.71	-2107.46	  463.35
     69.6700	  960.00	  904.01	-2130.76	  463.24
     69.7700	  935.00	  833.58	-2085.33	  463.13
     69.8700	  866.00	  785.43	-2106.19	  463.02
     69.9700	  806.00	  753.21	-2133.96	  462.91
     70.0700	  824.00	  731.76	-2094.51	  462.80
     70.1700	  765.00	  717.37	-2139.12	  462.69
     70.2700	  741.00	  707.55	-2153.30	  462.58
     70.3700	  720.00	  700.72	-2167.47	  462.46
     70.4700	  709.00	  695.97	-2173.72	  462.35
     70.5700	  684.00	  692.75	-2195.50	  462.23
     70.6700	  684.00	  690.82	-2193.57	  462.12
     70.7700	  707.00	  690.06	-2169.81	  462.00
     70.8700	  750.00	  690.49	-2127.24	  461.88
     70.9700	  705.00	  692.28	-2174.03	  461.76
     71.0700	  705.00	  695.76	-2177.51	  461.64
     71.1700	  704.00	  701.54	-2184.29	  461.52
     71.2700	  734.00	  710.62	-2163.37	  461.39
     71.3700	  747.00	  724.57	-2164.32	  461.27
     71.4700	  730.00	  745.61	-2202.36	  461.15
     71.5700	  762.00	  776.56	-2201.31	  461.02
     71.6700	  849.00	  821.48	-2159.23	  460.89
     71.7700	  878.00	  884.25	-2193.00	  460.77
     71.8700	 1042.00	  968.71	-2113.46	  460.64
     71.9700	 1091.00	 1077.56	-2173.31	  460.51
     72.0700	 1287.00	 1211.35	-2111.10	  460.38
     72.1700	 1366.00	 1367.38	-2188.13	  460.25
     72.2700	 1571.00	 1538.62	-2154.37	  460.11
     72.3700	 1717.00	 1712.97	-2182.72	  459.98
     72.4700	 1787.00	 1872.65	-2272.40	  459.85
     72.5700	 2003.00	 1995.23	-2178.98	  459.71
     72.6700	 2007.00	 2057.99	-2237.74	  459.57
     72.7700	 1977.00	 2047.00	-2256.75	  459.44
     72.8700	 1894.00	 1964.74	-2257.49	  459.30
     72.9700	 1844.00	 1828.70	-2171.45	  459.16
     73.0700	 1666.00	 1662.27	-2183.02	  459.02
     73.1700	 1465.00	 1487.47	-2209.22	  458.88
     73.2700	 1328.00	 1319.02	-2177.77	  458.74
     73.3700	 1164.00	 1168.11	-2190.86	  458.60
     73.4700	  987.00	 1040.37	-2240.12	  458.45
     73.5700	  932.00	  937.42	-2192.17	  458.31
     73.6700	  826.00	  857.98	-2218.73	  458.17
     73.7700	  806.00	  798.96	-2179.71	  458.02
     73.8700	  755.00	  756.47	-2188.22	  457.87
     73.9700	  733.00	  726.62	-2180.37	  457.73
     74.0700	  766.00	  705.98	-2126.73	  457.58
     74.1700	  720.00	  691.85	-2158.60	  457.43
     74.2700	  700.00	  681.75	-2168.50	  457.28
     74.3700	  697.00	  675.44	-2165.19	  457.13
     74.4700	  710.00	  671.53	-2148.28	  456.98
     74.5700	  660.00	  669.49	-2196.24	  456.83
     74.6700	  628.00	  668.97	-2227.72	  456.67
     74.7700	  641.00	  669.69	-2215.44	  456.52
     74.8700	  681.00	  671.36	-2177.11	  456.36
     74.9700	  691.00	  673.57	-2169.32	  456.21
     75.0700	  674.00	  676.01	-2188.76	  456.05
     75.1700	  722.00	  678.11	-2142.86	  455.90
     75.2700	  691.00	  679.34	-2175.09	  455.74
     75.3700	  713.00	  679.32	-2153.07	  455.58
     75.4700	  738.00	  678.00	-2126.75	  455.42
     75.5700	  702.00	  675.77	-2160.52	  455.26
     75.6700	  716.00	  673.31	-2144.06	  455.10
     75.7700	  681.00	  671.42	-2177.17	  454.94
     75.8700	  718.00	  670.90	-2139.65	  454.78
     75.9700	  727.00	  672.81	-2132.56	  454.61
     76.0700	  707.00	  678.05	-2157.80	  454.45
     76.1700	  717.00	  687.66	-2157.41	  454.29
     76.2700	  779.00	  702.68	-2110.43	  454.12
     76.3700	  715.00	  724.05	-2195.80	  453.96
     76.4700	  797.00	  752.45	-2142.20	  453.79
     76.5700	  769.00	  788.10	-2205.85	  453.62
     76.6700	  834.00	  830.52	-2183.27	  453.46
     76.7700	  936.00	  878.34	-2129.09	  453.29
     76.8700	  892.00	  929.13	-2223.88	  453.12
     76.9700	  918.00	  979.23	-2247.98	  452.95
     77.0700	 1013.00	 1023.68	-2197.43	  452.78
     77.1700	 1079.00	 1056.64	-2164.39	  452.61
     77.2700	 1025.00	 1072.60	-2234.35	  452.44
     77.3700	 1088.00	 1068.40	-2167.15	  452.27
     77.4700	 1072.00	 1044.78	-2159.53	  452.09
     77.5700	  970.00	 1005.96	-2222.71	  451.92
     77.6700	  899.00	  957.77	-2245.52	  451.75
     77.7700	  836.00	  905.60	-2256.35	  451.57
     77.8700	  855.00	  854.25	-2186.00	  451.40
     77.9700	  804.00	  806.70	-2189.45	  451.22
     78.0700	  724.00	  764.91	-2227.66	  451.04
     78.1700	  707.00	  729.81	-2209.56	  450.87
     78.2700	  681.00	  701.50	-2207.25	  450.69
     78.3700	  702.00	  679.49	-2164.24	  450.51
     78.4700	  666.00	  662.93	-2183.68	  450.33
     78.5700	  653.00	  650.81	-2184.56	  450.16
     78.6700	  682.00	  642.12	-2146.87	  449.98
     78.7700	  633.00	  635.99	-2189.74	  449.80
     78.8700	  608.00	  631.69	-2210.44	  449.62
     78.9700	  656.00	  628.69	-2159.44	  449.43
     79.0700	  622.00	  626.60	-2191.35	  449.25
     79.1700	  620.00	  625.18	-2191.93	  449.07
     79.2700	  615.00	  624.25	-2196.00	  448.89
     79.3700	  635.00	  623.69	-2175.44	  448.71
     79.4700	  633.00	  623.56	-2177.31	  448.52
     79.5700	  645.00	  623.81	-2165.56	  448.34
     79.6700	  635.00	  624.45	-2176.20	  448.15
     79.7700	  585.00	  625.56	-2227.31	  447.97
     79.8700	  666.00	  627.21	-2147.96	  447.79
     79.9700	  629.00	  629.57	-2187.32	  447.60
     80.0700	  608.00	  632.88	-2211.63	  447.41
     80.1700	  663.00	  637.52	-2161.27	  447.23
     80.2700	  629.00	  644.06	-2201.81	  447.04
     80.3700	  635.00	  653.35	-2205.10	  446.85
     80.4700	  705.00	  666.56	-2148.31	  446.67
     80.5700	  696.00	  684.96	-2175.71	  446.48
     80.6700	  767.00	  710.91	-2130.66	  446.29
     80.7700	  767.00	  746.15	-2165.90	  446.10
     80.8700	  865.00	  792.66	-2114.41	  445.91
     80.9700	  966.00	  851.99	-2072.74	  445.72
     81.0700	  984.00	  924.87	-2127.62	  445.53
     81.1700	 1064.00	 1010.67	-2133.42	  445.34
     81.2700	 1147.00	 1106.96	-2146.71	  445.15
     81.3700	 1286.00	 1209.27	-2110.02	  444.96
     81.4700	 1360.00	 1310.95	-2137.70	  444.77
     81.5700	 1368.00	 1403.68	-2222.43	  444.58
     81.6700	 1417.00	 1478.53	-2248.28	  444.39
     81.7700	 1547.00	 1528.06	-2167.81	  444.20
     81.8700	 1563.00	 1548.06	-2171.81	  444.01
     81.9700	 1559.00	 1538.05	-2165.80	  443.81
     82.0700	 1491.00	 1500.57	-2196.32	  443.62
     82.1700	 1424.00	 1440.63	-2203.38	  443.43
     82.2700	 1358.00	 1364.95	-2193.70	  443.23
     82.3700	 1285.00	 1280.71	-2182.46	  443.04
     82.4700	 1161.00	 1194.35	-2220.10	  442.85
     82.5700	 1063.00	 1110.85	-2234.60	  442.65
     82.6700	  980.00	 1033.78	-2240.53	  442.46
     82.7700	  955.00	  965.27	-2197.02	  442.27
     82.8700	  858.00	  906.18	-2234.93	  442.07
     82.9700	  845.00	  856.21	-2197.96	  441.88
     83.0700	  791.00	  814.31	-2210.06	  441.68
     83.1700	  754.00	  779.13	-2211.88	  441.49
     83.2700	  717.00	  749.53	-2219.28	  441.29
     83.3700	  689.00	  724.69	-2222.44	  441.10
     83.4700	  719.00	  704.12	-2171.87	  440.90
     83.5700	  651.00	  687.52	-2223.27	  440.71
     83.6700	  678.00	  674.71	-2183.46	  440.51
     83.7700	  639.00	  665.57	-2213.32	  440.32
     83.8700	  658.00	  659.96	-2188.71	  440.12
     83.9700	  702.00	  657.67	-2142.42	  439.93
     84.0700	  648.00	  658.38	-2197.13	  439.73
     84.1700	  683.00	  661.67	-2165.42	  439.53
     84.2700	  655.00	  666.92	-2198.67	  439.34
     84.3700	  671.00	  673.24	-2188.99	  439.14
     84.4700	  644.00	  680.03	-2222.78	  438.95
     84.5700	  655.00	  686.15	-2217.90	  438.75
     84.6700	  636.00	  690.58	-2241.33	  438.55
     84.7700	  659.00	  692.40	-2220.15	  438.36
     84.8700	  625.00	  690.99	-2252.74	  438.16
     84.9700	  682.00	  686.55	-2191.30	  437.97
     85.0700	  639.00	  679.49	-2227.24	  437.77
     85.1700	  671.00	  670.64	-2186.39	  437.57
     85.2700	  655.00	  660.89	-2192.64	  437.38
     85.3700	  627.00	  651.04	-2210.79	  437.18
     85.4700	  647.00	  641.76	-2181.51	  436.99
     85.5700	  601.00	  633.55	-2219.30	  436.79
     85.6700	  607.00	  626.77	-2206.52	  436.60
     85.7700	  623.00	  621.64	-2185.39	  436.40
     85.8700	  628.00	  618.28	-2177.03	  436.20
     85.9700	  570.00	  616.73	-2233.48	  436.01
     86.0700	  625.00	  616.99	-2178.74	  435.81
     86.1700	  609.00	  619.05	-2196.80	  435.62
     86.2700	  632.00	  622.85	-2177.60	  435.42
     86.3700	  612.00	  628.32	-2203.07	  435.23
     86.4700	  621.00	  635.36	-2201.11	  435.03
     86.5700	  654.00	  643.79	-2176.54	  434.84
     86.6700	  677.00	  653.38	-2163.13	  434.64
     86.7700	  626.00	  663.80	-2224.55	  434.45
     86.8700	  628.00	  674.63	-2233.38	  434.26
     86.9700	  625.00	  685.38	-2247.13	  434.06
     87.0700	  664.00	  695.50	-2218.25	  433.87
     87.1700	  643.00	  704.53	-2248.28	  433.68
     87.2700	  735.00	  712.21	-2163.96	  433.48
     87.3700	  662.00	  718.62	-2243.37	  433.29
     87.4700	  703.00	  724.15	-2207.90	  433.10
     87.5700	  732.00	  729.28	-2184.03	  432.90
     87.6700	  703.00	  734.45	-2218.20	  432.71
     87.7700	  689.00	  739.91	-2237.66	  432.52
     87.8700	  682.00	  745.57	-2250.32	  432.33
     87.9700	  726.00	  751.08	-2211.83	  432.14
     88.0700	  722.00	  755.80	-2220.55	  431.94
     88.1700	  746.00	  758.86	-2199.61	  431.75
     88.2700	  741.00	  759.35	-2205.10	  431.56
     88.3700	  720.00	  756.61	-2223.36	  431.37
     88.4700	  788.00	  750.44	-2149.19	  431.18
     88.5700	  732.00	  741.18	-2195.93	  430.99
     88.6700	  752.00	  729.58	-2164.33	  430.80
     88.7700	  706.00	  716.55	-2197.30	  430.62
     88.8700	  692.00	  703.01	-2197.76	  430.43
     88.9700	  690.00	  689.79	-2186.54	  430.24
     89.0700	  651.00	  677.15	-2212.90	  430.05
     89.1700	  660.00	  666.51	-2193.26	  429.86
     89.2700	  705.00	  657.83	-2139.58	  429.68
     89.3700	  680.00	  651.29	-2158.04	  429.49
     89.4700	  626.00	  646.93	-2207.68	  429.31
     89.5700	  664.00	  644.63	-2167.38	  429.12
     89.6700	  672.00	  644.12	-2158.87	  428.94
     89.7700	  669.00	  645.01	-2162.76	  428.75
     89.8700	  686.00	  646.84	-2147.59	  428.57
     89.9700	  683.00	  649.05	-2152.80	  428.38
     90.0700	  709.00	  651.04	-2128.79	  428.20
     90.1700	  740.00	  652.26	-2099.01	  428.02
     90.2700	  739.00	  652.22	-2099.97	  427.84
     90.3700	  717.00	  650.68	-2120.44	  427.65
     90.4700	  700.00	  647.64	-2134.39	  427.47
     90.5700	  694.00	  643.32	-2136.07	  427.29
     90.6700	  620.00	  638.08	-2204.83	  427.11
     90.7700	  703.00	  632.31	-2116.06	  426.93
     90.8700	  661.00	  626.40	-2152.15	  426.75
     90.9700	  635.00	  620.65	-2172.40	  426.58
     91.0700	  593.00	  615.31	-2209.06	  426.40
     91.1700	  629.00	  610.55	-2168.30	  426.22
     91.2700	  652.00	  606.47	-2141.22	  426.05
     91.3700	  635.00	  603.12	-2154.87	  425.87
     91.4700	  626.00	  600.49	-2161.24	  425.69
     91.5700	  635.00	  598.55	-2150.30	  425.52
     91.6700	  616.00	  597.25	-2168.00	  425.35
     91.7700	  589.00	  596.52	-2194.27	  425.17
     91.8700	  638.00	  596.34	-2145.09	  425.00
     91.9700	  658.00	  596.67	-2125.42	  424.83
     92.0700	  611.00	  597.52	-2173.27	  424.66
     92.1700	  608.00	  598.95	-2177.70	  424.49
     92.2700	  640.00	  601.03	-2147.78	  424.32
     92.3700	  612.00	  603.90	-2178.65	  424.15
     92.4700	  605.00	  607.72	-2189.47	  423.98
     92.5700	  633.00	  612.70	-2166.45	  423.81
     92.6700	  666.00	  619.05	-2139.80	  423.65
     92.7700	  616.00	  627.01	-2197.76	  423.48
     92.8700	  639.00	  636.78	-2184.53	  423.32
     92.9700	  646.00	  648.54	-2189.29	  423.15
     93.0700	  699.00	  662.40	-2150.15	  422.99
     93.1700	  629.00	  678.37	-2236.12	  422.83
     93.2700	  656.00	  696.35	-2227.10	  422.66
     93.3700	  708.00	  716.12	-2194.87	  422.50
     93.4700	  640.00	  737.28	-2284.03	  422.34
     93.5700	  726.00	  759.30	-2220.05	  422.18
     93.6700	  789.00	  781.49	-2179.24	  422.03
     93.7700	  777.00	  803.04	-2212.79	  421.87
     93.8700	  795.00	  823.12	-2214.87	  421.71
     93.9700	  815.00	  841.04	-2212.79	  421.56
     94.0700	  820.00	  856.45	-2223.20	  421.40
     94.1700	  848.00	  869.50	-2208.25	  421.25
     94.2700	  856.00	  880.78	-2211.53	  421.09
     94.3700	  884.00	  891.10	-2193.85	  420.94
     94.4700	  842.00	  901.32	-2246.07	  420.79
     94.5700	  936.00	  912.14	-2162.89	  420.64
     94.6700	  906.00	  923.70	-2204.45	  420.49
     94.7700	 1029.00	  936.93	-2094.68	  420.34
     94.8700	  951.00	  951.65	-2187.40	  420.20
     94.9700	  988.00	  967.91	-2166.66	  420.05
     95.0700	 1015.00	  985.70	-2157.45	  419.90
     95.1700	  984.00	 1004.76	-2207.51	  419.76
     95.2700	 1024.00	 1024.45	-2187.20	  419.62
     95.3700	 1021.00	 1043.69	-2209.44	  419.47
     95.4700	 1042.00	 1060.93	-2205.68	  419.33
     95.5700	 1107.00	 1074.28	-2154.03	  419.19
     95.6700	 1095.00	 1081.74	-2173.49	  419.05
     95.7700	 1131.00	 1081.59	-2137.34	  418.92
     95.8700	 1057.00	 1072.80	-2202.55	  418.78
     95.9700	 1055.00	 1055.36	-2187.11	  418.64
     96.0700	 1024.00	 1030.33	-2193.08	  418.51
     96.1700	  929.00	  999.55	-2257.30	  418.38
     96.2700	  949.00	  965.31	-2203.06	  418.24
     96.3700	  891.00	  930.04	-2225.79	  418.11
     96.4700	  937.00	  896.10	-2145.85	  417.98
     96.5700	  861.00	  865.65	-2191.40	  417.85
     96.6700	  926.00	  840.56	-2101.31	  417.73
     96.7700	  896.00	  822.43	-2113.18	  417.60
     96.8700	  820.00	  812.56	-2179.31	  417.47
     96.9700	  832.00	  811.94	-2166.69	  417.35
     97.0700	  892.00	  821.30	-2116.05	  417.23
     97.1700	  926.00	  841.11	-2101.86	  417.10
     97.2700	  857.00	  871.59	-2201.34	  416.98
     97.3700	  930.00	  912.72	-2169.47	  416.86
     97.4700	 1031.00	  964.14	-2119.89	  416.75
     97.5700	 1054.00	 1025.13	-2157.88	  416.63
     97.6700	 1080.00	 1094.54	-2201.29	  416.51
     97.7700	 1147.00	 1170.71	-2210.46	  416.40
     97.8700	 1218.00	 1251.44	-2220.19	  416.29
     97.9700	 1306.00	 1333.87	-2214.62	  416.18
     98.0700	 1448.00	 1414.54	-2153.29	  416.07
     98.1700	 1397.00	 1489.41	-2279.16	  415.96
     98.2700	 1508.00	 1554.08	-2232.83	  415.85
     98.3700	 1565.00	 1604.10	-2225.85	  415.74
     98.4700	 1598.00	 1635.66	-2224.41	  415.64
     98.5700	 1630.00	 1646.33	-2203.08	  415.53
     98.6700	 1596.00	 1635.59	-2226.34	  415.43
     98.7700	 1598.00	 1604.97	-2193.72	  415.33
     98.8700	 1509.00	 1557.58	-2235.33	  415.23
     98.9700	 1432.00	 1497.47	-2252.22	  415.13
     99.0700	 1434.00	 1429.03	-2181.78	  415.04
     99.1700	 1350.00	 1356.48	-2193.23	  414.94
     99.2700	 1254.00	 1283.68	-2216.43	  414.85
     99.3700	 1167.00	 1213.98	-2233.73	  414.76
     99.4700	 1139.00	 1150.28	-2198.03	  414.67
     99.5700	 1055.00	 1094.94	-2226.69	  414.58
     99.6700	 1033.00	 1049.87	-2203.62	  414.49
     99.7700	 1033.00	 1016.58	-2170.33	  414.40
     99.8700	 1053.00	  996.21	-2129.96	  414.32
     99.9700	  998.00	  989.56	-2178.31	  414.23
    100.0700	 1044.00	  997.13	-2139.88	  414.15
    100.1700	  968.00	 1019.11	-2237.86	  414.07
    100.2700	 1044.00	 1055.36	-2198.11	  413.99
    100.3700	 1164.00	 1105.44	-2128.19	  413.92
    100.4700	 1217.00	 1168.54	-2138.29	  413.84
    100.5700	 1321.00	 1243.47	-2109.22	  413.77
    100.6700	 1344.00	 1328.60	-2171.35	  413.69
    100.7700	 1392.00	 1421.80	-2216.55	  413.62
    100.8700	 1537.00	 1520.48	-2170.23	  413.55
    100.9700	 1673.00	 1621.49	-2135.24	  413.49
    101.0700	 1690.00	 1721.28	-2218.03	  413.42
    101.1700	 1828.00	 1816.09	-2174.84	  413.36
    101.2700	 1922.00	 1902.17	-2166.92	  413.29
    101.3700	 2025.00	 1976.60	-2138.35	  413.23
    101.4700	 2011.00	 2037.02	-2212.77	  413.17
    101.5700	 2045.00	 2082.13	-2223.88	  413.12
    101.6700	 2051.00	 2111.35	-2247.10	  413.06
    101.7700	 2122.00	 2124.47	-2189.22	  413.00
    101.8700	 2197.00	 2121.41	-2111.16	  412.95
    101.9700	 2192.00	 2102.27	-2097.02	  412.90
    102.0700	 2089.00	 2067.60	-2165.35	  412.85
    102.1700	 2039.00	 2018.79	-2166.54	  412.80
    102.2700	 2007.00	 1958.23	-2137.98	  412.76
    102.3700	 1984.00	 1889.20	-2091.95	  412.71
    102.4700	 1899.00	 1815.48	-2103.23	  412.67
    102.5700	 1753.00	 1740.82	-2174.57	  412.63
    102.6700	 1727.00	 1668.48	-2128.23	  412.59
    102.7700	 1688.00	 1601.05	-2099.80	  412.56
    102.8700	 1594.00	 1540.28	-2133.03	  412.52
    102.9700	 1516.00	 1487.13	-2157.88	  412.49
    103.0700	 1504.00	 1441.79	-2124.54	  412.46
    103.1700	 1439.00	 1403.77	-2151.52	  412.43
    103.2700	 1430.00	 1371.99	-2128.74	  412.40
    103.3700	 1281.00	 1344.88	-2250.63	  412.37
    103.4700	 1358.00	 1320.50	-2149.25	  412.35
    103.5700	 1342.00	 1296.76	-2141.51	  412.33
    103.6700	 1305.00	 1271.67	-2153.42	  412.30
    103.7700	 1179.00	 1243.65	-2251.40	  412.29
    103.8700	 1190.00	 1211.76	-2208.51	  412.27
    103.9700	 1146.00	 1175.79	-2216.54	  412.25
    104.0700	 1103.00	 1136.16	-2219.91	  412.24
    104.1700	 1044.00	 1093.73	-2236.48	  412.23
    104.2700	 1024.00	 1049.58	-2212.33	  412.22
    104.3700	 1021.00	 1004.85	-2170.60	  412.21
    104.4700	  953.00	  960.59	-2194.34	  412.21
    104.5700	  897.00	  917.74	-2207.49	  412.21
    104.6700	  920.00	  877.09	-2143.84	  412.21
    104.7700	  828.00	  839.25	-2198.00	  412.21
    104.8700	  806.00	  804.58	-2185.33	  412.21
    104.9700	  813.00	  773.51	-2147.26	  412.21
    105.0700	  777.00	  746.08	-2155.83	  412.22
    105.1700	  764.00	  722.29	-2145.04	  412.23
    105.2700	  718.00	  701.98	-2170.73	  412.24
    105.3700	  715.00	  684.94	-2156.69	  412.25
    105.4700	  686.00	  670.87	-2171.62	  412.27
    105.5700	  696.00	  659.47	-2150.22	  412.29
    105.6700	  643.00	  650.41	-2194.16	  412.30
    105.7700	  691.00	  643.33	-2139.08	  412.33
    105.8700	  663.00	  638.06	-2161.81	  412.35
    105.9700	  608.00	  634.29	-2213.04	  412.37
    106.0700	  668.00	  631.83	-2150.58	  412.40
    106.1700	  648.00	  630.54	-2169.29	  412.43
    106.2700	  647.00	  630.31	-2170.06	  412.46
    106.3700	  638.00	  631.09	-2179.84	  412.50
    106.4700	  620.00	  632.85	-2199.60	  412.53
    106.5700	  609.00	  635.61	-2213.36	  412.57
    106.6700	  629.00	  639.39	-2197.14	  412.61
    106.7700	  643.00	  644.26	-2188.01	  412.65
    106.8700	  661.00	  650.27	-2176.02	  412.70
    106.9700	  655.00	  657.48	-2189.23	  412.74
    107.0700	  675.00	  665.94	-2177.69	  412.79
    107.1700	  668.00	  675.65	-2194.40	  412.84
    107.2700	  666.00	  686.59	-2207.34	  412.90
    107.3700	  680.00	  698.70	-2205.45	  412.95
    107.4700	  717.00	  711.81	-2181.56	  413.01
    107.5700	  722.00	  725.76	-2190.51	  413.07
    107.6700	  698.00	  740.25	-2229.00	  413.13
    107.7700	  705.00	  754.97	-2236.72	  413.20
    107.8700	  755.00	  769.53	-2201.28	  413.27
    107.9700	  755.00	  783.47	-2215.22	  413.33
    108.0700	  726.00	  796.32	-2257.07	  413.41
    108.1700	  716.00	  807.60	-2278.35	  413.48
    108.2700	  792.00	  816.90	-2211.65	  413.56
    108.3700	  747.00	  823.88	-2263.63	  413.63
    108.4700	  784.00	  828.41	-2231.16	  413.71
    108.5700	  723.00	  830.54	-2294.29	  413.80
    108.6700	  805.00	  830.53	-2212.28	  413.88
    108.7700	  783.00	  828.78	-2232.53	  413.97
    108.8700	  770.00	  825.84	-2242.59	  414.06
    108.9700	  831.00	  822.23	-2177.98	  414.15
    109.0700	  819.00	  818.44	-2186.19	  414.25
    109.1700	  759.00	  814.90	-2242.65	  414.34
    109.2700	  760.00	  811.94	-2238.69	  414.44
    109.3700	  772.00	  809.76	-2224.51	  414.55
    109.4700	  766.00	  808.48	-2229.23	  414.65
    109.5700	  806.00	  808.06	-2188.81	  414.76
    109.6700	  773.00	  808.38	-2222.13	  414.87
    109.7700	  739.00	  809.19	-2256.94	  414.98
    109.8700	  784.00	  810.13	-2212.88	  415.09
    109.9700	  757.00	  810.80	-2240.55	  415.21
    110.0700	  762.00	  810.76	-2235.51	  415.33
    110.1700	  743.00	  809.58	-2253.33	  415.45
    110.2700	  797.00	  806.91	-2196.66	  415.57
    110.3700	  719.00	  802.55	-2270.30	  415.70
    110.4700	  757.00	  796.44	-2226.19	  415.83
    110.5700	  735.00	  788.66	-2240.41	  415.96
    110.6700	  774.00	  779.44	-2192.19	  416.09
    110.7700	  723.00	  769.06	-2232.81	  416.23
    110.8700	  717.00	  757.86	-2227.61	  416.37
    110.9700	  729.00	  746.19	-2203.94	  416.51
    111.0700	  723.00	  734.36	-2198.11	  416.65
    111.1700	  711.00	  722.67	-2198.42	  416.80
    111.2700	  700.00	  711.37	-2198.12	  416.95
    111.3700	  713.00	  700.67	-2174.42	  417.10
    111.4700	  724.00	  690.73	-2153.48	  417.25
    111.5700	  657.00	  681.69	-2211.44	  417.41
    111.6700	  631.00	  673.63	-2229.38	  417.57
    111.7700	  685.00	  666.61	-2168.36	  417.73
    111.8700	  666.00	  660.64	-2181.39	  417.89
    111.9700	  640.00	  655.70	-2202.45	  418.06
    112.0700	  626.00	  651.75	-2212.50	  418.23
    112.1700	  604.00	  648.74	-2231.49	  418.40
    112.2700	  606.00	  646.59	-2227.34	  418.58
    112.3700	  654.00	  645.21	-2177.96	  418.75
    112.4700	  690.00	  644.51	-2141.26	  418.93
    112.5700	  610.00	  644.38	-2221.13	  419.12
    112.6700	  609.00	  644.75	-2222.50	  419.30
    112.7700	  591.00	  645.51	-2241.26	  419.49
    112.8700	  615.00	  646.58	-2218.33	  419.68
    112.9700	  650.00	  647.89	-2184.64	  419.87
    113.0700	  634.00	  649.38	-2202.13	  420.07
    113.1700	  609.00	  651.01	-2228.76	  420.27
    113.2700	  615.00	  652.73	-2224.48	  420.47
    113.3700	  603.00	  654.55	-2238.30	  420.67
    113.4700	  619.00	  656.48	-2224.23	  420.88
    113.5700	  644.00	  658.53	-2201.28	  421.09
    113.6700	  602.00	  660.75	-2245.50	  421.30
    113.7700	  635.00	  663.17	-2214.92	  421.52
    113.8700	  647.00	  665.87	-2205.62	  421.74
    113.9700	  689.00	  668.93	-2166.68	  421.96
    114.0700	  664.00	  672.40	-2195.15	  422.18
    114.1700	  640.00	  676.45	-2223.20	  422.41
    114.2700	  677.00	  681.19	-2190.94	  422.64
    114.3700	  660.00	  686.82	-2213.57	  422.87
    114.4700	  670.00	  693.57	-2210.32	  423.10
    114.5700	  752.00	  701.75	-2136.50	  423.34
    114.6700	  715.00	  711.75	-2183.50	  423.58
    114.7700	  723.00	  724.08	-2187.83	  423.82
    114.8700	  790.00	  739.38	-2136.13	  424.07
    114.9700	  823.00	  758.46	-2122.21	  424.32
    115.0700	  797.00	  782.31	-2172.06	  424.57
    115.1700	  897.00	  812.15	-2101.90	  424.82
    115.2700	  916.00	  849.44	-2120.19	  425.08
    115.3700	  922.00	  895.90	-2160.65	  425.34
    115.4700	 1040.00	  953.54	-2100.29	  425.60
    115.5700	 1113.00	 1024.61	-2098.36	  425.87
    115.6700	 1298.00	 1111.59	-2000.34	  426.13
    115.7700	 1426.00	 1217.18	-1977.93	  426.41
    115.8700	 1484.00	 1344.21	-2046.96	  426.68
    115.9700	 1693.00	 1495.51	-1989.26	  426.96
    116.0700	 1923.00	 1673.81	-1937.56	  427.24
    116.1700	 2140.00	 1881.53	-1928.28	  427.52
    116.2700	 2351.00	 2120.74	-1956.49	  427.80
    116.3700	 2691.00	 2392.86	-1888.61	  428.09
    116.4700	 2991.00	 2698.44	-1894.19	  428.38
    116.5700	 3221.00	 3037.01	-2002.76	  428.68
    116.6700	 3529.00	 3406.86	-2064.61	  428.98
    116.7700	 3891.00	 3805.06	-2100.81	  429.28
    116.8700	 4395.00	 4227.25	-2019.00	  429.58
    116.9700	 4642.00	 4667.48	-2212.23	  429.89
    117.0700	 5086.00	 5118.39	-2219.14	  430.20
    117.1700	 5426.00	 5571.15	-2331.90	  430.51
    117.2700	 5786.00	 6015.85	-2416.60	  430.82
    117.3700	 6387.00	 6441.46	-2241.21	  431.14
    117.4700	 6831.00	 6836.20	-2191.95	  431.46
    117.5700	 6945.00	 7187.91	-2429.66	  431.78
    117.6700	 7362.00	 7484.66	-2309.41	  432.11
    117.7700	 7347.00	 7715.59	-2555.34	  432.44
    117.8700	 7533.00	 7871.63	-2525.38	  432.77
    117.9700	 7702.00	 7946.37	-2431.12	  433.11
    118.0700	 7498.00	 7936.87	-2625.62	  433.45
    118.1700	 7590.00	 7844.01	-2440.76	  433.79
    118.2700	 7400.00	 7672.32	-2459.07	  434.14
    118.3700	 7178.00	 7429.39	-2438.14	  434.48
    118.4700	 6962.00	 7125.20	-2349.95	  434.83
    118.5700	 6599.00	 6771.10	-2358.85	  435.19
    118.6700	 6177.00	 6379.10	-2388.85	  435.55
    118.7700	 5763.00	 5961.01	-2384.76	  435.91
    118.8700	 5478.00	 5528.07	-2236.82	  436.27
    118.9700	 5020.00	 5090.77	-2257.52	  436.63
    119.0700	 4801.00	 4658.32	-2044.07	  437.00
    119.1700	 4438.00	 4238.70	-1987.45	  437.38
    119.2700	 4035.00	 3838.29	-1990.04	  437.75
    119.3700	 3750.00	 3462.02	-1898.77	  438.13
    119.4700	 3581.00	 3113.50	-1719.25	  438.51
    119.5700	 3116.00	 2794.93	-1865.68	  438.90
    119.6700	 2711.00	 2507.34	-1983.09	  439.28
    119.7700	 2508.00	 2250.64	-1929.39	  439.67
    119.8700	 2316.00	 2023.88	-1894.63	  440.07
    119.9700	 2158.00	 1825.57	-1854.32	  440.46
    120.0700	 1785.00	 1653.67	-2055.42	  440.86
    120.1700	 1771.00	 1505.88	-1921.63	  441.27
    120.2700	 1612.00	 1379.69	-1954.44	  441.67
    120.3700	 1548.00	 1272.56	-1911.31	  442.08
    120.4700	 1396.00	 1182.05	-1972.80	  442.49
    120.5700	 1273.00	 1105.84	-2019.59	  442.91
    120.6700	 1160.00	 1041.82	-2068.57	  443.33
    120.7700	 1101.00	  988.08	-2073.83	  443.75
    120.8700	 1047.00	  942.95	-2082.70	  444.18
    120.9700	  991.00	  905.01	-2100.76	  444.60
    121.0700	  949.00	  873.05	-2110.80	  445.03
    121.1700	  905.00	  846.09	-2127.84	  445.47
    121.2700	  876.00	  823.31	-2134.06	  445.91
    121.3700	  860.00	  804.03	-2130.78	  446.35
    121.4700	  857.00	  787.75	-2117.50	  446.79
    121.5700	  703.00	  774.03	-2257.78	  447.24
    121.6700	  728.00	  762.55	-2221.30	  447.69
    121.7700	  790.00	  753.03	-2149.78	  448.14
    121.8700	  717.00	  745.28	-2215.03	  448.60
    121.9700	  708.00	  739.11	-2217.86	  449.06
    122.0700	  717.00	  734.40	-2204.15	  449.52
    122.1700	  738.00	  731.05	-2179.80	  449.99
    122.2700	  692.00	  728.95	-2223.70	  450.45
    122.3700	  699.00	  728.04	-2215.79	  450.93
    122.4700	  747.00	  728.24	-2167.99	  451.40
    122.5700	  649.00	  729.51	-2267.26	  451.88
    122.6700	  660.00	  731.79	-2258.54	  452.36
    122.7700	  717.00	  735.01	-2204.76	  452.85
    122.8700	  766.00	  739.13	-2159.88	  453.34
    122.9700	  729.00	  744.07	-2201.82	  453.83
    123.0700	  673.00	  749.79	-2263.54	  454.32
    123.1700	  720.00	  756.19	-2222.94	  454.82
    123.2700	  763.00	  763.19	-2186.94	  455.32
    123.3700	  656.00	  770.70	-2301.45	  455.83
    123.4700	  742.00	  778.63	-2223.38	  456.33
    123.5700	  744.00	  786.85	-2229.60	  456.84
    123.6700	  690.00	  795.24	-2291.99	  457.36
    123.7700	  748.00	  803.69	-2242.44	  457.88
    123.8700	  794.00	  812.05	-2204.80	  458.40
    123.9700	  774.00	  820.20	-2232.95	  458.92
    124.0700	  794.00	  828.02	-2220.77	  459.45
    124.1700	  808.00	  835.37	-2214.12	  459.98
    124.2700	  877.00	  842.17	-2151.92	  460.51
    124.3700	  784.00	  848.34	-2251.09	  461.05
    124.4700	  833.00	  853.85	-2207.60	  461.59
    124.5700	  836.00	  858.67	-2209.42	  462.13
    124.6700	  810.00	  862.84	-2239.59	  462.68
    124.7700	  797.00	  866.36	-2256.11	  463.23
    124.8700	  832.00	  869.35	-2224.10	  463.78
    124.9700	  808.00	  601.74	-1980.49	  464.34
    125.0700	  831.00	  602.30	-2186.75	  464.89
    125.1700	  800.00	  602.86	-2186.75	  465.46
    125.2700	  819.00	  603.42	-2186.75	  466.02
    125.3700	  748.00	  603.99	-2186.75	  466.59
    125.4700	  851.00	  604.57	-2186.75	  467.16
    125.5700	  861.00	  605.14	-2186.75	  467.74
    125.6700	  854.00	  605.72	-2186.75	  468.32
    125.7700	  784.00	  606.30	-2186.75	  468.90
    125.8700	  863.00	  606.89	-2186.75	  469.49
    125.9700	  833.00	  607.48	-2186.75	  470.08
    126.0700	  802.00	  608.07	-2186.75	  470.67
    126.1700	  834.00	  608.66	-2186.75	  471.26
    126.2700	  776.00	  609.26	-2186.75	  471.86
    126.3700	  795.00	  609.87	-2186.75	  472.46
    126.4700	  825.00	  610.47	-2186.75	  473.07
    126.5700	  805.00	  611.08	-2186.75	  473.68
    126.6700	  779.00	  611.69	-2186.75	  474.29
    126.7700	  754.00	  612.31	-2186.75	  474.90
    126.8700	  762.00	  612.92	-2186.75	  475.52
    126.9700	  734.00	  613.54	-2186.75	  476.14
    127.0700	  692.00	  614.17	-2186.75	  476.77
    127.1700	  803.00	  614.80	-2186.75	  477.40
    127.2700	  729.00	  615.43	-2186.75	  478.03
    127.3700	  644.00	  616.06	-2186.75	  478.66
    127.4700	  691.00	  616.70	-2186.75	  479.30
    127.5700	  637.00	  617.34	-2186.75	  479.94
    127.6700	  661.00	  617.99	-2186.75	  480.58
    127.7700	  684.00	  618.63	-2186.75	  481.23
    127.8700	  642.00	  619.29	-2186.75	  481.88
    127.9700	  654.00	  619.94	-2186.75	  482.54
    128.0700	  674.00	  620.60	-2186.75	  483.20
    128.1700	  685.00	  621.26	-2186.75	  483.86
    128.2700	  669.00	  621.92	-2186.75	  484.52
    128.3700	  647.00	  622.59	-2186.75	  485.19
    128.4700	  638.00	  623.26	-2186.75	  485.86
    128.5700	    0.00	  623.93	-2186.75	  486.53
    128.6700	    0.00	  624.61	-2186.75	  487.21
     12.4437	        	        	        	        	       0	(  0  0  2)	  0  1
     12.4437	        	        	        	        	    -546	(  0  0  2)	  0  1
     25.1294	        	        	        	        	       0	(  0  0  4)	  0  1
     25.1294	        	        	        	        	    -546	(  0  0  4)	  0  1
     28.5718	        	        	        	        	       0	(  1  0  0)	  0  1
     28.5718	        	        	        	        	    -546	(  1  0  0)	  0  1
     29.2755	        	        	        	        	       0	(  1  0  1)	  0  1
     29.2755	        	        	        	        	    -546	(  1  0  1)	  0  1
     31.3004	        	        	        	        	       0	(  1  0  2)	  0  1
     31.3004	        	        	        	        	    -546	(  1  0  2)	  0  1
     34.4376	        	        	        	        	       0	(  1  0  3)	  0  1
     34.4376	        	        	        	        	    -546	(  1  0  3)	  0  1
     38.1390	        	        	        	        	       0	(  0  0  6)	  0  1
     38.1390	        	        	        	        	    -546	(  0  0  6)	  0  1
     38.4517	        	        	        	        	       0	(  1  0  4)	  0  1
     38.4517	        	        	        	        	    -546	(  1  0  4)	  0  1
     43.1456	        	        	        	        	       0	(  1  0  5)	  0  1
     43.1456	        	        	        	        	    -546	(  1  0  5)	  0  1
     48.3796	        	        	        	        	       0	(  1  0  6)	  0  1
     48.3796	        	        	        	        	    -546	(  1  0  6)	  0  1
     50.6817	        	        	        	        	       0	(  1  1  0)	  0  1
     50.6817	        	        	        	        	    -546	(  1  1  0)	  0  1
     51.6850	        	        	        	        	       0	(  0  0  8)	  0  1
     51.6850	        	        	        	        	    -546	(  0  0  8)	  0  1
     52.4228	        	        	        	        	       0	(  1  1  2)	  0  1
     52.4228	        	        	        	        	    -546	(  1  1  2)	  0  1
     54.0662	        	        	        	        	       0	(  1  0  7)	  0  1
     54.0662	        	        	        	        	    -546	(  1  0  7)	  0  1
     57.4234	        	        	        	        	       0	(  1  1  4)	  0  1
     57.4234	        	        	        	        	    -546	(  1  1  4)	  0  1
     59.2538	        	        	        	        	       0	(  2  0  0)	  0  1
     59.2538	        	        	        	        	    -546	(  2  0  0)	  0  1
     59.6497	        	        	        	        	       0	(  2  0  1)	  0  1
     59.6497	        	        	        	        	    -546	(  2  0  1)	  0  1
     60.1595	        	        	        	        	       0	(  1  0  8)	  0  1
     60.1595	        	        	        	        	    -546	(  1  0  8)	  0  1
     60.8281	        	        	        	        	       0	(  2  0  2)	  0  1
     60.8281	        	        	        	        	    -546	(  2  0  2)	  0  1
     62.7630	        	        	        	        	       0	(  2  0  3)	  0  1
     62.7630	        	        	        	        	    -546	(  2  0  3)	  0  1
     65.2038	        	        	        	        	       0	(  1  1  6)	  0  1
     65.2038	        	        	        	        	    -546	(  1  1  6)	  0  1
     65.4174	        	        	        	        	       0	(  2  0  4)	  0  1
     65.4174	        	        	        	        	    -546	(  2  0  4)	  0  1
     66.0625	        	        	        	        	       0	(  0  0 10)	  0  1
     66.0625	        	        	        	        	    -546	(  0  0 10)	  0  1
     66.6466	        	        	        	        	       0	(  1  0  9)	  0  1
     66.6466	        	        	        	        	    -546	(  1  0  9)	  0  1
     68.7505	        	        	        	        	       0	(  2  0  5)	  0  1
     68.7505	        	        	        	        	    -546	(  2  0  5)	  0  1
     72.7261	        	        	        	        	       0	(  2  0  6)	  0  1
     72.7261	        	        	        	        	    -546	(  2  0  6)	  0  1
     73.5436	        	        	        	        	       0	(  1  0 10)	  0  1
     73.5436	        	        	        	        	    -546	(  1  0 10)	  0  1
     75.3630	        	        	        	        	       0	(  1  1  8)	  0  1
     75.3630	        	        	        	        	    -546	(  1  1  8)	  0  1
     77.3183	        	        	        	        	       0	(  2  0  7)	  0  1
     77.3183	        	        	        	        	    -546	(  2  0  7)	  0  1
     80.8954	        	        	        	        	       0	(  1  0 11)	  0  1
     80.8954	        	        	        	        	    -546	(  1  0 11)	  0  1
     81.7346	        	        	        	        	       0	(  0  0 12)	  0  1
     81.7346	        	        	        	        	    -546	(  0  0 12)	  0  1
     81.7284	        	        	        	        	       0	(  2  1  0)	  0  1
     81.7284	        	        	        	        	    -546	(  2  1  0)	  0  1
     82.0731	        	        	        	        	       0	(  2  1  1)	  0  1
     82.0731	        	        	        	        	    -546	(  2  1  1)	  0  1
     82.5184	        	        	        	        	       0	(  2  0  8)	  0  1
     82.5184	        	        	        	        	    -546	(  2  0  8)	  0  1
     83.1054	        	        	        	        	       0	(  2  1  2)	  0  1
     83.1054	        	        	        	        	    -546	(  2  1  2)	  0  1
     84.8212	        	        	        	        	       0	(  2  1  3)	  0  1
     84.8212	        	        	        	        	    -546	(  2  1  3)	  0  1
     87.2160	        	        	        	        	       0	(  2  1  4)	  0  1
     87.2160	        	        	        	        	    -546	(  2  1  4)	  0  1
     87.8051	        	        	        	        	       0	(  1  1 10)	  0  1
     87.8051	        	        	        	        	    -546	(  1  1 10)	  0  1
     88.3408	        	        	        	        	       0	(  2  0  9)	  0  1
     88.3408	        	        	        	        	    -546	(  2  0  9)	  0  1
     88.7824	        	        	        	        	       0	(  1  0 12)	  0  1
     88.7824	        	        	        	        	    -546	(  1  0 12)	  0  1
     90.2887	        	        	        	        	       0	(  2  1  5)	  0  1
     90.2887	        	        	        	        	    -546	(  2  1  5)	  0  1
     94.0465	        	        	        	        	       0	(  2  1  6)	  0  1
     94.0465	        	        	        	        	    -546	(  2  1  6)	  0  1
     94.8317	        	        	        	        	       0	(  2  0 10)	  0  1
     94.8317	        	        	        	        	    -546	(  2  0 10)	  0  1
     95.8069	        	        	        	        	       0	(  3  0  0)	  0  1
     95.8069	        	        	        	        	    -546	(  3  0  0)	  0  1
     96.1501	        	        	        	        	       0	(  3  0  1)	  0  1
     96.1501	        	        	        	        	    -546	(  3  0  1)	  0  1
     97.1811	        	        	        	        	       0	(  3  0  2)	  0  1
     97.1811	        	        	        	        	    -546	(  3  0  2)	  0  1
     97.3357	        	        	        	        	       0	(  1  0 13)	  0  1
     97.3357	        	        	        	        	    -546	(  1  0 13)	  0  1
     98.5121	        	        	        	        	       0	(  2  1  7)	  0  1
     98.5121	        	        	        	        	    -546	(  2  1  7)	  0  1
     98.9050	        	        	        	        	       0	(  3  0  3)	  0  1
     98.9050	        	        	        	        	    -546	(  3  0  3)	  0  1
     99.5553	        	        	        	        	       0	(  0  0 14)	  0  1
     99.5553	        	        	        	        	    -546	(  0  0 14)	  0  1
    101.3327	        	        	        	        	       0	(  3  0  4)	  0  1
    101.3327	        	        	        	        	    -546	(  3  0  4)	  0  1
    102.0843	        	        	        	        	       0	(  2  0 11)	  0  1
    102.0843	        	        	        	        	    -546	(  2  0 11)	  0  1
    102.9346	        	        	        	        	       0	(  1  1 12)	  0  1
    102.9346	        	        	        	        	    -546	(  1  1 12)	  0  1
    103.7330	        	        	        	        	       0	(  2  1  8)	  0  1
    103.7330	        	        	        	        	    -546	(  2  1  8)	  0  1
    104.4856	        	        	        	        	       0	(  3  0  5)	  0  1
    104.4856	        	        	        	        	    -546	(  3  0  5)	  0  1
    106.7723	        	        	        	        	       0	(  1  0 14)	  0  1
    106.7723	        	        	        	        	    -546	(  1  0 14)	  0  1
    108.4025	        	        	        	        	       0	(  3  0  6)	  0  1
    108.4025	        	        	        	        	    -546	(  3  0  6)	  0  1
    109.7983	        	        	        	        	       0	(  2  1  9)	  0  1
    109.7983	        	        	        	        	    -546	(  2  1  9)	  0  1
    110.2684	        	        	        	        	       0	(  2  0 12)	  0  1
    110.2684	        	        	        	        	    -546	(  2  0 12)	  0  1
    113.1522	        	        	        	        	       0	(  3  0  7)	  0  1
    113.1522	        	        	        	        	    -546	(  3  0  7)	  0  1
    116.8698	        	        	        	        	       0	(  2  1 10)	  0  1
    116.8698	        	        	        	        	    -546	(  2  1 10)	  0  1
    117.4791	        	        	        	        	       0	(  1  0 15)	  0  1
    117.4791	        	        	        	        	    -546	(  1  0 15)	  0  1
    117.9643	        	        	        	        	       0	(  2  2  0)	  0  1
    117.9643	        	        	        	        	    -546	(  2  2  0)	  0  1
    118.8550	        	        	        	        	       0	(  3  0  8)	  0  1
    118.8550	        	        	        	        	    -546	(  3  0  8)	  0  1
    119.5228	        	        	        	        	       0	(  2  2  2)	  0  1
    119.5228	        	        	        	        	    -546	(  2  2  2)	  0  1
    119.6992	        	        	        	        	       0	(  2  0 13)	  0  1
    119.6992	        	        	        	        	    -546	(  2  0 13)	  0  1
    121.5751	        	        	        	        	       0	(  0  0 16)	  0  1
    121.5751	        	        	        	        	    -546	(  0  0 16)	  0  1
    122.2620	        	        	        	        	       0	(  1  1 14)	  0  1
    122.2620	        	        	        	        	    -546	(  1  1 14)	  0  1
    124.3551	        	        	        	        	       0	(  2  2  4)	  0  1
    124.3551	        	        	        	        	    -546	(  2  2  4)	  0  1
    125.2521	        	        	        	        	       0	(  2  1 11)	  0  1
    125.2521	        	        	        	        	    -546	(  2  1 11)	  0  1
    125.7295	        	        	        	        	       0	(  3  0  9)	  0  1
    125.7295	        	        	        	        	    -546	(  3  0  9)	  0  1
    126.2682	        	        	        	        	       0	(  3  1  0)	  0  1
    126.2682	        	        	        	        	    -546	(  3  1  0)	  0  1
    126.6932	        	        	        	        	       0	(  3  1  1)	  0  1
    126.6932	        	        	        	        	    -546	(  3  1  1)	  0  1
    127.9825	        	        	        	        	       0	(  3  1  2)	  0  1
    127.9825	        	        	        	        	    -546	(  3  1  2)	  0  1
    130.1839	        	        	        	        	       0	(  3  1  3)	  0  1
    130.1839	        	        	        	        	    -546	(  3  1  3)	  0  1
    130.2616	        	        	        	        	       0	(  1  0 16)	  0  1
    130.2616	        	        	        	        	    -546	(  1  0 16)	  0  1
    131.0303	        	        	        	        	       0	(  2  0 14)	  0  1
    131.0303	        	        	        	        	    -546	(  2  0 14)	  0  1
    133.1260	        	        	        	        	       0	(  2  2  6)	  0  1
    133.1260	        	        	        	        	    -546	(  2  2  6)	  0  1
    133.3929	        	        	        	        	       0	(  3  1  4)	  0  1
    133.3929	        	        	        	        	    -546	(  3  1  4)	  0  1
    134.2097	        	        	        	        	       0	(  3  0 10)	  0  1
    134.2097	        	        	        	        	    -546	(  3  0 10)	  0  1
    135.5910	        	        	        	        	       0	(  2  1 12)	  0  1
    135.5910	        	        	        	        	    -546	(  2  1 12)	  0  1
    137.7906	        	        	        	        	       0	(  3  1  5)	  0  1
    137.7906	        	        	        	        	    -546	(  3  1  5)	  0  1
    143.7402	        	        	        	        	       0	(  3  1  6)	  0  1
    143.7402	        	        	        	        	    -546	(  3  1  6)	  0  1
    145.3468	        	        	        	        	       0	(  3  0 11)	  0  1
    145.3468	        	        	        	        	    -546	(  3  0 11)	  0  1
    146.0482	        	        	        	        	       0	(  2  0 15)	  0  1
    146.0482	        	        	        	        	    -546	(  2  0 15)	  0  1
    147.4798	        	        	        	        	       0	(  1  0 17)	  0  1
    147.4798	        	        	        	        	    -546	(  1  0 17)	  0  1
    148.2891	        	        	        	        	       0	(  2  2  8)	  0  1
    148.2891	        	        	        	        	    -546	(  2  2  8)	  0  1
    149.7216	        	        	        	        	       0	(  2  1 13)	  0  1
    149.7216	        	        	        	        	    -546	(  2  1 13)	  0  1
    152.1255	        	        	        	        	       0	(  3  1  7)	  0  1
    152.1255	        	        	        	        	    -546	(  3  1  7)	  0  1
    153.1014	        	        	        	        	       0	(  1  1 16)	  0  1
    153.1014	        	        	        	        	    -546	(  1  1 16)	  0  1
    158.3456	        	        	        	        	       0	(  0  0 18)	  0  1
    158.3456	        	        	        	        	    -546	(  0  0 18)	  0  1
    163.7526	        	        	        	        	       0	(  3  0 12)	  0  1
    163.7526	        	        	        	        	    -546	(  3  0 12)	  0  1
    163.7307	        	        	        	        	       0	(  4  0  0)	  0  1
    163.7307	        	        	        	        	    -546	(  4  0  0)	  0  1
    165.0044	        	        	        	        	       0	(  4  0  1)	  0  1
    165.0044	        	        	        	        	    -546	(  4  0  1)	  0  1
    166.8299	        	        	        	        	       0	(  3  1  8)	  0  1
    166.8299	        	        	        	        	    -546	(  3  1  8)	  0  1
