MSG Master    CELL:    5.91923   5.91923  23.27372   90.0000   90.0000  120.0000   SPGR: P 63/m m c             TEMP:   1074.85
  1   1280     2.52000     0.00000    -0.12677     0.00000     0.00000    0
    99     0     2
       0.00000      10.00000
     125.00000     130.00000
 2Theta	Yobs	Ycal	Yobs-Ycal	Backg	Posr	(hkl)	K
      0.7700	    0.00	  566.25	-1733.75	  448.14
      0.8700	    0.00	  566.73	-1733.75	  448.62
      0.9700	   48.00	  567.21	-1733.75	  449.10
      1.0700	   51.00	  567.67	-1733.75	  449.56
      1.1700	   39.00	  568.12	-1733.75	  450.01
      1.2700	   39.00	  568.57	-1733.75	  450.46
      1.3700	   45.00	  569.00	-1733.75	  450.89
      1.4700	   91.00	  569.43	-1733.75	  451.32
      1.5700	  270.00	  569.85	-1733.75	  451.74
      1.6700	  499.00	  570.26	-1733.75	  452.15
      1.7700	  618.00	  570.66	-1733.75	  452.56
      1.8700	  638.00	  571.06	-1733.75	  452.95
      1.9700	  714.00	  571.45	-1733.75	  453.34
      2.0700	  781.00	  571.82	-1733.75	  453.71
      2.1700	  826.00	  572.19	-1733.75	  454.08
      2.2700	  752.00	  572.55	-1733.75	  454.45
      2.3700	  748.00	  572.91	-1733.75	  454.80
      2.4700	  718.00	  573.25	-1733.75	  455.15
      2.5700	  671.00	  573.59	-1733.75	  455.48
      2.6700	  678.00	  573.92	-1733.75	  455.81
      2.7700	  596.00	  574.25	-1733.75	  456.14
      2.8700	  626.00	  574.56	-1733.75	  456.45
      2.9700	  621.00	  574.87	-1733.75	  456.76
      3.0700	  563.00	  575.17	-1733.75	  457.06
      3.1700	  585.00	  575.46	-1733.75	  457.35
      3.2700	  627.00	  575.74	-1733.75	  457.63
      3.3700	  680.00	  576.02	-1733.75	  457.91
      3.4700	  763.00	  576.29	-1733.75	  458.18
      3.5700	  805.00	  576.55	-1733.75	  458.44
      3.6700	  879.00	  576.81	-1733.75	  458.70
      3.7700	  907.00	  577.06	-1733.75	  458.95
      3.8700	  971.00	  577.30	-1733.75	  459.19
      3.9700	 1020.00	  577.53	-1733.75	  459.42
      4.0700	 1032.00	  577.76	-1733.75	  459.65
      4.1700	 1078.00	  577.98	-1733.75	  459.87
      4.2700	 1045.00	  578.19	-1733.75	  460.08
      4.3700	 1043.00	  578.39	-1733.75	  460.29
      4.4700	 1075.00	  578.59	-1733.75	  460.49
      4.5700	 1022.00	  578.79	-1733.75	  460.68
      4.6700	 1031.00	  578.97	-1733.75	  460.86
      4.7700	 1024.00	  579.15	-1733.75	  461.04
      4.8700	 1015.00	  579.32	-1733.75	  461.21
      4.9700	  990.00	  579.49	-1733.75	  461.38
      5.0700	  868.00	  579.65	-1733.75	  461.54
      5.1700	  899.00	  579.80	-1733.75	  461.69
      5.2700	  840.00	  579.95	-1733.75	  461.84
      5.3700	  892.00	  580.09	-1733.75	  461.98
      5.4700	  860.00	  580.22	-1733.75	  462.11
      5.5700	  828.00	  580.35	-1733.75	  462.24
      5.6700	  810.00	  580.47	-1733.75	  462.36
      5.7700	  851.00	  580.59	-1733.75	  462.48
      5.8700	  801.00	  580.70	-1733.75	  462.59
      5.9700	  795.00	  580.80	-1733.75	  462.69
      6.0700	  803.00	  580.90	-1733.75	  462.79
      6.1700	  766.00	  580.99	-1733.75	  462.88
      6.2700	  791.00	  581.08	-1733.75	  462.97
      6.3700	  771.00	  581.16	-1733.75	  463.05
      6.4700	  831.00	  581.23	-1733.75	  463.12
      6.5700	  766.00	  581.30	-1733.75	  463.19
      6.6700	  756.00	  581.36	-1733.75	  463.25
      6.7700	  732.00	  581.42	-1733.75	  463.31
      6.8700	  703.00	  581.47	-1733.75	  463.36
      6.9700	  711.00	  581.52	-1733.75	  463.41
      7.0700	  695.00	  581.56	-1733.75	  463.45
      7.1700	  665.00	  581.59	-1733.75	  463.48
      7.2700	  666.00	  581.62	-1733.75	  463.51
      7.3700	  674.00	  581.65	-1733.75	  463.54
      7.4700	  670.00	  581.67	-1733.75	  463.56
      7.5700	  663.00	  581.68	-1733.75	  463.57
      7.6700	  669.00	  581.69	-1733.75	  463.58
      7.7700	  653.00	  581.69	-1733.75	  463.59
      7.8700	  672.00	  581.69	-1733.75	  463.58
      7.9700	  641.00	  581.69	-1733.75	  463.58
      8.0700	  666.00	  581.68	-1733.75	  463.57
      8.1700	  686.00	  581.66	-1733.75	  463.55
      8.2700	  662.00	  581.64	-1733.75	  463.53
      8.3700	  626.00	  581.61	-1733.75	  463.50
      8.4700	  565.00	  581.58	-1733.75	  463.47
      8.5700	  653.00	  581.55	-1733.75	  463.44
      8.6700	  613.00	  581.51	-1733.75	  463.40
      8.7700	  621.00	  581.46	-1733.75	  463.35
      8.8700	  653.00	  581.41	-1733.75	  463.30
      8.9700	  606.00	  581.36	-1733.75	  463.25
      9.0700	  636.00	  581.30	-1733.75	  463.19
      9.1700	  604.00	  581.24	-1733.75	  463.13
      9.2700	  646.00	  581.17	-1733.75	  463.06
      9.3700	  574.00	  581.10	-1733.75	  462.99
      9.4700	  614.00	  581.02	-1733.75	  462.91
      9.5700	  624.00	  580.94	-1733.75	  462.83
      9.6700	  586.00	  580.86	-1733.75	  462.75
      9.7700	  565.00	  580.77	-1733.75	  462.66
      9.8700	  599.00	  580.68	-1733.75	  462.57
      9.9700	  619.00	  580.58	-1733.75	  462.47
     10.0700	  588.00	  581.20	-1726.95	  462.37
     10.1700	  600.00	  581.17	-1714.92	  462.27
     10.2700	  624.00	  581.16	-1690.91	  462.16
     10.3700	  588.00	  581.17	-1726.92	  462.04
     10.4700	  602.00	  581.23	-1712.98	  461.93
     10.5700	  583.00	  581.40	-1732.15	  461.81
     10.6700	  611.00	  581.78	-1704.53	  461.68
     10.7700	  574.00	  582.48	-1742.23	  461.55
     10.8700	  573.00	  583.57	-1744.32	  461.42
     10.9700	  582.00	  585.05	-1736.80	  461.28
     11.0700	  635.00	  586.87	-1685.62	  461.15
     11.1700	  574.00	  589.02	-1748.77	  461.00
     11.2700	  581.00	  591.55	-1744.30	  460.86
     11.3700	  590.00	  594.53	-1738.28	  460.71
     11.4700	  578.00	  598.09	-1753.84	  460.55
     11.5700	  598.00	  602.43	-1738.18	  460.39
     11.6700	  628.00	  607.91	-1713.67	  460.23
     11.7700	  648.00	  615.16	-1700.91	  460.07
     11.8700	  651.00	  625.17	-1707.92	  459.90
     11.9700	  659.00	  638.79	-1713.54	  459.73
     12.0700	  666.00	  654.55	-1722.30	  459.56
     12.1700	  730.00	  665.87	-1669.62	  459.38
     12.2700	  682.00	  662.16	-1713.91	  459.20
     12.3700	  683.00	  640.40	-1691.15	  459.02
     12.4700	  646.00	  614.28	-1702.03	  458.83
     12.5700	  599.00	  595.68	-1730.43	  458.64
     12.6700	  612.00	  585.99	-1707.74	  458.45
     12.7700	  590.00	  581.78	-1725.53	  458.25
     12.8700	  578.00	  579.90	-1735.65	  458.06
     12.9700	  556.00	  578.83	-1756.58	  457.86
     13.0700	  560.00	  578.07	-1751.82	  457.65
     13.1700	  533.00	  577.47	-1778.22	  457.44
     13.2700	  558.00	  576.96	-1752.71	  457.23
     13.3700	  536.00	  576.52	-1774.27	  457.02
     13.4700	  550.00	  576.13	-1759.88	  456.81
     13.5700	  548.00	  575.77	-1761.52	  456.59
     13.6700	  589.00	  575.43	-1720.18	  456.37
     13.7700	  569.00	  575.11	-1739.86	  456.14
     13.8700	  495.00	  574.81	-1813.56	  455.92
     13.9700	  573.00	  574.51	-1735.26	  455.69
     14.0700	  548.00	  574.22	-1759.97	  455.46
     14.1700	  597.00	  573.94	-1710.69	  455.23
     14.2700	  520.00	  573.67	-1787.42	  454.99
     14.3700	  552.00	  573.39	-1755.14	  454.75
     14.4700	  583.00	  573.12	-1723.87	  454.51
     14.5700	  536.00	  572.85	-1770.60	  454.27
     14.6700	  577.00	  572.58	-1729.33	  454.02
     14.7700	  564.00	  572.31	-1742.06	  453.78
     14.8700	  509.00	  572.04	-1796.79	  453.53
     14.9700	  569.00	  571.77	-1736.52	  453.28
     15.0700	  575.00	  571.50	-1730.25	  453.02
     15.1700	  551.00	  571.23	-1753.98	  452.77
     15.2700	  606.00	  570.96	-1698.71	  452.51
     15.3700	  543.00	  570.69	-1761.44	  452.25
     15.4700	  575.00	  570.42	-1729.17	  451.99
     15.5700	  609.00	  570.14	-1694.89	  451.72
     15.6700	  573.00	  569.87	-1730.62	  451.46
     15.7700	  560.00	  569.59	-1743.34	  451.19
     15.8700	  570.00	  569.31	-1733.06	  450.92
     15.9700	  597.00	  569.03	-1705.78	  450.65
     16.0700	  580.00	  568.75	-1722.50	  450.37
     16.1700	  592.00	  568.47	-1710.22	  450.10
     16.2700	  538.00	  568.19	-1763.94	  449.82
     16.3700	  597.00	  567.93	-1704.68	  449.54
     16.4700	  561.00	  567.65	-1740.40	  449.26
     16.5700	  547.00	  567.36	-1754.11	  448.98
     16.6700	  546.00	  567.07	-1754.82	  448.69
     16.7700	  554.00	  566.78	-1746.53	  448.41
     16.8700	  562.00	  566.49	-1738.24	  448.12
     16.9700	  614.00	  566.20	-1685.95	  447.83
     17.0700	  513.00	  565.91	-1786.66	  447.54
     17.1700	  576.00	  565.62	-1723.37	  447.25
     17.2700	  523.00	  565.32	-1776.07	  446.96
     17.3700	  596.00	  565.02	-1702.77	  446.66
     17.4700	  578.00	  564.73	-1720.48	  446.37
     17.5700	  559.00	  564.43	-1739.18	  446.07
     17.6700	  540.00	  564.13	-1757.88	  445.77
     17.7700	  551.00	  563.83	-1746.58	  445.47
     17.8700	  565.00	  563.53	-1732.28	  445.17
     17.9700	  540.00	  563.32	-1757.07	  444.87
     18.0700	  567.00	  563.02	-1729.77	  444.56
     18.1700	  523.00	  562.72	-1773.47	  444.26
     18.2700	  562.00	  562.41	-1734.16	  443.95
     18.3700	  576.00	  562.11	-1719.86	  443.65
     18.4700	  606.00	  561.80	-1689.55	  443.34
     18.5700	  558.00	  561.50	-1737.25	  443.03
     18.6700	  583.00	  561.19	-1711.94	  442.72
     18.7700	  573.00	  560.88	-1721.63	  442.41
     18.8700	  526.00	  560.66	-1768.41	  442.10
     18.9700	  555.00	  560.35	-1739.10	  441.78
     19.0700	  551.00	  560.04	-1742.79	  441.47
     19.1700	  588.00	  559.73	-1705.48	  441.15
     19.2700	  565.00	  559.42	-1728.17	  440.84
     19.3700	  574.00	  559.11	-1718.86	  440.52
     19.4700	  545.00	  558.80	-1747.55	  440.20
     19.5700	  532.00	  558.49	-1760.24	  439.88
     19.6700	  627.00	  558.18	-1664.93	  439.56
     19.7700	  553.00	  557.87	-1738.62	  439.24
     19.8700	  573.00	  557.55	-1718.30	  438.92
     19.9700	  570.00	  557.24	-1720.99	  438.60
     20.0700	  520.00	  556.93	-1770.68	  438.28
     20.1700	  569.00	  556.61	-1721.36	  437.96
     20.2700	  519.00	  556.30	-1771.05	  437.63
     20.3700	  548.00	  555.99	-1741.74	  437.31
     20.4700	  569.00	  555.64	-1720.39	  436.98
     20.5700	  553.00	  555.33	-1736.08	  436.66
     20.6700	  562.00	  555.02	-1726.77	  436.33
     20.7700	  546.00	  554.71	-1742.46	  436.01
     20.8700	  517.00	  554.39	-1771.14	  435.68
     20.9700	  538.00	  554.12	-1749.87	  435.35
     21.0700	  549.00	  553.81	-1738.56	  435.02
     21.1700	  574.00	  553.50	-1713.25	  434.70
     21.2700	  560.00	  553.19	-1726.94	  434.37
     21.3700	  518.00	  552.88	-1768.63	  434.04
     21.4700	  617.00	  552.57	-1669.32	  433.71
     21.5700	  537.00	  552.26	-1749.01	  433.38
     21.6700	  541.00	  551.96	-1744.71	  433.05
     21.7700	  530.00	  551.65	-1755.40	  432.72
     21.8700	  600.00	  551.35	-1685.10	  432.39
     21.9700	  580.00	  551.05	-1704.80	  432.06
     22.0700	  542.00	  550.75	-1742.50	  431.73
     22.1700	  514.00	  550.45	-1770.20	  431.40
     22.2700	  535.00	  550.16	-1748.91	  431.07
     22.3700	  585.00	  549.87	-1698.62	  430.73
     22.4700	  513.00	  549.59	-1770.34	  430.40
     22.5700	  509.00	  549.31	-1774.06	  430.07
     22.6700	  542.00	  549.03	-1740.78	  429.74
     22.7700	  526.00	  548.76	-1756.51	  429.41
     22.8700	  573.00	  548.50	-1709.25	  429.08
     22.9700	  561.00	  548.25	-1721.00	  428.74
     23.0700	  530.00	  548.01	-1751.76	  428.41
     23.1700	  544.00	  547.78	-1737.53	  428.08
     23.2700	  581.00	  547.58	-1700.33	  427.75
     23.3700	  590.00	  547.39	-1691.14	  427.42
     23.4700	  549.00	  547.24	-1731.99	  427.09
     23.5700	  528.00	  547.13	-1752.88	  426.76
     23.6700	  567.00	  547.08	-1713.83	  426.42
     23.7700	  551.00	  547.13	-1729.88	  426.09
     23.8700	  568.00	  547.51	-1713.26	  425.76
     23.9700	  504.00	  548.17	-1777.92	  425.43
     24.0700	  585.00	  549.67	-1698.42	  425.10
     24.1700	  570.00	  552.68	-1716.43	  424.77
     24.2700	  583.00	  558.05	-1708.80	  424.44
     24.3700	  560.00	  566.74	-1740.49	  424.11
     24.4700	  540.00	  579.86	-1773.61	  423.78
     24.5700	  560.00	  597.84	-1771.59	  423.45
     24.6700	  616.00	  617.89	-1735.64	  423.12
     24.7700	  634.00	  631.72	-1731.47	  422.79
     24.8700	  644.00	  628.22	-1717.97	  422.47
     24.9700	  552.00	  606.35	-1788.10	  422.14
     25.0700	  619.00	  580.43	-1695.18	  421.81
     25.1700	  601.00	  561.57	-1694.32	  421.48
     25.2700	  541.00	  551.36	-1744.11	  421.16
     25.3700	  562.00	  546.79	-1718.54	  420.83
     25.4700	  559.00	  544.78	-1719.53	  420.51
     25.5700	  558.00	  543.71	-1719.46	  420.18
     25.6700	  599.00	  543.01	-1677.76	  419.86
     25.7700	  541.00	  542.50	-1735.25	  419.53
     25.8700	  548.00	  542.11	-1727.86	  419.21
     25.9700	  591.00	  541.81	-1684.56	  418.89
     26.0700	  565.00	  541.60	-1710.35	  418.56
     26.1700	  546.00	  541.46	-1729.21	  418.24
     26.2700	  562.00	  541.39	-1713.14	  417.92
     26.3700	  546.00	  541.40	-1729.15	  417.60
     26.4700	  548.00	  541.49	-1727.24	  417.28
     26.5700	  486.00	  541.68	-1789.43	  416.96
     26.6700	  530.00	  541.98	-1745.73	  416.64
     26.7700	  609.00	  542.41	-1667.16	  416.32
     26.8700	  553.00	  543.02	-1723.77	  416.01
     26.9700	  553.00	  543.86	-1724.61	  415.69
     27.0700	  557.00	  544.99	-1721.74	  415.37
     27.1700	  532.00	  546.56	-1748.31	  415.06
     27.2700	  571.00	  548.81	-1711.56	  414.74
     27.3700	  533.00	  552.26	-1753.01	  414.43
     27.4700	  542.00	  557.85	-1749.60	  414.12
     27.5700	  546.00	  567.31	-1755.06	  413.81
     27.6700	  580.00	  583.34	-1737.09	  413.49
     27.7700	  597.00	  609.40	-1746.15	  413.18
     27.8700	  593.00	  648.41	-1789.16	  412.87
     27.9700	  666.00	  700.41	-1768.16	  412.57
     28.0700	  815.00	  759.39	-1678.14	  412.26
     28.1700	  863.00	  810.72	-1681.47	  411.95
     28.2700	  966.00	  832.64	-1600.39	  411.64
     28.3700	  891.00	  812.92	-1655.67	  411.34
     28.4700	  755.00	  773.07	-1751.82	  411.03
     28.5700	  764.00	  747.53	-1717.28	  410.73
     28.6700	  716.00	  751.77	-1769.52	  410.43
     28.7700	  750.00	  780.42	-1764.17	  410.13
     28.8700	  785.00	  812.39	-1761.14	  409.83
     28.9700	  836.00	  817.88	-1715.63	  409.53
     29.0700	  799.00	  778.22	-1712.97	  409.23
     29.1700	  719.00	  710.80	-1725.55	  408.93
     29.2700	  647.00	  646.70	-1733.45	  408.64
     29.3700	  624.00	  600.58	-1710.33	  408.34
     29.4700	  605.00	  572.81	-1701.56	  408.05
     29.5700	  587.00	  557.86	-1704.61	  407.75
     29.6700	  622.00	  549.99	-1661.74	  407.46
     29.7700	  580.00	  545.54	-1699.29	  407.17
     29.8700	  583.00	  542.76	-1693.51	  406.88
     29.9700	  528.00	  540.97	-1746.72	  406.59
     30.0700	  547.00	  540.02	-1726.77	  406.30
     30.1700	  563.00	  540.03	-1710.78	  406.02
     30.2700	  526.00	  541.54	-1749.29	  405.73
     30.3700	  580.00	  545.60	-1699.35	  405.45
     30.4700	  571.00	  553.78	-1716.53	  405.16
     30.5700	  554.00	  567.80	-1747.55	  404.88
     30.6700	  545.00	  588.13	-1776.88	  404.60
     30.7700	  608.00	  612.26	-1738.01	  404.32
     30.8700	  595.00	  633.26	-1772.01	  404.04
     30.9700	  585.00	  640.55	-1789.30	  403.76
     31.0700	  625.00	  627.00	-1735.75	  403.49
     31.1700	  600.00	  599.78	-1733.53	  403.21
     31.2700	  545.00	  572.67	-1761.42	  402.94
     31.3700	  547.00	  552.75	-1739.50	  402.67
     31.4700	  550.00	  540.74	-1724.49	  402.39
     31.5700	  545.00	  534.38	-1723.13	  402.13
     31.6700	  537.00	  531.12	-1727.87	  401.86
     31.7700	  544.00	  529.33	-1719.08	  401.59
     31.8700	  548.00	  528.19	-1713.94	  401.32
     31.9700	  555.00	  527.40	-1706.15	  401.06
     32.0700	  528.00	  526.83	-1732.58	  400.80
     32.1700	  512.00	  526.45	-1748.20	  400.53
     32.2700	  513.00	  526.22	-1746.97	  400.27
     32.3700	  571.00	  526.13	-1688.88	  400.01
     32.4700	  541.00	  526.20	-1718.95	  399.76
     32.5700	  512.00	  526.43	-1748.18	  399.50
     32.6700	  571.00	  526.86	-1689.61	  399.24
     32.7700	  572.00	  527.52	-1689.27	  398.99
     32.8700	  572.00	  528.49	-1690.24	  398.74
     32.9700	  502.00	  529.86	-1761.61	  398.49
     33.0700	  513.00	  531.87	-1752.62	  398.24
     33.1700	  555.00	  534.94	-1713.69	  397.99
     33.2700	  547.00	  540.13	-1726.88	  397.74
     33.3700	  536.00	  549.72	-1747.47	  397.49
     33.4700	  571.00	  568.15	-1730.90	  397.25
     33.5700	  582.00	  602.65	-1754.40	  397.01
     33.6700	  644.00	  661.59	-1751.34	  396.77
     33.7700	  743.00	  748.90	-1739.65	  396.53
     33.8700	  896.00	  855.22	-1692.97	  396.29
     33.9700	 1053.00	  951.71	-1632.46	  396.05
     34.0700	 1044.00	  994.06	-1683.81	  395.82
     34.1700	 1064.00	  949.87	-1619.62	  395.58
     34.2700	  874.00	  842.29	-1702.04	  395.35
     34.3700	  765.00	  727.24	-1695.99	  395.12
     34.4700	  625.00	  638.93	-1747.68	  394.89
     34.5700	  548.00	  584.06	-1769.81	  394.66
     34.6700	  552.00	  554.81	-1736.56	  394.44
     34.7700	  527.00	  540.32	-1747.07	  394.21
     34.8700	  512.00	  532.84	-1754.59	  393.99
     34.9700	  519.00	  528.38	-1743.13	  393.77
     35.0700	  531.00	  525.30	-1728.05	  393.54
     35.1700	  499.00	  522.97	-1757.72	  393.33
     35.2700	  562.00	  521.13	-1692.88	  393.11
     35.3700	  534.00	  519.64	-1719.39	  392.89
     35.4700	  539.00	  518.40	-1713.15	  392.68
     35.5700	  519.00	  517.36	-1732.11	  392.47
     35.6700	  522.00	  516.46	-1728.21	  392.26
     35.7700	  535.00	  515.68	-1714.43	  392.05
     35.8700	  519.00	  514.99	-1729.74	  391.84
     35.9700	  533.00	  514.87	-1715.62	  391.63
     36.0700	  511.00	  514.33	-1737.08	  391.43
     36.1700	  505.00	  513.85	-1742.60	  391.22
     36.2700	  536.00	  513.41	-1711.16	  391.02
     36.3700	  531.00	  513.02	-1715.77	  390.82
     36.4700	  509.00	  512.66	-1737.41	  390.62
     36.5700	  523.00	  512.35	-1723.10	  390.43
     36.6700	  467.00	  512.07	-1778.82	  390.23
     36.7700	  521.00	  511.84	-1724.59	  390.04
     36.8700	  497.00	  511.68	-1748.43	  389.85
     36.9700	  503.00	  511.64	-1742.39	  389.65
     37.0700	  522.00	  511.87	-1723.62	  389.47
     37.1700	  529.00	  512.64	-1717.39	  389.28
     37.2700	  544.00	  514.36	-1704.11	  389.09
     37.3700	  540.00	  517.46	-1711.21	  388.91
     37.4700	  519.00	  521.99	-1736.74	  388.73
     37.5700	  558.00	  527.16	-1702.91	  388.55
     37.6700	  504.00	  531.29	-1761.04	  388.37
     37.7700	  556.00	  532.46	-1710.21	  388.19
     37.8700	  594.00	  530.27	-1670.02	  388.01
     37.9700	  514.00	  526.28	-1746.03	  387.84
     38.0700	  546.00	  521.95	-1709.70	  387.67
     38.1700	  484.00	  517.84	-1767.59	  387.50
     38.2700	  531.00	  514.33	-1717.08	  387.33
     38.3700	  514.00	  511.66	-1731.41	  387.16
     38.4700	  570.00	  509.83	-1673.58	  386.99
     38.5700	  552.00	  508.67	-1690.42	  386.83
     38.6700	  534.00	  507.96	-1707.71	  386.67
     38.7700	  526.00	  507.41	-1715.16	  386.51
     38.8700	  540.00	  507.08	-1700.83	  386.35
     38.9700	  507.00	  506.83	-1733.58	  386.19
     39.0700	  498.00	  506.60	-1742.35	  386.03
     39.1700	  494.00	  506.40	-1746.15	  385.88
     39.2700	  521.00	  506.13	-1718.88	  385.73
     39.3700	  468.00	  505.96	-1771.71	  385.58
     39.4700	  529.00	  505.81	-1710.56	  385.43
     39.5700	  522.00	  505.66	-1717.41	  385.28
     39.6700	  486.00	  505.53	-1753.28	  385.13
     39.7700	  496.00	  505.52	-1743.27	  384.99
     39.8700	  496.00	  505.40	-1743.15	  384.85
     39.9700	  529.00	  505.30	-1710.05	  384.71
     40.0700	  487.00	  505.20	-1751.95	  384.57
     40.1700	  481.00	  505.12	-1757.87	  384.43
     40.2700	  532.00	  505.04	-1706.79	  384.29
     40.3700	  497.00	  504.98	-1741.73	  384.16
     40.4700	  511.00	  504.93	-1727.68	  384.03
     40.5700	  483.00	  504.89	-1755.64	  383.90
     40.6700	  538.00	  504.87	-1700.62	  383.77
     40.7700	  533.00	  504.87	-1705.62	  383.64
     40.8700	  510.00	  504.89	-1728.64	  383.51
     40.9700	  484.00	  504.94	-1754.69	  383.39
     41.0700	  505.00	  505.02	-1733.77	  383.27
     41.1700	  499.00	  505.10	-1739.85	  383.15
     41.2700	  511.00	  505.27	-1728.02	  383.03
     41.3700	  497.00	  505.50	-1742.25	  382.91
     41.4700	  473.00	  505.81	-1766.56	  382.80
     41.5700	  506.00	  506.24	-1733.99	  382.68
     41.6700	  518.00	  507.26	-1723.01	  382.57
     41.7700	  509.00	  508.16	-1732.91	  382.46
     41.8700	  484.00	  509.67	-1759.42	  382.35
     41.9700	  477.00	  512.50	-1769.25	  382.24
     42.0700	  528.00	  518.07	-1723.82	  382.14
     42.1700	  498.00	  528.71	-1764.46	  382.03
     42.2700	  510.00	  547.23	-1770.98	  381.93
     42.3700	  515.00	  575.17	-1793.92	  381.83
     42.4700	  576.00	  610.58	-1768.33	  381.73
     42.5700	  588.00	  645.62	-1791.37	  381.63
     42.6700	  643.00	  667.46	-1758.21	  381.54
     42.7700	  587.00	  664.62	-1811.37	  381.44
     42.8700	  578.00	  637.70	-1793.45	  381.35
     42.9700	  563.00	  600.32	-1771.07	  381.26
     43.0700	  537.00	  565.58	-1762.33	  381.17
     43.1700	  566.00	  539.89	-1707.64	  381.09
     43.2700	  532.00	  523.87	-1725.62	  381.00
     43.3700	  482.00	  515.14	-1766.89	  380.92
     43.4700	  521.00	  510.74	-1723.49	  380.83
     43.5700	  484.00	  508.50	-1758.25	  380.75
     43.6700	  490.00	  507.24	-1750.99	  380.67
     43.7700	  518.00	  506.60	-1722.35	  380.60
     43.8700	  516.00	  506.01	-1723.76	  380.52
     43.9700	  497.00	  505.57	-1742.32	  380.45
     44.0700	  533.00	  505.23	-1705.98	  380.37
     44.1700	  489.00	  504.97	-1749.72	  380.30
     44.2700	  453.00	  504.80	-1785.55	  380.23
     44.3700	  498.00	  504.65	-1740.40	  380.17
     44.4700	  500.00	  504.54	-1738.29	  380.10
     44.5700	  485.00	  504.34	-1753.09	  380.04
     44.6700	  494.00	  504.30	-1744.05	  379.97
     44.7700	  513.00	  504.29	-1725.04	  379.91
     44.8700	  509.00	  504.30	-1729.05	  379.85
     44.9700	  501.00	  504.33	-1737.08	  379.80
     45.0700	  554.00	  504.39	-1684.14	  379.74
     45.1700	  511.00	  504.47	-1727.22	  379.68
     45.2700	  563.00	  504.74	-1675.49	  379.63
     45.3700	  486.00	  504.87	-1752.62	  379.58
     45.4700	  551.00	  505.01	-1687.76	  379.53
     45.5700	  550.00	  505.18	-1688.93	  379.48
     45.6700	  525.00	  505.37	-1714.12	  379.44
     45.7700	  551.00	  505.58	-1688.33	  379.39
     45.8700	  484.00	  505.82	-1755.57	  379.35
     45.9700	  462.00	  506.10	-1777.85	  379.30
     46.0700	  513.00	  506.40	-1727.15	  379.26
     46.1700	  466.00	  506.74	-1774.49	  379.23
     46.2700	  491.00	  507.13	-1749.88	  379.19
     46.3700	  475.00	  507.56	-1766.31	  379.15
     46.4700	  538.00	  508.05	-1703.80	  379.12
     46.5700	  527.00	  508.60	-1715.35	  379.09
     46.6700	  498.00	  509.23	-1744.98	  379.05
     46.7700	  526.00	  509.97	-1717.72	  379.03
     46.8700	  526.00	  510.86	-1718.61	  379.00
     46.9700	  507.00	  512.01	-1738.76	  378.97
     47.0700	  445.00	  513.67	-1802.42	  378.95
     47.1700	  495.00	  516.34	-1755.09	  378.92
     47.2700	  537.00	  520.91	-1717.66	  378.90
     47.3700	  510.00	  528.58	-1752.33	  378.88
     47.4700	  563.00	  540.40	-1711.15	  378.86
     47.5700	  537.00	  556.66	-1753.41	  378.84
     47.6700	  577.00	  575.71	-1732.46	  378.83
     47.7700	  565.00	  593.48	-1762.23	  378.81
     47.8700	  615.00	  604.12	-1722.87	  378.80
     47.9700	  535.00	  603.22	-1801.97	  378.79
     48.0700	  609.00	  591.88	-1716.63	  378.78
     48.1700	  546.00	  575.93	-1763.68	  378.77
     48.2700	  602.00	  560.99	-1692.74	  378.76
     48.3700	  537.00	  550.26	-1747.01	  378.76
     48.4700	  551.00	  544.44	-1727.19	  378.76
     48.5700	  523.00	  542.93	-1753.68	  378.75
     48.6700	  526.00	  544.57	-1752.32	  378.75
     48.7700	  465.00	  548.47	-1817.22	  378.75
     48.8700	  574.00	  554.21	-1713.96	  378.75
     48.9700	  533.00	  561.90	-1762.65	  378.76
     49.0700	  588.00	  572.27	-1718.02	  378.76
     49.1700	  525.00	  587.04	-1795.79	  378.77
     49.2700	  564.00	  609.75	-1779.50	  378.77
     49.3700	  639.00	  647.13	-1741.88	  378.78
     49.4700	  718.00	  710.38	-1726.13	  378.79
     49.5700	  774.00	  815.35	-1775.10	  378.81
     49.6700	  902.00	  980.27	-1812.02	  378.82
     49.7700	 1144.00	 1217.49	-1807.24	  378.83
     49.8700	 1503.00	 1525.02	-1755.77	  378.85
     49.9700	 1860.00	 1873.66	-1747.41	  378.87
     50.0700	 2324.00	 2198.40	-1608.15	  378.88
     50.1700	 2460.00	 2403.51	-1677.26	  378.90
     50.2700	 2414.00	 2404.49	-1724.24	  378.93
     50.3700	 2227.00	 2198.79	-1705.54	  378.95
     50.4700	 1826.00	 1872.09	-1779.84	  378.97
     50.5700	 1402.00	 1524.66	-1856.41	  379.00
     50.6700	 1089.00	 1222.37	-1867.12	  379.02
     50.7700	  857.00	  994.02	-1870.77	  379.05
     50.8700	  749.00	  840.82	-1825.57	  379.08
     50.9700	  724.00	  747.72	-1757.47	  379.11
     51.0700	  671.00	  693.88	-1756.63	  379.14
     51.1700	  589.00	  660.37	-1805.12	  379.18
     51.2700	  638.00	  634.86	-1730.61	  379.21
     51.3700	  610.00	  612.50	-1736.25	  379.25
     51.4700	  535.00	  592.89	-1791.64	  379.28
     51.5700	  594.00	  576.79	-1716.54	  379.32
     51.6700	  599.00	  564.60	-1699.35	  379.36
     51.7700	  575.00	  556.00	-1714.75	  379.40
     51.8700	  551.00	  550.24	-1732.99	  379.44
     51.9700	  575.00	  546.51	-1705.26	  379.49
     52.0700	  548.00	  544.17	-1729.92	  379.53
     52.1700	  573.00	  542.85	-1703.60	  379.58
     52.2700	  581.00	  542.42	-1695.17	  379.62
     52.3700	  549.00	  543.15	-1727.90	  379.67
     52.4700	  590.00	  545.01	-1688.76	  379.72
     52.5700	  583.00	  549.18	-1699.93	  379.77
     52.6700	  599.00	  557.80	-1692.55	  379.82
     52.7700	  539.00	  574.88	-1769.63	  379.88
     52.8700	  633.00	  606.74	-1707.49	  379.93
     52.9700	  742.00	  661.39	-1653.14	  379.99
     53.0700	  804.00	  745.67	-1675.42	  380.04
     53.1700	  963.00	  860.54	-1631.29	  380.10
     53.2700	 1048.00	  995.73	-1681.48	  380.16
     53.3700	 1127.00	 1126.54	-1733.29	  380.22
     53.4700	 1152.00	 1216.36	-1798.11	  380.28
     53.5700	 1136.00	 1230.81	-1828.56	  380.34
     53.6700	 1139.00	 1162.95	-1757.70	  380.40
     53.7700	  997.00	 1040.64	-1777.39	  380.47
     53.8700	  831.00	  903.06	-1805.81	  380.53
     53.9700	  815.00	  779.72	-1698.47	  380.60
     54.0700	  641.00	  685.41	-1778.16	  380.67
     54.1700	  612.00	  622.20	-1743.95	  380.73
     54.2700	  597.00	  584.41	-1721.16	  380.80
     54.3700	  583.00	  563.87	-1714.62	  380.87
     54.4700	  573.00	  553.51	-1714.26	  380.95
     54.5700	  580.00	  548.56	-1702.31	  381.02
     54.6700	  576.00	  546.35	-1704.10	  381.09
     54.7700	  519.00	  545.63	-1760.38	  381.17
     54.8700	  550.00	  545.86	-1729.61	  381.24
     54.9700	  570.00	  546.83	-1710.58	  381.32
     55.0700	  525.00	  548.49	-1757.24	  381.40
     55.1700	  571.00	  550.85	-1713.60	  381.48
     55.2700	  550.00	  553.98	-1737.73	  381.56
     55.3700	  506.00	  558.03	-1785.78	  381.64
     55.4700	  542.00	  563.15	-1754.90	  381.72
     55.5700	  537.00	  569.77	-1766.52	  381.80
     55.6700	  594.00	  578.64	-1718.39	  381.88
     55.7700	  568.00	  591.39	-1757.14	  381.97
     55.8700	  610.00	  611.30	-1735.05	  382.05
     55.9700	  636.00	  644.56	-1742.31	  382.14
     56.0700	  633.00	  701.65	-1802.40	  382.23
     56.1700	  709.00	  797.85	-1822.60	  382.31
     56.2700	  870.00	  951.63	-1815.38	  382.40
     56.3700	 1139.00	 1179.14	-1773.89	  382.49
     56.4700	 1397.00	 1485.45	-1822.20	  382.58
     56.5700	 1765.00	 1854.23	-1822.98	  382.68
     56.6700	 2200.00	 2239.63	-1773.38	  382.77
     56.7700	 2509.00	 2564.57	-1789.32	  382.86
     56.8700	 2637.00	 2735.06	-1831.81	  382.95
     56.9700	 2603.00	 2687.69	-1818.44	  383.05
     57.0700	 2368.00	 2440.80	-1806.55	  383.15
     57.1700	 2077.00	 2079.55	-1736.30	  383.24
     57.2700	 1646.00	 1695.48	-1783.23	  383.34
     57.3700	 1344.00	 1352.91	-1742.66	  383.44
     57.4700	 1060.00	 1084.04	-1757.79	  383.54
     57.5700	  856.00	  894.81	-1772.56	  383.64
     57.6700	  761.00	  774.48	-1747.23	  383.74
     57.7700	  682.00	  705.61	-1757.36	  383.84
     57.8700	  694.00	  672.01	-1711.76	  383.94
     57.9700	  653.00	  662.34	-1743.09	  384.04
     58.0700	  720.00	  670.65	-1684.40	  384.15
     58.1700	  716.00	  695.02	-1712.77	  384.25
     58.2700	  825.00	  735.52	-1644.27	  384.35
     58.3700	  868.00	  792.46	-1658.21	  384.46
     58.4700	  938.00	  864.58	-1660.33	  384.57
     58.5700	 1112.00	  947.60	-1569.35	  384.67
     58.6700	 1162.00	 1033.60	-1605.35	  384.78
     58.7700	 1376.00	 1113.23	-1470.98	  384.89
     58.8700	 1403.00	 1179.96	-1510.71	  385.00
     58.9700	 1570.00	 1229.94	-1393.69	  385.11
     59.0700	 1614.00	 1258.05	-1377.80	  385.22
     59.1700	 1551.00	 1259.63	-1442.38	  385.33
     59.2700	 1458.00	 1238.12	-1513.87	  385.44
     59.3700	 1335.00	 1205.47	-1604.22	  385.55
     59.4700	 1240.00	 1174.00	-1667.75	  385.66
     59.5700	 1202.00	 1151.99	-1683.74	  385.78
     59.6700	 1153.00	 1146.67	-1727.42	  385.89
     59.7700	 1214.00	 1166.76	-1686.51	  386.00
     59.8700	 1223.00	 1218.17	-1728.92	  386.12
     59.9700	 1287.00	 1297.53	-1744.28	  386.23
     60.0700	 1380.00	 1388.98	-1742.73	  386.35
     60.1700	 1588.00	 1464.81	-1610.56	  386.47
     60.2700	 1567.00	 1492.33	-1659.08	  386.58
     60.3700	 1531.00	 1451.03	-1653.78	  386.70
     60.4700	 1440.00	 1347.20	-1640.95	  386.82
     60.5700	 1304.00	 1207.30	-1637.05	  386.94
     60.6700	 1076.00	 1059.92	-1717.67	  387.06
     60.7700	  957.00	  926.05	-1702.80	  387.18
     60.8700	  804.00	  817.50	-1747.25	  387.30
     60.9700	  718.00	  738.36	-1754.11	  387.42
     61.0700	  641.00	  687.50	-1780.25	  387.54
     61.1700	  635.00	  661.65	-1760.40	  387.66
     61.2700	  630.00	  658.10	-1761.85	  387.78
     61.3700	  618.00	  676.40	-1792.15	  387.90
     61.4700	  664.00	  718.59	-1788.34	  388.02
     61.5700	  713.00	  787.87	-1808.62	  388.15
     61.6700	  832.00	  886.23	-1787.98	  388.27
     61.7700	  990.00	 1011.47	-1755.22	  388.39
     61.8700	 1038.00	 1154.44	-1850.19	  388.52
     61.9700	 1273.00	 1297.36	-1758.11	  388.64
     62.0700	 1376.00	 1413.87	-1771.62	  388.77
     62.1700	 1358.00	 1474.00	-1849.75	  388.89
     62.2700	 1314.00	 1458.15	-1877.90	  389.02
     62.3700	 1274.00	 1371.07	-1830.82	  389.14
     62.4700	 1176.00	 1238.29	-1796.04	  389.27
     62.5700	 1026.00	 1089.59	-1797.34	  389.39
     62.6700	  862.00	  948.29	-1820.04	  389.52
     62.7700	  722.00	  828.49	-1840.24	  389.65
     62.8700	  716.00	  736.03	-1753.78	  389.77
     62.9700	  610.00	  670.26	-1794.01	  389.90
     63.0700	  624.00	  626.73	-1736.48	  390.03
     63.1700	  557.00	  599.67	-1776.42	  390.16
     63.2700	  578.00	  583.77	-1739.52	  390.28
     63.3700	  578.00	  575.10	-1730.85	  390.41
     63.4700	  545.00	  571.35	-1760.10	  390.54
     63.5700	  552.00	  571.63	-1753.38	  390.67
     63.6700	  570.00	  576.33	-1740.08	  390.80
     63.7700	  582.00	  586.81	-1738.56	  390.93
     63.8700	  633.00	  605.13	-1705.88	  391.05
     63.9700	  697.00	  633.50	-1670.25	  391.18
     64.0700	  708.00	  673.50	-1699.25	  391.31
     64.1700	  801.00	  725.09	-1657.84	  391.44
     64.2700	  820.00	  785.63	-1699.38	  391.57
     64.3700	  903.00	  849.24	-1679.99	  391.70
     64.4700	 1006.00	  906.78	-1634.53	  391.83
     64.5700	 1037.00	  946.97	-1643.72	  391.96
     64.6700	  982.00	  962.03	-1713.78	  392.09
     64.7700	  996.00	  949.37	-1687.12	  392.22
     64.8700	  998.00	  913.56	-1649.31	  392.35
     64.9700	  974.00	  863.21	-1622.96	  392.48
     65.0700	  873.00	  807.91	-1668.66	  392.61
     65.1700	  801.00	  755.43	-1688.18	  392.74
     65.2700	  682.00	  710.10	-1761.85	  392.87
     65.3700	  693.00	  673.04	-1713.79	  393.00
     65.4700	  633.00	  643.44	-1744.19	  393.13
     65.5700	  621.00	  619.94	-1732.69	  393.26
     65.6700	  637.00	  601.51	-1698.26	  393.39
     65.7700	  576.00	  587.37	-1745.12	  393.52
     65.8700	  584.00	  576.90	-1726.65	  393.65
     65.9700	  552.00	  569.62	-1751.37	  393.78
     66.0700	  558.00	  565.05	-1740.80	  393.91
     66.1700	  521.00	  562.74	-1775.49	  394.04
     66.2700	  539.00	  562.27	-1757.02	  394.17
     66.3700	  581.00	  563.31	-1716.06	  394.30
     66.4700	  550.00	  565.64	-1749.39	  394.43
     66.5700	  525.00	  569.31	-1778.06	  394.56
     66.6700	  575.00	  574.65	-1733.40	  394.69
     66.7700	  559.00	  582.62	-1757.37	  394.82
     66.8700	  568.00	  594.69	-1760.44	  394.95
     66.9700	  627.00	  613.89	-1720.64	  395.08
     67.0700	  644.00	  644.88	-1734.63	  395.21
     67.1700	  646.00	  694.40	-1782.15	  395.34
     67.2700	  750.00	  771.05	-1754.80	  395.47
     67.3700	  839.00	  884.20	-1778.95	  395.59
     67.4700	 1056.00	 1041.51	-1719.26	  395.72
     67.5700	 1287.00	 1246.22	-1692.97	  395.85
     67.6700	 1509.00	 1492.51	-1717.26	  395.98
     67.7700	 1719.00	 1763.73	-1778.48	  396.11
     67.8700	 1996.00	 2030.55	-1768.30	  396.23
     67.9700	 2305.00	 2252.01	-1680.76	  396.36
     68.0700	 2459.00	 2382.44	-1657.19	  396.49
     68.1700	 2504.00	 2388.34	-1618.09	  396.61
     68.2700	 2285.00	 2268.08	-1716.83	  396.74
     68.3700	 1979.00	 2052.98	-1807.73	  396.87
     68.4700	 1818.00	 1788.58	-1704.33	  396.99
     68.5700	 1513.00	 1516.68	-1737.43	  397.12
     68.6700	 1234.00	 1267.76	-1767.51	  397.24
     68.7700	 1024.00	 1059.71	-1769.46	  397.37
     68.8700	  881.00	  898.66	-1751.41	  397.49
     68.9700	  785.00	  782.41	-1731.16	  397.61
     69.0700	  648.00	  703.48	-1789.23	  397.74
     69.1700	  631.00	  652.46	-1755.21	  397.86
     69.2700	  642.00	  620.65	-1712.40	  397.98
     69.3700	  586.00	  601.13	-1748.88	  398.11
     69.4700	  602.00	  589.05	-1720.80	  398.23
     69.5700	  564.00	  581.34	-1751.09	  398.35
     69.6700	  585.00	  576.21	-1724.96	  398.47
     69.7700	  536.00	  572.67	-1770.42	  398.59
     69.8700	  584.00	  570.23	-1719.98	  398.71
     69.9700	  528.00	  568.62	-1774.37	  398.83
     70.0700	  553.00	  567.71	-1748.46	  398.95
     70.1700	  593.00	  567.48	-1708.23	  399.07
     70.2700	  570.00	  567.92	-1731.67	  399.19
     70.3700	  571.00	  569.17	-1731.92	  399.31
     70.4700	  559.00	  571.40	-1746.15	  399.43
     70.5700	  626.00	  575.08	-1682.83	  399.55
     70.6700	  577.00	  581.08	-1737.83	  399.66
     70.7700	  590.00	  590.85	-1734.60	  399.78
     70.8700	  546.00	  606.80	-1794.55	  399.89
     70.9700	  628.00	  632.48	-1738.23	  400.01
     71.0700	  674.00	  672.75	-1732.50	  400.12
     71.1700	  752.00	  733.42	-1715.17	  400.24
     71.2700	  804.00	  820.45	-1750.20	  400.35
     71.3700	  899.00	  939.28	-1774.03	  400.47
     71.4700	 1109.00	 1089.48	-1714.23	  400.58
     71.5700	 1161.00	 1267.81	-1840.56	  400.69
     71.6700	 1447.00	 1463.25	-1750.00	  400.80
     71.7700	 1569.00	 1657.19	-1821.94	  400.91
     71.8700	 1809.00	 1824.33	-1749.08	  401.02
     71.9700	 1946.00	 1935.70	-1723.45	  401.13
     72.0700	 1885.00	 1967.31	-1816.06	  401.24
     72.1700	 1870.00	 1911.61	-1775.36	  401.35
     72.2700	 1748.00	 1781.65	-1767.40	  401.46
     72.3700	 1698.00	 1604.95	-1640.70	  401.56
     72.4700	 1508.00	 1409.55	-1635.30	  401.67
     72.5700	 1364.00	 1218.81	-1588.56	  401.78
     72.6700	 1126.00	 1048.81	-1656.56	  401.88
     72.7700	 1053.00	  908.24	-1588.99	  401.98
     72.8700	  973.00	  799.21	-1559.96	  402.09
     72.9700	  867.00	  719.31	-1586.06	  402.19
     73.0700	  763.00	  663.47	-1634.22	  402.29
     73.1700	  727.00	  625.89	-1632.64	  402.39
     73.2700	  649.00	  601.19	-1685.94	  402.49
     73.3700	  618.00	  585.08	-1700.83	  402.59
     73.4700	  652.00	  574.51	-1656.26	  402.69
     73.5700	  615.00	  567.46	-1686.21	  402.79
     73.6700	  626.00	  562.68	-1670.43	  402.89
     73.7700	  581.00	  559.49	-1712.24	  402.99
     73.8700	  619.00	  557.47	-1672.22	  403.08
     73.9700	  627.00	  556.39	-1663.14	  403.18
     74.0700	  602.00	  556.09	-1687.84	  403.27
     74.1700	  565.00	  556.38	-1725.13	  403.37
     74.2700	  614.00	  557.07	-1676.82	  403.46
     74.3700	  667.00	  557.91	-1624.66	  403.55
     74.4700	  590.00	  558.60	-1702.35	  403.64
     74.5700	  592.00	  558.84	-1700.59	  403.73
     74.6700	  607.00	  558.42	-1685.17	  403.82
     74.7700	  635.00	  557.26	-1656.01	  403.91
     74.8700	  644.00	  555.53	-1645.28	  404.00
     74.9700	  606.00	  553.52	-1681.27	  404.08
     75.0700	  620.00	  551.53	-1665.28	  404.17
     75.1700	  591.00	  550.00	-1692.75	  404.26
     75.2700	  546.00	  549.18	-1736.93	  404.34
     75.3700	  596.00	  549.59	-1687.34	  404.42
     75.4700	  567.00	  551.62	-1718.37	  404.51
     75.5700	  546.00	  555.76	-1743.51	  404.59
     75.6700	  563.00	  562.47	-1733.22	  404.67
     75.7700	  572.00	  572.43	-1734.18	  404.75
     75.8700	  575.00	  585.87	-1744.62	  404.83
     75.9700	  616.00	  602.78	-1720.53	  404.90
     76.0700	  608.00	  622.65	-1748.40	  404.98
     76.1700	  606.00	  644.34	-1772.09	  405.06
     76.2700	  669.00	  666.03	-1730.78	  405.13
     76.3700	  645.00	  685.33	-1774.08	  405.20
     76.4700	  697.00	  699.45	-1736.20	  405.28
     76.5700	  716.00	  705.88	-1723.63	  405.35
     76.6700	  633.00	  703.26	-1804.01	  405.42
     76.7700	  726.00	  692.13	-1699.88	  405.49
     76.8700	  660.00	  674.60	-1748.35	  405.56
     76.9700	  611.00	  653.24	-1775.99	  405.63
     77.0700	  609.00	  631.02	-1755.77	  405.69
     77.1700	  591.00	  609.85	-1752.60	  405.76
     77.2700	  567.00	  591.15	-1757.90	  405.82
     77.3700	  537.00	  575.67	-1772.42	  405.89
     77.4700	  558.00	  563.57	-1739.32	  405.95
     77.5700	  502.00	  554.62	-1786.37	  406.01
     77.6700	  522.00	  548.31	-1760.06	  406.07
     77.7700	  537.00	  544.04	-1740.79	  406.13
     77.8700	  554.00	  541.25	-1721.00	  406.19
     77.9700	  515.00	  539.47	-1758.22	  406.25
     78.0700	  543.00	  538.35	-1729.10	  406.30
     78.1700	  561.00	  537.65	-1710.40	  406.36
     78.2700	  558.00	  537.21	-1712.96	  406.41
     78.3700	  525.00	  536.94	-1745.69	  406.46
     78.4700	  526.00	  536.80	-1744.55	  406.52
     78.5700	  485.00	  536.75	-1785.50	  406.57
     78.6700	  508.00	  536.81	-1762.56	  406.62
     78.7700	  500.00	  536.96	-1770.71	  406.66
     78.8700	  540.00	  537.25	-1731.00	  406.71
     78.9700	  526.00	  537.70	-1745.45	  406.76
     79.0700	  509.00	  538.35	-1763.10	  406.80
     79.1700	  515.00	  539.28	-1758.03	  406.85
     79.2700	  533.00	  540.36	-1741.11	  406.89
     79.3700	  567.00	  542.00	-1708.75	  406.93
     79.4700	  534.00	  544.10	-1743.85	  406.97
     79.5700	  490.00	  546.71	-1790.46	  407.01
     79.6700	  482.00	  549.90	-1801.65	  407.05
     79.7700	  538.00	  553.75	-1749.50	  407.08
     79.8700	  529.00	  558.37	-1763.12	  407.12
     79.9700	  521.00	  563.90	-1776.65	  407.15
     80.0700	  582.00	  570.52	-1722.27	  407.18
     80.1700	  577.00	  578.49	-1735.24	  407.22
     80.2700	  548.00	  588.13	-1773.88	  407.25
     80.3700	  590.00	  599.70	-1743.45	  407.27
     80.4700	  555.00	  613.34	-1792.09	  407.30
     80.5700	  631.00	  628.91	-1731.66	  407.33
     80.6700	  603.00	  645.98	-1776.73	  407.35
     80.7700	  660.00	  663.74	-1737.49	  407.38
     80.8700	  659.00	  681.05	-1755.80	  407.40
     80.9700	  679.00	  696.62	-1751.37	  407.42
     81.0700	  695.00	  709.25	-1748.00	  407.44
     81.1700	  740.00	  718.04	-1711.79	  407.46
     81.2700	  684.00	  722.44	-1772.19	  407.48
     81.3700	  796.00	  722.20	-1659.95	  407.50
     81.4700	  772.00	  717.46	-1679.21	  407.51
     81.5700	  743.00	  708.65	-1699.40	  407.53
     81.6700	  784.00	  696.40	-1646.15	  407.54
     81.7700	  694.00	  681.47	-1721.22	  407.55
     81.8700	  752.00	  664.77	-1646.52	  407.56
     81.9700	  717.00	  647.32	-1664.07	  407.57
     82.0700	  667.00	  630.21	-1696.96	  407.58
     82.1700	  668.00	  614.20	-1679.95	  407.58
     82.2700	  623.00	  599.84	-1710.59	  407.59
     82.3700	  642.00	  587.41	-1679.16	  407.59
     82.4700	  601.00	  577.03	-1709.78	  407.59
     82.5700	  586.00	  568.69	-1716.44	  407.59
     82.6700	  571.00	  562.35	-1725.10	  407.59
     82.7700	  569.00	  557.88	-1722.63	  407.59
     82.8700	  595.00	  555.16	-1693.91	  407.59
     82.9700	  583.00	  554.05	-1704.80	  407.58
     83.0700	  543.00	  554.47	-1745.22	  407.57
     83.1700	  548.00	  556.30	-1742.05	  407.57
     83.2700	  582.00	  559.43	-1711.18	  407.56
     83.3700	  565.00	  563.68	-1732.43	  407.55
     83.4700	  545.00	  568.79	-1757.54	  407.54
     83.5700	  527.00	  574.42	-1781.17	  407.52
     83.6700	  534.00	  580.11	-1779.86	  407.51
     83.7700	  606.00	  585.31	-1713.06	  407.49
     83.8700	  581.00	  589.40	-1742.15	  407.48
     83.9700	  563.00	  591.79	-1762.54	  407.46
     84.0700	  627.00	  592.07	-1698.82	  407.44
     84.1700	  596.00	  590.15	-1727.90	  407.42
     84.2700	  583.00	  586.30	-1737.05	  407.39
     84.3700	  531.00	  581.05	-1783.80	  407.37
     84.4700	  565.00	  574.97	-1743.72	  407.34
     84.5700	  560.00	  568.62	-1742.37	  407.32
     84.6700	  545.00	  562.46	-1751.21	  407.29
     84.7700	  542.00	  556.81	-1748.56	  407.26
     84.8700	  513.00	  551.89	-1772.64	  407.23
     84.9700	  529.00	  547.79	-1752.54	  407.20
     85.0700	  543.00	  544.53	-1735.28	  407.16
     85.1700	  493.00	  542.05	-1782.80	  407.13
     85.2700	  552.00	  540.24	-1721.99	  407.09
     85.3700	  520.00	  539.01	-1752.76	  407.05
     85.4700	  574.00	  538.23	-1697.98	  407.01
     85.5700	  509.00	  537.82	-1762.57	  406.97
     85.6700	  498.00	  537.73	-1773.48	  406.93
     85.7700	  487.00	  537.93	-1784.68	  406.88
     85.8700	  511.00	  538.43	-1761.18	  406.84
     85.9700	  483.00	  539.31	-1790.06	  406.79
     86.0700	  556.00	  540.63	-1718.39	  406.74
     86.1700	  520.00	  542.55	-1756.30	  406.69
     86.2700	  577.00	  545.22	-1701.97	  406.64
     86.3700	  486.00	  548.81	-1796.56	  406.59
     86.4700	  570.00	  553.49	-1717.24	  406.54
     86.5700	  558.00	  559.37	-1735.12	  406.48
     86.6700	  572.00	  566.51	-1728.26	  406.42
     86.7700	  557.00	  574.51	-1751.26	  406.37
     86.8700	  616.00	  583.74	-1701.49	  406.31
     86.9700	  602.00	  593.49	-1725.24	  406.24
     87.0700	  633.00	  603.18	-1703.93	  406.18
     87.1700	  601.00	  612.09	-1744.84	  406.12
     87.2700	  663.00	  619.39	-1690.14	  406.05
     87.3700	  651.00	  624.28	-1707.03	  405.98
     87.4700	  656.00	  626.15	-1703.90	  405.92
     87.5700	  633.00	  624.78	-1725.53	  405.85
     87.6700	  635.00	  620.42	-1719.17	  405.77
     87.7700	  639.00	  613.72	-1708.47	  405.70
     87.8700	  595.00	  605.56	-1744.31	  405.63
     87.9700	  600.00	  596.84	-1730.59	  405.55
     88.0700	  635.00	  588.41	-1687.16	  405.47
     88.1700	  664.00	  580.96	-1650.71	  405.40
     88.2700	  599.00	  575.06	-1709.81	  405.32
     88.3700	  587.00	  571.06	-1717.81	  405.23
     88.4700	  575.00	  569.14	-1727.89	  405.15
     88.5700	  549.00	  569.30	-1754.05	  405.07
     88.6700	  605.00	  571.39	-1700.14	  404.98
     88.7700	  590.00	  575.11	-1718.86	  404.89
     88.8700	  600.00	  580.04	-1713.79	  404.80
     88.9700	  627.00	  585.67	-1692.42	  404.71
     89.0700	  613.00	  591.40	-1712.15	  404.62
     89.1700	  620.00	  596.60	-1710.35	  404.53
     89.2700	  568.00	  600.64	-1766.39	  404.44
     89.3700	  589.00	  602.93	-1747.68	  404.34
     89.4700	  566.00	  603.13	-1770.88	  404.24
     89.5700	  571.00	  601.14	-1763.89	  404.14
     89.6700	  619.00	  597.20	-1711.95	  404.04
     89.7700	  605.00	  591.76	-1720.51	  403.94
     89.8700	  552.00	  585.36	-1767.11	  403.84
     89.9700	  575.00	  578.53	-1737.28	  403.73
     90.0700	  586.00	  571.71	-1719.46	  403.63
     90.1700	  537.00	  565.28	-1762.03	  403.52
     90.2700	  565.00	  559.50	-1728.25	  403.41
     90.3700	  489.00	  554.52	-1799.27	  403.30
     90.4700	  482.00	  550.41	-1802.16	  403.19
     90.5700	  561.00	  547.16	-1719.91	  403.08
     90.6700	  484.00	  544.71	-1794.46	  402.96
     90.7700	  528.00	  542.96	-1748.71	  402.85
     90.8700	  533.00	  541.82	-1742.57	  402.73
     90.9700	  526.00	  541.18	-1748.93	  402.61
     91.0700	  555.00	  540.97	-1719.72	  402.49
     91.1700	  513.00	  541.16	-1761.91	  402.37
     91.2700	  516.00	  541.74	-1759.49	  402.24
     91.3700	  533.00	  542.74	-1743.49	  402.12
     91.4700	  511.00	  544.23	-1766.98	  401.99
     91.5700	  529.00	  546.35	-1751.10	  401.87
     91.6700	  526.00	  549.24	-1756.99	  401.74
     91.7700	  508.00	  553.09	-1778.84	  401.61
     91.8700	  558.00	  557.88	-1733.63	  401.48
     91.9700	  507.00	  564.26	-1791.01	  401.34
     92.0700	  547.00	  572.19	-1758.94	  401.21
     92.1700	  565.00	  581.80	-1750.55	  401.08
     92.2700	  586.00	  593.15	-1740.90	  400.94
     92.3700	  614.00	  606.19	-1725.94	  400.80
     92.4700	  648.00	  620.76	-1706.51	  400.66
     92.5700	  629.00	  636.58	-1741.33	  400.52
     92.6700	  685.00	  653.20	-1701.95	  400.38
     92.7700	  732.00	  670.08	-1671.83	  400.23
     92.8700	  666.00	  686.57	-1754.32	  400.09
     92.9700	  738.00	  701.99	-1697.74	  399.94
     93.0700	  765.00	  715.76	-1684.51	  399.80
     93.1700	  756.00	  727.59	-1705.34	  399.65
     93.2700	  754.00	  737.54	-1717.29	  399.50
     93.3700	  794.00	  745.99	-1685.74	  399.35
     93.4700	  829.00	  753.54	-1658.29	  399.19
     93.5700	  815.00	  760.82	-1679.57	  399.04
     93.6700	  811.00	  768.40	-1691.15	  398.88
     93.7700	  828.00	  776.79	-1682.54	  398.73
     93.8700	  789.00	  786.44	-1731.19	  398.57
     93.9700	  799.00	  797.78	-1732.53	  398.41
     94.0700	  858.00	  811.13	-1686.88	  398.25
     94.1700	  868.00	  826.60	-1692.35	  398.09
     94.2700	  875.00	  843.96	-1702.71	  397.92
     94.3700	  886.00	  862.54	-1710.29	  397.76
     94.4700	  921.00	  881.21	-1693.96	  397.59
     94.5700	  874.00	  898.46	-1758.21	  397.43
     94.6700	  918.00	  912.43	-1728.18	  397.26
     94.7700	  927.00	  921.22	-1727.97	  397.09
     94.8700	  928.00	  923.23	-1728.98	  396.92
     94.9700	  951.00	  917.53	-1700.28	  396.75
     95.0700	  900.00	  904.17	-1737.92	  396.58
     95.1700	  864.00	  884.15	-1753.90	  396.40
     95.2700	  864.00	  859.13	-1728.88	  396.23
     95.3700	  792.00	  831.11	-1772.86	  396.05
     95.4700	  709.00	  802.14	-1826.89	  395.87
     95.5700	  721.00	  774.21	-1786.96	  395.69
     95.6700	  699.00	  749.12	-1783.87	  395.51
     95.7700	  689.00	  728.52	-1773.27	  395.33
     95.8700	  647.00	  713.87	-1800.62	  395.15
     95.9700	  678.00	  706.47	-1762.22	  394.97
     96.0700	  688.00	  707.45	-1753.20	  394.78
     96.1700	  679.00	  717.77	-1772.52	  394.60
     96.2700	  695.00	  738.18	-1776.93	  394.41
     96.3700	  823.00	  769.15	-1679.90	  394.22
     96.4700	  816.00	  810.83	-1728.58	  394.03
     96.5700	  823.00	  862.91	-1773.66	  393.84
     96.6700	  914.00	  924.54	-1744.29	  393.65
     96.7700	  996.00	  994.19	-1731.94	  393.46
     96.8700	 1033.00	 1069.66	-1770.41	  393.27
     96.9700	 1153.00	 1147.97	-1728.72	  393.07
     97.0700	 1333.00	 1225.50	-1626.25	  392.88
     97.1700	 1328.00	 1298.02	-1703.77	  392.68
     97.2700	 1287.00	 1360.93	-1807.68	  392.48
     97.3700	 1401.00	 1409.63	-1742.38	  392.28
     97.4700	 1420.00	 1440.16	-1753.91	  392.08
     97.5700	 1521.00	 1449.98	-1662.73	  391.88
     97.6700	 1374.00	 1438.51	-1798.26	  391.68
     97.7700	 1365.00	 1407.25	-1776.00	  391.48
     97.8700	 1345.00	 1359.35	-1748.10	  391.28
     97.9700	 1329.00	 1299.03	-1703.78	  391.07
     98.0700	 1211.00	 1230.74	-1753.49	  390.87
     98.1700	 1092.00	 1158.83	-1800.58	  390.66
     98.2700	 1108.00	 1087.32	-1713.07	  390.45
     98.3700	  999.00	 1019.71	-1754.46	  390.25
     98.4700	  941.00	  958.90	-1751.65	  390.04
     98.5700	  908.00	  907.20	-1732.95	  389.83
     98.6700	  843.00	  866.36	-1757.11	  389.62
     98.7700	  799.00	  837.70	-1772.45	  389.40
     98.8700	  792.00	  822.15	-1763.90	  389.19
     98.9700	  813.00	  820.31	-1741.06	  388.98
     99.0700	  804.00	  832.58	-1762.33	  388.76
     99.1700	  858.00	  859.13	-1734.88	  388.55
     99.2700	  879.00	  899.99	-1754.74	  388.33
     99.3700	  938.00	  954.94	-1750.69	  388.12
     99.4700	 1038.00	 1023.50	-1719.25	  387.90
     99.5700	 1067.00	 1104.78	-1771.53	  387.68
     99.6700	 1189.00	 1197.43	-1742.18	  387.46
     99.7700	 1282.00	 1299.53	-1751.28	  387.24
     99.8700	 1421.00	 1408.50	-1721.25	  387.02
     99.9700	 1554.00	 1520.97	-1700.72	  386.80
    100.0700	 1604.00	 1632.94	-1762.69	  386.58
    100.1700	 1678.00	 1739.88	-1795.63	  386.36
    100.2700	 1915.00	 1837.21	-1655.96	  386.13
    100.3700	 1943.00	 1920.77	-1711.52	  385.91
    100.4700	 1958.00	 1987.21	-1762.96	  385.69
    100.5700	 2083.00	 2034.13	-1684.88	  385.46
    100.6700	 2130.00	 2060.01	-1663.76	  385.24
    100.7700	 2129.00	 2063.98	-1668.73	  385.01
    100.8700	 2033.00	 2045.77	-1746.52	  384.78
    100.9700	 2059.00	 2006.00	-1680.75	  384.55
    101.0700	 1958.00	 1946.53	-1722.28	  384.33
    101.1700	 1872.00	 1870.66	-1732.41	  384.10
    101.2700	 1850.00	 1782.88	-1666.63	  383.87
    101.3700	 1694.00	 1688.30	-1728.05	  383.64
    101.4700	 1634.00	 1592.10	-1691.85	  383.41
    101.5700	 1534.00	 1498.94	-1698.69	  383.18
    101.6700	 1471.00	 1412.64	-1675.39	  382.95
    101.7700	 1319.00	 1335.95	-1750.70	  382.71
    101.8700	 1233.00	 1270.53	-1771.28	  382.48
    101.9700	 1260.00	 1216.93	-1690.68	  382.25
    102.0700	 1172.00	 1174.70	-1736.45	  382.02
    102.1700	 1139.00	 1142.47	-1737.22	  381.78
    102.2700	 1147.00	 1118.12	-1704.87	  381.55
    102.3700	 1056.00	 1099.02	-1776.77	  381.32
    102.4700	 1076.00	 1082.35	-1740.10	  381.08
    102.5700	 1056.00	 1065.41	-1743.16	  380.85
    102.6700	 1050.00	 1045.97	-1729.72	  380.61
    102.7700	 1016.00	 1022.58	-1740.33	  380.38
    102.8700	  994.00	  994.62	-1734.37	  380.14
    102.9700	  956.00	  962.33	-1740.08	  379.90
    103.0700	  917.00	  926.47	-1743.22	  379.67
    103.1700	  897.00	  888.18	-1724.93	  379.43
    103.2700	  889.00	  848.72	-1693.47	  379.19
    103.3700	  808.00	  809.34	-1735.09	  378.96
    103.4700	  799.00	  771.20	-1705.95	  378.72
    103.5700	  744.00	  735.24	-1724.99	  378.48
    103.6700	  674.00	  702.22	-1761.97	  378.24
    103.7700	  667.00	  672.65	-1739.40	  378.01
    103.8700	  617.00	  646.82	-1763.57	  377.77
    103.9700	  651.00	  624.80	-1707.55	  377.53
    104.0700	  629.00	  606.49	-1711.24	  377.29
    104.1700	  556.00	  591.65	-1769.40	  377.05
    104.2700	  600.00	  579.95	-1713.70	  376.82
    104.3700	  606.00	  571.00	-1698.75	  376.58
    104.4700	  524.00	  564.41	-1774.16	  376.34
    104.5700	  573.00	  559.80	-1720.55	  376.10
    104.6700	  536.00	  556.79	-1754.54	  375.86
    104.7700	  544.00	  555.09	-1744.84	  375.63
    104.8700	  562.00	  554.41	-1726.16	  375.39
    104.9700	  543.00	  554.51	-1745.26	  375.15
    105.0700	  533.00	  555.27	-1756.02	  374.91
    105.1700	  562.00	  556.52	-1728.27	  374.67
    105.2700	  631.00	  558.17	-1660.92	  374.44
    105.3700	  526.00	  560.16	-1767.91	  374.20
    105.4700	  586.00	  562.51	-1710.26	  373.96
    105.5700	  527.00	  565.24	-1771.99	  373.73
    105.6700	  570.00	  568.41	-1732.16	  373.49
    105.7700	  530.00	  572.12	-1775.87	  373.25
    105.8700	  602.00	  576.49	-1708.24	  373.02
    105.9700	  578.00	  581.62	-1737.37	  372.78
    106.0700	  561.00	  587.59	-1760.34	  372.55
    106.1700	  607.00	  594.45	-1721.20	  372.31
    106.2700	  560.00	  602.17	-1775.92	  372.08
    106.3700	  583.00	  610.68	-1761.43	  371.84
    106.4700	  553.00	  619.84	-1800.59	  371.61
    106.5700	  607.00	  629.42	-1756.17	  371.37
    106.6700	  573.00	  639.16	-1799.91	  371.14
    106.7700	  605.00	  648.71	-1777.46	  370.91
    106.8700	  660.00	  657.73	-1731.48	  370.68
    106.9700	  637.00	  665.83	-1762.58	  370.44
    107.0700	  660.00	  672.66	-1746.41	  370.21
    107.1700	  679.00	  677.94	-1732.69	  369.98
    107.2700	  690.00	  681.51	-1725.26	  369.75
    107.3700	  664.00	  683.38	-1753.13	  369.52
    107.4700	  669.00	  683.72	-1748.47	  369.29
    107.5700	  691.00	  682.85	-1725.60	  369.07
    107.6700	  669.00	  681.17	-1745.92	  368.84
    107.7700	  652.00	  679.13	-1760.88	  368.61
    107.8700	  697.00	  677.13	-1713.88	  368.39
    107.9700	  642.00	  675.51	-1767.26	  368.16
    108.0700	  661.00	  674.51	-1747.26	  367.94
    108.1700	  689.00	  674.26	-1719.01	  367.71
    108.2700	  682.00	  674.78	-1726.53	  367.49
    108.3700	  719.00	  675.97	-1690.72	  367.27
    108.4700	  680.00	  677.60	-1731.35	  367.05
    108.5700	  693.00	  679.37	-1720.12	  366.83
    108.6700	  713.00	  680.90	-1701.65	  366.61
    108.7700	  670.00	  681.78	-1745.53	  366.39
    108.8700	  677.00	  681.60	-1738.35	  366.17
    108.9700	  666.00	  680.03	-1747.78	  365.96
    109.0700	  664.00	  676.86	-1746.61	  365.74
    109.1700	  668.00	  671.99	-1737.74	  365.53
    109.2700	  673.00	  665.50	-1726.25	  365.31
    109.3700	  672.00	  657.59	-1719.34	  365.10
    109.4700	  631.00	  648.54	-1751.29	  364.89
    109.5700	  637.00	  638.69	-1735.44	  364.68
    109.6700	  656.00	  628.38	-1706.13	  364.47
    109.7700	  649.00	  617.95	-1702.70	  364.26
    109.8700	  625.00	  607.72	-1716.47	  364.06
    109.9700	  620.00	  597.95	-1711.70	  363.85
    110.0700	  627.00	  588.88	-1695.63	  363.65
    110.1700	  589.00	  580.66	-1725.41	  363.45
    110.2700	  550.00	  573.41	-1757.16	  363.25
    110.3700	  559.00	  567.19	-1741.94	  363.05
    110.4700	  556.00	  562.01	-1739.76	  362.85
    110.5700	  550.00	  557.85	-1741.60	  362.65
    110.6700	  542.00	  554.66	-1746.41	  362.46
    110.7700	  547.00	  552.34	-1739.09	  362.26
    110.8700	  575.00	  550.82	-1709.57	  362.07
    110.9700	  528.00	  550.00	-1755.75	  361.88
    111.0700	  524.00	  549.79	-1759.54	  361.69
    111.1700	  554.00	  550.09	-1729.84	  361.50
    111.2700	  545.00	  550.83	-1739.58	  361.32
    111.3700	  565.00	  551.93	-1720.68	  361.13
    111.4700	  543.00	  553.35	-1744.10	  360.95
    111.5700	  565.00	  555.03	-1723.78	  360.77
    111.6700	  534.00	  556.94	-1756.69	  360.59
    111.7700	  520.00	  559.05	-1772.80	  360.42
    111.8700	  531.00	  561.36	-1764.11	  360.24
    111.9700	  606.00	  563.85	-1691.60	  360.07
    112.0700	  533.00	  566.53	-1767.28	  359.89
    112.1700	  562.00	  569.41	-1741.16	  359.73
    112.2700	  544.00	  572.53	-1762.28	  359.56
    112.3700	  590.00	  575.90	-1719.65	  359.39
    112.4700	  638.00	  579.58	-1675.33	  359.23
    112.5700	  612.00	  583.61	-1705.36	  359.07
    112.6700	  614.00	  588.07	-1707.82	  358.91
    112.7700	  639.00	  593.04	-1687.79	  358.75
    112.8700	  631.00	  598.64	-1701.39	  358.59
    112.9700	  638.00	  605.00	-1700.75	  358.44
    113.0700	  668.00	  612.35	-1678.10	  358.29
    113.1700	  689.00	  620.91	-1665.66	  358.14
    113.2700	  748.00	  631.01	-1616.76	  358.00
    113.3700	  706.00	  643.05	-1670.80	  357.85
    113.4700	  797.00	  657.55	-1594.30	  357.71
    113.5700	  752.00	  675.14	-1656.89	  357.57
    113.6700	  816.00	  696.62	-1614.37	  357.43
    113.7700	  826.00	  722.95	-1630.70	  357.30
    113.8700	  914.00	  755.29	-1575.04	  357.17
    113.9700	  968.00	  795.00	-1560.75	  357.04
    114.0700	 1018.00	  843.66	-1559.41	  356.91
    114.1700	 1018.00	  903.05	-1618.80	  356.79
    114.2700	 1183.00	  975.17	-1525.92	  356.66
    114.3700	 1262.00	 1062.19	-1533.94	  356.54
    114.4700	 1343.00	 1166.38	-1557.13	  356.43
    114.5700	 1386.00	 1290.04	-1637.79	  356.31
    114.6700	 1523.00	 1435.45	-1646.20	  356.20
    114.7700	 1746.00	 1604.72	-1592.47	  356.09
    114.8700	 1963.00	 1799.69	-1570.44	  355.99
    114.9700	 2147.00	 2021.73	-1608.48	  355.89
    115.0700	 2288.00	 2271.59	-1717.34	  355.79
    115.1700	 2558.00	 2549.27	-1725.02	  355.69
    115.2700	 2852.00	 2853.92	-1735.67	  355.60
    115.3700	 3088.00	 3183.68	-1829.43	  355.51
    115.4700	 3409.00	 3535.51	-1860.26	  355.42
    115.5700	 3817.00	 3905.19	-1821.94	  355.33
    115.6700	 4097.00	 4287.21	-1923.96	  355.25
    115.7700	 4456.00	 4675.01	-1952.76	  355.17
    115.8700	 4763.00	 5060.81	-2031.56	  355.10
    115.9700	 5291.00	 5435.65	-1878.40	  355.03
    116.0700	 5604.00	 5789.73	-1919.48	  354.96
    116.1700	 5907.00	 6112.51	-1939.26	  354.89
    116.2700	 6369.00	 6393.32	-1758.07	  354.83
    116.3700	 6564.00	 6621.80	-1791.55	  354.77
    116.4700	 6806.00	 6788.62	-1716.37	  354.72
    116.5700	 6830.00	 6886.53	-1790.28	  354.67
    116.6700	 6864.00	 6911.15	-1780.90	  354.62
    116.7700	 6935.00	 6861.52	-1660.27	  354.57
    116.8700	 6693.00	 6740.26	-1781.01	  354.53
    116.9700	 6588.00	 6553.18	-1698.93	  354.49
    117.0700	 6519.00	 6308.58	-1523.33	  354.46
    117.1700	 5990.00	 6016.38	-1760.13	  354.43
    117.2700	 5618.00	 5687.10	-1802.85	  354.40
    117.3700	 5414.00	 5331.27	-1651.02	  354.38
    117.4700	 4993.00	 4959.03	-1699.78	  354.36
    117.5700	 4630.00	 4579.65	-1683.40	  354.35
    117.6700	 4232.00	 4201.45	-1703.20	  354.34
    117.7700	 4013.00	 3831.47	-1552.22	  354.33
    117.8700	 3628.00	 3475.57	-1581.32	  354.33
    117.9700	 3341.00	 3138.49	-1531.24	  354.33
    118.0700	 2928.00	 2823.73	-1629.48	  354.33
    118.1700	 2691.00	 2533.71	-1576.46	  354.34
    118.2700	 2306.00	 2269.72	-1697.47	  354.36
    118.3700	 1956.00	 2032.17	-1809.92	  354.37
    118.4700	 1650.00	 1820.78	-1904.53	  354.39
    118.5700	 1594.00	 1634.60	-1774.35	  354.42
    118.6700	 1385.00	 1472.21	-1820.96	  354.45
    118.7700	 1277.00	 1331.82	-1788.57	  354.49
    118.8700	 1125.00	 1211.40	-1820.15	  354.53
    118.9700	  997.00	 1108.87	-1845.62	  354.57
    119.0700	  908.00	 1022.13	-1847.88	  354.62
    119.1700	  918.00	  949.15	-1764.90	  354.67
    119.2700	  806.00	  887.99	-1815.74	  354.73
    119.3700	  789.00	  836.90	-1781.65	  354.79
    119.4700	  716.00	  794.33	-1812.08	  354.86
    119.5700	  727.00	  758.88	-1765.63	  354.93
    119.6700	  659.00	  729.39	-1804.14	  355.00
    119.7700	  662.00	  704.83	-1776.58	  355.08
    119.8700	  644.00	  684.35	-1774.10	  355.17
    119.9700	  609.00	  667.27	-1792.02	  355.26
    120.0700	  606.00	  652.98	-1780.73	  355.36
    120.1700	  608.00	  641.04	-1766.79	  355.46
    120.2700	  589.00	  631.05	-1775.80	  355.56
    120.3700	  591.00	  622.72	-1765.47	  355.67
    120.4700	  556.00	  615.79	-1793.54	  355.79
    120.5700	  569.00	  610.08	-1774.83	  355.91
    120.6700	  605.00	  605.45	-1734.20	  356.04
    120.7700	  567.00	  601.76	-1768.51	  356.17
    120.8700	  566.00	  598.93	-1766.68	  356.31
    120.9700	  573.00	  596.88	-1757.63	  356.45
    121.0700	  617.00	  595.56	-1712.31	  356.60
    121.1700	  591.00	  594.93	-1737.68	  356.75
    121.2700	  608.00	  594.93	-1720.68	  356.91
    121.3700	  600.00	  595.52	-1729.27	  357.07
    121.4700	  534.00	  596.66	-1796.41	  357.24
    121.5700	  600.00	  598.30	-1732.05	  357.42
    121.6700	  557.00	  600.38	-1777.13	  357.60
    121.7700	  604.00	  602.83	-1732.58	  357.79
    121.8700	  589.00	  605.61	-1750.36	  357.98
    121.9700	  624.00	  608.62	-1718.37	  358.18
    122.0700	  586.00	  611.78	-1759.53	  358.38
    122.1700	  604.00	  614.99	-1744.74	  358.59
    122.2700	  598.00	  618.15	-1753.90	  358.81
    122.3700	  600.00	  621.14	-1754.89	  359.03
    122.4700	  624.00	  623.88	-1733.63	  359.26
    122.5700	  672.00	  626.26	-1688.01	  359.50
    122.6700	  694.00	  628.18	-1667.93	  359.74
    122.7700	  616.00	  629.56	-1747.31	  359.99
    122.8700	  654.00	  630.35	-1710.10	  360.24
    122.9700	  589.00	  630.52	-1775.27	  360.50
    123.0700	  630.00	  630.06	-1733.81	  360.77
    123.1700	  666.00	  628.99	-1696.74	  361.04
    123.2700	  683.00	  627.35	-1678.10	  361.32
    123.3700	  640.00	  625.20	-1718.95	  361.61
    123.4700	  652.00	  622.60	-1704.35	  361.90
    123.5700	  626.00	  619.62	-1727.37	  362.20
    123.6700	  630.00	  616.34	-1720.09	  362.50
    123.7700	  620.00	  612.84	-1726.59	  362.82
    123.8700	  658.00	  609.18	-1684.93	  363.14
    123.9700	  591.00	  605.44	-1748.19	  363.46
    124.0700	  598.00	  601.67	-1737.42	  363.80
    124.1700	  622.00	  597.95	-1709.70	  364.14
    124.2700	  634.00	  594.31	-1694.06	  364.49
    124.3700	  606.00	  590.81	-1718.56	  364.84
    124.4700	  616.00	  587.46	-1705.21	  365.20
    124.5700	  593.00	  584.30	-1725.05	  365.57
    124.6700	  547.00	  581.35	-1768.10	  365.95
    124.7700	  584.00	  578.63	-1728.38	  366.33
    124.8700	  612.00	  576.15	-1697.90	  366.73
    124.9700	  586.00	  485.23	-1632.98	  367.12
    125.0700	  563.00	  485.64	-1733.75	  367.53
    125.1700	  582.00	  486.05	-1733.75	  367.95
    125.2700	  598.00	  486.48	-1733.75	  368.37
    125.3700	  604.00	  486.90	-1733.75	  368.80
    125.4700	  556.00	  487.34	-1733.75	  369.23
    125.5700	  578.00	  487.79	-1733.75	  369.68
    125.6700	  541.00	  488.24	-1733.75	  370.13
    125.7700	  550.00	  488.70	-1733.75	  370.59
    125.8700	  579.00	  489.17	-1733.75	  371.06
    125.9700	  565.00	  489.65	-1733.75	  371.54
    126.0700	  587.00	  490.13	-1733.75	  372.02
    126.1700	  549.00	  490.62	-1733.75	  372.51
    126.2700	  593.00	  491.12	-1733.75	  373.02
    126.3700	  567.00	  491.63	-1733.75	  373.52
    126.4700	  588.00	  492.15	-1733.75	  374.04
    126.5700	  635.00	  492.68	-1733.75	  374.57
    126.6700	  591.00	  493.21	-1733.75	  375.10
    126.7700	  630.00	  493.75	-1733.75	  375.65
    126.8700	  574.00	  494.31	-1733.75	  376.20
    126.9700	  605.00	  494.87	-1733.75	  376.76
    127.0700	  651.00	  495.44	-1733.75	  377.33
    127.1700	  649.00	  496.01	-1733.75	  377.90
    127.2700	  660.00	  496.60	-1733.75	  378.49
    127.3700	  643.00	  497.20	-1733.75	  379.09
    127.4700	  685.00	  497.80	-1733.75	  379.69
    127.5700	  644.00	  498.41	-1733.75	  380.30
    127.6700	  691.00	  499.03	-1733.75	  380.93
    127.7700	  697.00	  499.67	-1733.75	  381.56
    127.8700	  736.00	  500.31	-1733.75	  382.20
    127.9700	  711.00	  500.96	-1733.75	  382.85
    128.0700	  745.00	  501.62	-1733.75	  383.51
    128.1700	  769.00	  502.28	-1733.75	  384.18
    128.2700	  745.00	  502.96	-1733.75	  384.85
    128.3700	  820.00	  503.65	-1733.75	  385.54
    128.4700	  802.00	  504.35	-1733.75	  386.24
    128.5700	    0.00	  505.05	-1733.75	  386.94
    128.6700	    0.00	  505.77	-1733.75	  387.66
     12.3052	        	        	        	        	       0	(  0  0  2)	  0  1
     24.8866	        	        	        	        	       0	(  0  0  4)	  0  1
     28.3310	        	        	        	        	       0	(  1  0  0)	  0  1
     29.0281	        	        	        	        	       0	(  1  0  1)	  0  1
     31.0338	        	        	        	        	       0	(  1  0  2)	  0  1
     34.1414	        	        	        	        	       0	(  1  0  3)	  0  1
     37.7838	        	        	        	        	       0	(  0  0  6)	  0  1
     38.1176	        	        	        	        	       0	(  1  0  4)	  0  1
     42.7667	        	        	        	        	       0	(  1  0  5)	  0  1
     47.9496	        	        	        	        	       0	(  1  0  6)	  0  1
     50.2672	        	        	        	        	       0	(  1  1  0)	  0  1
     51.2030	        	        	        	        	       0	(  0  0  8)	  0  1
     51.9898	        	        	        	        	       0	(  1  1  2)	  0  1
     53.5789	        	        	        	        	       0	(  1  0  7)	  0  1
     56.9364	        	        	        	        	       0	(  1  1  4)	  0  1
     58.7639	        	        	        	        	       0	(  2  0  0)	  0  1
     59.1553	        	        	        	        	       0	(  2  0  1)	  0  1
     59.6079	        	        	        	        	       0	(  1  0  8)	  0  1
     60.3204	        	        	        	        	       0	(  2  0  2)	  0  1
     62.2331	        	        	        	        	       0	(  2  0  3)	  0  1
     64.6291	        	        	        	        	       0	(  1  1  6)	  0  1
     64.8565	        	        	        	        	       0	(  2  0  4)	  0  1
     65.4290	        	        	        	        	       0	(  0  0 10)	  0  1
     66.0227	        	        	        	        	       0	(  1  0  9)	  0  1
     68.1499	        	        	        	        	       0	(  2  0  5)	  0  1
     72.0763	        	        	        	        	       0	(  2  0  6)	  0  1
     72.8370	        	        	        	        	       0	(  1  0 10)	  0  1
     74.6642	        	        	        	        	       0	(  1  1  8)	  0  1
     76.6092	        	        	        	        	       0	(  2  0  7)	  0  1
     80.0926	        	        	        	        	       0	(  1  0 11)	  0  1
     80.9052	        	        	        	        	       0	(  0  0 12)	  0  1
     81.0041	        	        	        	        	       0	(  2  1  0)	  0  1
     81.3438	        	        	        	        	       0	(  2  1  1)	  0  1
     81.7380	        	        	        	        	       0	(  2  0  8)	  0  1
     82.3614	        	        	        	        	       0	(  2  1  2)	  0  1
     84.0522	        	        	        	        	       0	(  2  1  3)	  0  1
     86.4112	        	        	        	        	       0	(  2  1  4)	  0  1
     86.9319	        	        	        	        	       0	(  1  1 10)	  0  1
     87.4743	        	        	        	        	       0	(  2  0  9)	  0  1
     87.8645	        	        	        	        	       0	(  1  0 12)	  0  1
     89.4360	        	        	        	        	       0	(  2  1  5)	  0  1
     93.1323	        	        	        	        	       0	(  2  1  6)	  0  1
     93.8596	        	        	        	        	       0	(  2  0 10)	  0  1
     94.8922	        	        	        	        	       0	(  3  0  0)	  0  1
     95.2294	        	        	        	        	       0	(  3  0  1)	  0  1
     96.2423	        	        	        	        	       0	(  3  0  2)	  0  1
     96.2748	        	        	        	        	       0	(  1  0 13)	  0  1
     97.5194	        	        	        	        	       0	(  2  1  7)	  0  1
     97.9351	        	        	        	        	       0	(  3  0  3)	  0  1
     98.4386	        	        	        	        	       0	(  0  0 14)	  0  1
    100.3173	        	        	        	        	       0	(  3  0  4)	  0  1
    100.9789	        	        	        	        	       0	(  2  0 11)	  0  1
    101.7971	        	        	        	        	       0	(  1  1 12)	  0  1
    102.6401	        	        	        	        	       0	(  2  1  8)	  0  1
    103.4079	        	        	        	        	       0	(  3  0  5)	  0  1
    105.5237	        	        	        	        	       0	(  1  0 14)	  0  1
    107.2416	        	        	        	        	       0	(  3  0  6)	  0  1
    108.5747	        	        	        	        	       0	(  2  1  9)	  0  1
    108.9869	        	        	        	        	       0	(  2  0 12)	  0  1
    111.8802	        	        	        	        	       0	(  3  0  7)	  0  1
    115.4687	        	        	        	        	       0	(  2  1 10)	  0  1
    115.9621	        	        	        	        	       0	(  1  0 15)	  0  1
    116.6156	        	        	        	        	       0	(  2  2  0)	  0  1
    117.4313	        	        	        	        	       0	(  3  0  8)	  0  1
    118.1302	        	        	        	        	       0	(  2  2  2)	  0  1
    118.1669	        	        	        	        	       0	(  2  0 13)	  0  1
    119.9164	        	        	        	        	       0	(  0  0 16)	  0  1
    120.6325	        	        	        	        	       0	(  1  1 14)	  0  1
    122.8139	        	        	        	        	       0	(  2  2  4)	  0  1
    123.5918	        	        	        	        	       0	(  2  1 11)	  0  1
    124.0883	        	        	        	        	       0	(  3  0  9)	  0  1
    124.6801	        	        	        	        	       0	(  3  1  0)	  0  1
    125.0901	        	        	        	        	       0	(  3  1  1)	  0  1
    126.3331	        	        	        	        	       0	(  3  1  2)	  0  1
    128.2978	        	        	        	        	       0	(  1  0 16)	  0  1
    128.4504	        	        	        	        	       0	(  3  1  3)	  0  1
    129.0906	        	        	        	        	       0	(  2  0 14)	  0  1
    131.2501	        	        	        	        	       0	(  2  2  6)	  0  1
    131.5251	        	        	        	        	       0	(  3  1  4)	  0  1
    132.2247	        	        	        	        	       0	(  3  0 10)	  0  1
    133.4985	        	        	        	        	       0	(  2  1 12)	  0  1
    135.7101	        	        	        	        	       0	(  3  1  5)	  0  1
    141.3026	        	        	        	        	       0	(  3  1  6)	  0  1
    142.6967	        	        	        	        	       0	(  3  0 11)	  0  1
    143.2197	        	        	        	        	       0	(  2  0 15)	  0  1
    144.4535	        	        	        	        	       0	(  1  0 17)	  0  1
    145.4762	        	        	        	        	       0	(  2  2  8)	  0  1
    146.6442	        	        	        	        	       0	(  2  1 13)	  0  1
    148.9711	        	        	        	        	       0	(  3  1  7)	  0  1
    149.5451	        	        	        	        	       0	(  1  1 16)	  0  1
    153.9346	        	        	        	        	       0	(  0  0 18)	  0  1
    158.5592	        	        	        	        	       0	(  3  0 12)	  0  1
    158.8295	        	        	        	        	       0	(  4  0  0)	  0  1
    159.7856	        	        	        	        	       0	(  4  0  1)	  0  1
    160.9537	        	        	        	        	       0	(  3  1  8)	  0  1
    162.9615	        	        	        	        	       0	(  4  0  2)	  0  1
    169.6034	        	        	        	        	       0	(  2  0 16)	  0  1
    170.2966	        	        	        	        	       0	(  4  0  3)	  0  1
    174.0045	        	        	        	        	       0	(  2  1 14)	  0  1
