MSG Master    CELL:    5.91937   5.91937  23.27377   90.0000   90.0000  120.0000   SPGR: P 63/m m c             TEMP:   1074.85
  1   1280     2.52000     0.00000    -0.12699     0.00000     0.00000    0
    99     0     2
       0.00000      10.00000
     125.00000     130.00000
 2Theta	Yobs	Ycal	Yobs-Ycal	Backg	Posr	(hkl)	K
      0.7700	    0.00	  548.13	-1733.50	  430.15
      0.8700	    0.00	  548.85	-1733.50	  430.87
      0.9700	   41.00	  549.57	-1733.50	  431.59
      1.0700	   41.00	  550.27	-1733.50	  432.29
      1.1700	   40.00	  550.96	-1733.50	  432.98
      1.2700	   50.00	  551.64	-1733.50	  433.66
      1.3700	   44.00	  552.31	-1733.50	  434.33
      1.4700	  100.00	  552.96	-1733.50	  434.99
      1.5700	  277.00	  553.61	-1733.50	  435.63
      1.6700	  457.00	  554.25	-1733.50	  436.27
      1.7700	  596.00	  554.88	-1733.50	  436.90
      1.8700	  653.00	  555.49	-1733.50	  437.51
      1.9700	  721.00	  556.10	-1733.50	  438.12
      2.0700	  778.00	  556.70	-1733.50	  438.72
      2.1700	  802.00	  557.28	-1733.50	  439.30
      2.2700	  747.00	  557.86	-1733.50	  439.88
      2.3700	  722.00	  558.42	-1733.50	  440.44
      2.4700	  679.00	  558.98	-1733.50	  441.00
      2.5700	  691.00	  559.53	-1733.50	  441.55
      2.6700	  726.00	  560.06	-1733.50	  442.08
      2.7700	  656.00	  560.59	-1733.50	  442.61
      2.8700	  631.00	  561.11	-1733.50	  443.13
      2.9700	  559.00	  561.61	-1733.50	  443.63
      3.0700	  615.00	  562.11	-1733.50	  444.13
      3.1700	  592.00	  562.60	-1733.50	  444.62
      3.2700	  636.00	  563.08	-1733.50	  445.10
      3.3700	  677.00	  563.55	-1733.50	  445.57
      3.4700	  761.00	  564.01	-1733.50	  446.03
      3.5700	  797.00	  564.46	-1733.50	  446.48
      3.6700	  891.00	  564.90	-1733.50	  446.93
      3.7700	  939.00	  565.34	-1733.50	  447.36
      3.8700	 1023.00	  565.76	-1733.50	  447.78
      3.9700	 1041.00	  566.18	-1733.50	  448.20
      4.0700	 1082.00	  566.58	-1733.50	  448.61
      4.1700	 1109.00	  566.98	-1733.50	  449.00
      4.2700	 1103.00	  567.37	-1733.50	  449.39
      4.3700	 1098.00	  567.75	-1733.50	  449.77
      4.4700	 1091.00	  568.13	-1733.50	  450.15
      4.5700	 1042.00	  568.49	-1733.50	  450.51
      4.6700	 1032.00	  568.84	-1733.50	  450.87
      4.7700	  953.00	  569.19	-1733.50	  451.21
      4.8700	  990.00	  569.53	-1733.50	  451.55
      4.9700	  923.00	  569.86	-1733.50	  451.88
      5.0700	  941.00	  570.18	-1733.50	  452.20
      5.1700	  931.00	  570.50	-1733.50	  452.52
      5.2700	  895.00	  570.80	-1733.50	  452.83
      5.3700	  866.00	  571.10	-1733.50	  453.12
      5.4700	  835.00	  571.39	-1733.50	  453.41
      5.5700	  915.00	  571.68	-1733.50	  453.70
      5.6700	  867.00	  571.95	-1733.50	  453.97
      5.7700	  879.00	  572.22	-1733.50	  454.24
      5.8700	  778.00	  572.48	-1733.50	  454.50
      5.9700	  775.00	  572.73	-1733.50	  454.75
      6.0700	  739.00	  572.97	-1733.50	  454.99
      6.1700	  743.00	  573.21	-1733.50	  455.23
      6.2700	  738.00	  573.44	-1733.50	  455.46
      6.3700	  772.00	  573.66	-1733.50	  455.68
      6.4700	  745.00	  573.88	-1733.50	  455.90
      6.5700	  731.00	  574.08	-1733.50	  456.11
      6.6700	  739.00	  574.28	-1733.50	  456.31
      6.7700	  765.00	  574.48	-1733.50	  456.50
      6.8700	  709.00	  574.66	-1733.50	  456.69
      6.9700	  722.00	  574.84	-1733.50	  456.86
      7.0700	  696.00	  575.02	-1733.50	  457.04
      7.1700	  714.00	  575.18	-1733.50	  457.20
      7.2700	  690.00	  575.34	-1733.50	  457.36
      7.3700	  657.00	  575.49	-1733.50	  457.51
      7.4700	  664.00	  575.64	-1733.50	  457.66
      7.5700	  632.00	  575.78	-1733.50	  457.80
      7.6700	  619.00	  575.91	-1733.50	  457.93
      7.7700	  662.00	  576.03	-1733.50	  458.06
      7.8700	  664.00	  576.15	-1733.50	  458.17
      7.9700	  639.00	  576.27	-1733.50	  458.29
      8.0700	  686.00	  576.37	-1733.50	  458.39
      8.1700	  645.00	  576.47	-1733.50	  458.49
      8.2700	  607.00	  576.57	-1733.50	  458.59
      8.3700	  626.00	  576.65	-1733.50	  458.68
      8.4700	  597.00	  576.74	-1733.50	  458.76
      8.5700	  608.00	  576.81	-1733.50	  458.83
      8.6700	  651.00	  576.88	-1733.50	  458.90
      8.7700	  657.00	  576.94	-1733.50	  458.97
      8.8700	  632.00	  577.00	-1733.50	  459.02
      8.9700	  591.00	  577.05	-1733.50	  459.08
      9.0700	  614.00	  577.10	-1733.50	  459.12
      9.1700	  563.00	  577.14	-1733.50	  459.16
      9.2700	  574.00	  577.18	-1733.50	  459.20
      9.3700	  654.00	  577.20	-1733.50	  459.23
      9.4700	  634.00	  577.23	-1733.50	  459.25
      9.5700	  574.00	  577.25	-1733.50	  459.27
      9.6700	  581.00	  577.26	-1733.50	  459.28
      9.7700	  627.00	  577.27	-1733.50	  459.29
      9.8700	  622.00	  577.27	-1733.50	  459.29
      9.9700	  578.00	  577.26	-1733.50	  459.28
     10.0700	  623.00	  578.16	-1688.66	  459.28
     10.1700	  545.00	  578.25	-1766.75	  459.26
     10.2700	  611.00	  578.35	-1700.85	  459.24
     10.3700	  588.00	  578.49	-1723.99	  459.22
     10.4700	  599.00	  578.69	-1713.19	  459.19
     10.5700	  596.00	  579.01	-1716.51	  459.15
     10.6700	  588.00	  579.55	-1725.05	  459.12
     10.7700	  572.00	  580.44	-1741.94	  459.07
     10.8700	  556.00	  581.73	-1759.23	  459.02
     10.9700	  576.00	  583.42	-1740.92	  458.97
     11.0700	  615.00	  585.48	-1703.98	  458.91
     11.1700	  591.00	  587.92	-1730.42	  458.85
     11.2700	  604.00	  590.75	-1720.25	  458.78
     11.3700	  623.00	  594.08	-1704.58	  458.71
     11.4700	  603.00	  598.04	-1728.54	  458.63
     11.5700	  580.00	  602.85	-1756.35	  458.55
     11.6700	  644.00	  608.88	-1698.38	  458.46
     11.7700	  601.00	  616.77	-1749.27	  458.37
     11.8700	  667.00	  627.44	-1693.94	  458.28
     11.9700	  615.00	  641.38	-1759.88	  458.18
     12.0700	  677.00	  656.75	-1713.25	  458.07
     12.1700	  732.00	  667.23	-1668.73	  457.97
     12.2700	  692.00	  663.23	-1704.73	  457.86
     12.3700	  645.00	  642.17	-1730.67	  457.74
     12.4700	  626.00	  616.65	-1724.15	  457.62
     12.5700	  597.00	  597.77	-1734.27	  457.50
     12.6700	  573.00	  587.21	-1747.71	  457.37
     12.7700	  526.00	  582.24	-1789.74	  457.24
     12.8700	  554.00	  579.92	-1759.42	  457.10
     12.9700	  524.00	  578.63	-1788.13	  456.96
     13.0700	  560.00	  577.76	-1751.26	  456.82
     13.1700	  621.00	  577.10	-1689.60	  456.67
     13.2700	  557.00	  576.57	-1753.07	  456.52
     13.3700	  586.00	  576.12	-1723.62	  456.37
     13.4700	  571.00	  575.73	-1738.23	  456.21
     13.5700	  570.00	  575.38	-1738.88	  456.05
     13.6700	  575.00	  575.06	-1733.56	  455.88
     13.7700	  588.00	  574.77	-1720.27	  455.71
     13.8700	  557.00	  574.49	-1750.99	  455.54
     13.9700	  559.00	  574.23	-1748.73	  455.36
     14.0700	  577.00	  573.98	-1730.48	  455.19
     14.1700	  620.00	  573.73	-1687.23	  455.00
     14.2700	  565.00	  573.49	-1741.99	  454.82
     14.3700	  569.00	  573.26	-1737.76	  454.63
     14.4700	  538.00	  573.02	-1768.52	  454.44
     14.5700	  571.00	  572.79	-1735.29	  454.24
     14.6700	  561.00	  572.56	-1745.06	  454.04
     14.7700	  566.00	  572.33	-1739.83	  453.84
     14.8700	  506.00	  572.10	-1799.60	  453.64
     14.9700	  515.00	  571.87	-1790.37	  453.43
     15.0700	  590.00	  571.64	-1715.14	  453.22
     15.1700	  574.00	  571.41	-1730.91	  453.01
     15.2700	  556.00	  571.18	-1748.68	  452.79
     15.3700	  556.00	  570.94	-1748.44	  452.57
     15.4700	  605.00	  570.71	-1699.21	  452.35
     15.5700	  601.00	  570.47	-1702.97	  452.13
     15.6700	  582.00	  570.23	-1721.73	  451.90
     15.7700	  605.00	  569.99	-1698.49	  451.67
     15.8700	  540.00	  569.75	-1763.25	  451.44
     15.9700	  527.00	  569.53	-1776.03	  451.20
     16.0700	  576.00	  569.29	-1726.79	  450.97
     16.1700	  606.00	  569.04	-1696.54	  450.73
     16.2700	  560.00	  568.79	-1742.29	  450.49
     16.3700	  583.00	  568.54	-1719.04	  450.24
     16.4700	  552.00	  568.29	-1749.79	  449.99
     16.5700	  562.00	  568.04	-1739.54	  449.74
     16.6700	  566.00	  567.78	-1735.28	  449.49
     16.7700	  566.00	  567.52	-1735.02	  449.24
     16.8700	  551.00	  567.26	-1749.76	  448.98
     16.9700	  574.00	  567.00	-1726.50	  448.72
     17.0700	  554.00	  566.73	-1746.23	  448.46
     17.1700	  557.00	  566.47	-1742.97	  448.20
     17.2700	  538.00	  566.20	-1761.70	  447.94
     17.3700	  583.00	  565.93	-1716.43	  447.67
     17.4700	  576.00	  565.66	-1723.16	  447.40
     17.5700	  551.00	  565.39	-1747.89	  447.13
     17.6700	  539.00	  565.11	-1759.61	  446.86
     17.7700	  551.00	  564.84	-1747.34	  446.58
     17.8700	  549.00	  564.56	-1749.06	  446.31
     17.9700	  569.00	  564.28	-1728.78	  446.03
     18.0700	  556.00	  564.10	-1741.60	  445.75
     18.1700	  559.00	  563.82	-1738.32	  445.47
     18.2700	  577.00	  563.54	-1720.04	  445.18
     18.3700	  569.00	  563.26	-1727.76	  444.90
     18.4700	  514.00	  562.97	-1782.47	  444.61
     18.5700	  600.00	  562.69	-1696.19	  444.32
     18.6700	  586.00	  562.40	-1709.90	  444.03
     18.7700	  580.00	  562.11	-1715.61	  443.74
     18.8700	  562.00	  561.90	-1733.40	  443.45
     18.9700	  553.00	  561.62	-1742.11	  443.15
     19.0700	  528.00	  561.32	-1766.82	  442.85
     19.1700	  524.00	  561.03	-1770.53	  442.56
     19.2700	  530.00	  560.74	-1764.24	  442.26
     19.3700	  556.00	  560.44	-1737.94	  441.96
     19.4700	  533.00	  560.15	-1760.65	  441.65
     19.5700	  573.00	  559.85	-1720.35	  441.35
     19.6700	  540.00	  559.56	-1753.06	  441.05
     19.7700	  525.00	  559.26	-1767.76	  440.74
     19.8700	  600.00	  558.96	-1692.46	  440.43
     19.9700	  547.00	  558.66	-1745.16	  440.13
     20.0700	  566.00	  558.36	-1725.86	  439.82
     20.1700	  559.00	  558.06	-1732.56	  439.51
     20.2700	  515.00	  557.76	-1776.26	  439.19
     20.3700	  556.00	  557.46	-1734.96	  438.88
     20.4700	  596.00	  557.16	-1694.66	  438.57
     20.5700	  533.00	  556.85	-1757.35	  438.25
     20.6700	  572.00	  556.55	-1718.05	  437.94
     20.7700	  564.00	  556.25	-1725.75	  437.62
     20.8700	  565.00	  555.95	-1724.45	  437.30
     20.9700	  558.00	  555.65	-1731.15	  436.99
     21.0700	  517.00	  555.35	-1771.85	  436.67
     21.1700	  587.00	  555.05	-1701.55	  436.35
     21.2700	  529.00	  554.75	-1759.25	  436.03
     21.3700	  553.00	  554.45	-1734.95	  435.70
     21.4700	  522.00	  554.15	-1765.65	  435.38
     21.5700	  548.00	  553.85	-1739.35	  435.06
     21.6700	  523.00	  553.55	-1764.05	  434.74
     21.7700	  569.00	  553.26	-1717.76	  434.41
     21.8700	  522.00	  552.96	-1764.46	  434.09
     21.9700	  599.00	  552.67	-1687.17	  433.76
     22.0700	  591.00	  552.38	-1694.88	  433.43
     22.1700	  573.00	  552.09	-1712.59	  433.11
     22.2700	  568.00	  551.81	-1717.31	  432.78
     22.3700	  510.00	  551.53	-1775.03	  432.45
     22.4700	  562.00	  551.25	-1722.75	  432.13
     22.5700	  555.00	  550.98	-1729.48	  431.80
     22.6700	  570.00	  550.72	-1714.22	  431.47
     22.7700	  534.00	  550.46	-1749.96	  431.14
     22.8700	  559.00	  550.21	-1724.71	  430.81
     22.9700	  541.00	  549.97	-1742.47	  430.48
     23.0700	  576.00	  549.75	-1707.25	  430.15
     23.1700	  512.00	  549.54	-1771.04	  429.82
     23.2700	  517.00	  549.35	-1765.85	  429.49
     23.3700	  547.00	  549.20	-1735.70	  429.15
     23.4700	  540.00	  549.07	-1742.57	  428.82
     23.5700	  605.00	  549.00	-1677.50	  428.49
     23.6700	  543.00	  549.14	-1739.64	  428.16
     23.7700	  542.00	  549.27	-1740.77	  427.83
     23.8700	  554.00	  549.62	-1729.12	  427.50
     23.9700	  560.00	  550.43	-1723.93	  427.16
     24.0700	  545.00	  552.11	-1740.61	  426.83
     24.1700	  529.00	  555.29	-1759.79	  426.50
     24.2700	  571.00	  560.79	-1723.29	  426.17
     24.3700	  603.00	  569.52	-1700.02	  425.84
     24.4700	  572.00	  582.35	-1743.85	  425.50
     24.5700	  575.00	  599.28	-1757.78	  425.17
     24.6700	  651.00	  617.47	-1699.97	  424.84
     24.7700	  609.00	  629.58	-1754.08	  424.51
     24.8700	  623.00	  626.17	-1736.67	  424.18
     24.9700	  627.00	  606.46	-1712.96	  423.84
     25.0700	  623.00	  582.80	-1693.30	  423.51
     25.1700	  594.00	  564.93	-1704.43	  423.18
     25.2700	  597.00	  554.57	-1691.07	  422.85
     25.3700	  552.00	  549.51	-1731.01	  422.52
     25.4700	  526.00	  547.13	-1754.63	  422.19
     25.5700	  565.00	  545.85	-1714.35	  421.86
     25.6700	  558.00	  545.02	-1720.52	  421.53
     25.7700	  588.00	  544.41	-1689.91	  421.20
     25.8700	  576.00	  543.96	-1701.46	  420.87
     25.9700	  555.00	  543.61	-1722.11	  420.54
     26.0700	  531.00	  543.36	-1745.86	  420.21
     26.1700	  563.00	  543.18	-1713.68	  419.88
     26.2700	  571.00	  543.09	-1705.59	  419.55
     26.3700	  541.00	  543.07	-1735.57	  419.23
     26.4700	  556.00	  543.15	-1720.65	  418.90
     26.5700	  602.00	  543.32	-1674.82	  418.57
     26.6700	  601.00	  543.60	-1676.10	  418.25
     26.7700	  581.00	  544.03	-1696.53	  417.92
     26.8700	  540.00	  544.63	-1738.13	  417.59
     26.9700	  586.00	  545.46	-1692.96	  417.27
     27.0700	  508.00	  546.61	-1772.11	  416.95
     27.1700	  569.00	  548.20	-1712.70	  416.62
     27.2700	  593.00	  550.48	-1690.98	  416.30
     27.3700	  620.00	  554.00	-1667.50	  415.98
     27.4700	  538.00	  559.75	-1755.25	  415.66
     27.5700	  524.00	  569.56	-1779.06	  415.33
     27.6700	  601.00	  586.32	-1718.82	  415.01
     27.7700	  592.00	  613.74	-1755.24	  414.69
     27.8700	  598.00	  655.03	-1790.53	  414.38
     27.9700	  681.00	  710.32	-1762.82	  414.06
     28.0700	  752.00	  773.15	-1754.65	  413.74
     28.1700	  932.00	  827.56	-1629.06	  413.42
     28.2700	  908.00	  849.73	-1675.23	  413.11
     28.3700	  902.00	  826.12	-1657.62	  412.79
     28.4700	  772.00	  779.77	-1741.27	  412.48
     28.5700	  728.00	  747.34	-1752.84	  412.16
     28.6700	  705.00	  745.15	-1773.65	  411.85
     28.7700	  765.00	  768.06	-1736.56	  411.54
     28.8700	  828.00	  795.61	-1701.11	  411.23
     28.9700	  783.00	  799.43	-1749.93	  410.92
     29.0700	  721.00	  762.05	-1774.55	  410.61
     29.1700	  759.00	  699.49	-1673.99	  410.30
     29.2700	  650.00	  640.20	-1723.70	  409.99
     29.3700	  605.00	  597.52	-1726.02	  409.69
     29.4700	  566.00	  571.75	-1739.25	  409.38
     29.5700	  593.00	  557.81	-1698.31	  409.08
     29.6700	  595.00	  550.44	-1688.94	  408.77
     29.7700	  594.00	  546.27	-1685.77	  408.47
     29.8700	  614.00	  543.68	-1663.18	  408.17
     29.9700	  561.00	  542.05	-1714.55	  407.87
     30.0700	  611.00	  541.25	-1663.75	  407.57
     30.1700	  557.00	  541.44	-1717.94	  407.27
     30.2700	  561.00	  543.20	-1715.70	  406.97
     30.3700	  561.00	  547.58	-1720.08	  406.68
     30.4700	  587.00	  556.22	-1702.72	  406.38
     30.5700	  630.00	  570.77	-1674.27	  406.09
     30.6700	  568.00	  591.61	-1757.11	  405.80
     30.7700	  617.00	  616.08	-1732.58	  405.50
     30.8700	  654.00	  637.17	-1716.67	  405.21
     30.9700	  598.00	  644.36	-1779.86	  404.92
     31.0700	  590.00	  630.56	-1774.06	  404.64
     31.1700	  587.00	  603.07	-1749.57	  404.35
     31.2700	  540.00	  575.59	-1769.09	  404.06
     31.3700	  587.00	  555.28	-1701.78	  403.78
     31.4700	  542.00	  542.87	-1734.37	  403.49
     31.5700	  563.00	  536.18	-1706.68	  403.21
     31.6700	  545.00	  532.73	-1721.23	  402.93
     31.7700	  502.00	  530.81	-1762.31	  402.65
     31.8700	  506.00	  529.60	-1757.10	  402.37
     31.9700	  562.00	  528.77	-1700.27	  402.10
     32.0700	  542.00	  528.18	-1719.68	  401.82
     32.1700	  561.00	  527.78	-1700.28	  401.55
     32.2700	  547.00	  527.55	-1714.05	  401.27
     32.3700	  547.00	  527.48	-1713.98	  401.00
     32.4700	  525.00	  527.57	-1736.07	  400.73
     32.5700	  553.00	  527.83	-1708.33	  400.46
     32.6700	  531.00	  528.30	-1730.80	  400.19
     32.7700	  532.00	  529.03	-1730.53	  399.93
     32.8700	  566.00	  530.08	-1697.58	  399.66
     32.9700	  513.00	  531.58	-1752.08	  399.40
     33.0700	  573.00	  533.76	-1694.26	  399.14
     33.1700	  544.00	  537.10	-1726.60	  398.88
     33.2700	  508.00	  542.70	-1768.20	  398.62
     33.3700	  569.00	  552.91	-1717.41	  398.36
     33.4700	  549.00	  572.16	-1756.66	  398.10
     33.5700	  622.00	  607.37	-1718.87	  397.85
     33.6700	  630.00	  666.25	-1769.75	  397.59
     33.7700	  731.00	  751.87	-1754.37	  397.34
     33.8700	  902.00	  854.55	-1686.05	  397.09
     33.9700	 1010.00	  946.64	-1670.14	  396.84
     34.0700	 1028.00	  986.31	-1691.81	  396.59
     34.1700	 1041.00	  943.37	-1635.87	  396.35
     34.2700	  919.00	  840.06	-1654.56	  396.10
     34.3700	  776.00	  729.16	-1686.66	  395.86
     34.4700	  650.00	  642.96	-1726.46	  395.62
     34.5700	  621.00	  588.26	-1700.76	  395.38
     34.6700	  564.00	  558.25	-1727.75	  395.14
     34.7700	  534.00	  542.97	-1742.47	  394.90
     34.8700	  575.00	  534.92	-1693.42	  394.66
     34.9700	  552.00	  530.11	-1711.61	  394.43
     35.0700	  541.00	  526.82	-1719.32	  394.20
     35.1700	  549.00	  524.32	-1708.82	  393.97
     35.2700	  486.00	  522.35	-1769.85	  393.74
     35.3700	  515.00	  520.75	-1739.25	  393.51
     35.4700	  518.00	  519.42	-1734.92	  393.28
     35.5700	  459.00	  518.30	-1792.80	  393.06
     35.6700	  516.00	  517.34	-1734.84	  392.84
     35.7700	  476.00	  516.50	-1774.00	  392.61
     35.8700	  497.00	  515.77	-1752.27	  392.39
     35.9700	  502.00	  515.12	-1746.62	  392.18
     36.0700	  472.00	  515.01	-1776.51	  391.96
     36.1700	  517.00	  514.49	-1730.99	  391.74
     36.2700	  518.00	  514.03	-1729.53	  391.53
     36.3700	  508.00	  513.61	-1739.11	  391.32
     36.4700	  528.00	  513.23	-1718.73	  391.11
     36.5700	  514.00	  512.89	-1732.39	  390.90
     36.6700	  511.00	  512.60	-1735.10	  390.70
     36.7700	  497.00	  512.36	-1748.86	  390.49
     36.8700	  523.00	  512.19	-1722.69	  390.29
     36.9700	  501.00	  512.16	-1744.66	  390.09
     37.0700	  468.00	  512.40	-1777.90	  389.89
     37.1700	  539.00	  513.15	-1707.65	  389.69
     37.2700	  516.00	  514.74	-1732.24	  389.49
     37.3700	  463.00	  517.51	-1788.01	  389.30
     37.4700	  527.00	  521.41	-1727.91	  389.10
     37.5700	  525.00	  525.77	-1734.27	  388.91
     37.6700	  534.00	  529.17	-1728.67	  388.72
     37.7700	  531.00	  530.06	-1732.56	  388.53
     37.8700	  530.00	  528.07	-1731.57	  388.35
     37.9700	  561.00	  524.55	-1697.05	  388.16
     38.0700	  511.00	  520.70	-1743.20	  387.98
     38.1700	  510.00	  517.03	-1740.53	  387.80
     38.2700	  477.00	  513.90	-1770.40	  387.62
     38.3700	  497.00	  511.53	-1748.03	  387.44
     38.4700	  528.00	  509.89	-1715.39	  387.26
     38.5700	  453.00	  508.83	-1789.33	  387.09
     38.6700	  495.00	  508.04	-1746.54	  386.92
     38.7700	  522.00	  507.59	-1719.09	  386.75
     38.8700	  474.00	  507.26	-1766.76	  386.58
     38.9700	  476.00	  506.99	-1764.49	  386.41
     39.0700	  520.00	  506.75	-1720.25	  386.25
     39.1700	  491.00	  506.54	-1749.04	  386.08
     39.2700	  525.00	  506.26	-1714.76	  385.92
     39.3700	  563.00	  506.21	-1676.71	  385.76
     39.4700	  537.00	  506.05	-1702.55	  385.60
     39.5700	  478.00	  505.90	-1761.40	  385.44
     39.6700	  504.00	  505.75	-1735.25	  385.29
     39.7700	  483.00	  505.62	-1756.12	  385.14
     39.8700	  496.00	  505.50	-1743.00	  384.98
     39.9700	  515.00	  505.39	-1723.89	  384.84
     40.0700	  487.00	  505.28	-1751.78	  384.69
     40.1700	  480.00	  505.19	-1758.69	  384.54
     40.2700	  522.00	  505.11	-1716.61	  384.40
     40.3700	  477.00	  505.04	-1761.54	  384.25
     40.4700	  486.00	  504.99	-1752.49	  384.11
     40.5700	  527.00	  504.95	-1711.45	  383.97
     40.6700	  488.00	  504.93	-1750.43	  383.84
     40.7700	  519.00	  504.92	-1719.42	  383.70
     40.8700	  541.00	  504.95	-1697.45	  383.57
     40.9700	  494.00	  505.00	-1744.50	  383.44
     41.0700	  491.00	  505.08	-1747.58	  383.31
     41.1700	  484.00	  505.21	-1754.71	  383.18
     41.2700	  526.00	  505.39	-1712.89	  383.05
     41.3700	  497.00	  505.60	-1742.10	  382.93
     41.4700	  521.00	  506.37	-1718.87	  382.80
     41.5700	  521.00	  506.84	-1719.34	  382.68
     41.6700	  524.00	  507.49	-1716.99	  382.56
     41.7700	  482.00	  508.47	-1759.97	  382.44
     41.8700	  528.00	  510.10	-1715.60	  382.33
     41.9700	  487.00	  513.10	-1759.60	  382.21
     42.0700	  505.00	  518.82	-1747.32	  382.10
     42.1700	  513.00	  529.33	-1749.83	  381.99
     42.2700	  564.00	  546.99	-1716.49	  381.88
     42.3700	  551.00	  573.04	-1755.54	  381.77
     42.4700	  534.00	  605.33	-1804.83	  381.67
     42.5700	  582.00	  636.88	-1788.38	  381.57
     42.6700	  568.00	  656.34	-1821.84	  381.46
     42.7700	  587.00	  653.59	-1800.09	  381.36
     42.8700	  604.00	  629.27	-1758.77	  381.27
     42.9700	  566.00	  595.46	-1762.96	  381.17
     43.0700	  525.00	  563.74	-1772.24	  381.07
     43.1700	  493.00	  539.80	-1780.30	  380.98
     43.2700	  539.00	  524.43	-1718.93	  380.89
     43.3700	  506.00	  515.72	-1743.22	  380.80
     43.4700	  488.00	  511.14	-1756.64	  380.71
     43.5700	  519.00	  508.74	-1723.24	  380.63
     43.6700	  475.00	  507.55	-1766.05	  380.54
     43.7700	  486.00	  506.65	-1754.15	  380.46
     43.8700	  517.00	  506.05	-1722.55	  380.38
     43.9700	  493.00	  505.57	-1746.07	  380.30
     44.0700	  504.00	  505.20	-1734.70	  380.22
     44.1700	  504.00	  504.91	-1734.41	  380.15
     44.2700	  512.00	  504.68	-1726.18	  380.08
     44.3700	  531.00	  504.51	-1707.01	  380.00
     44.4700	  533.00	  504.38	-1704.88	  379.93
     44.5700	  523.00	  504.29	-1714.79	  379.86
     44.6700	  491.00	  504.24	-1746.74	  379.80
     44.7700	  552.00	  504.08	-1685.58	  379.73
     44.8700	  520.00	  504.08	-1717.58	  379.67
     44.9700	  553.00	  504.11	-1684.61	  379.61
     45.0700	  504.00	  504.15	-1733.65	  379.55
     45.1700	  489.00	  504.41	-1748.91	  379.49
     45.2700	  510.00	  504.50	-1728.00	  379.43
     45.3700	  526.00	  504.62	-1712.12	  379.38
     45.4700	  465.00	  504.76	-1773.26	  379.33
     45.5700	  551.00	  504.92	-1687.42	  379.27
     45.6700	  498.00	  505.11	-1740.61	  379.22
     45.7700	  485.00	  505.33	-1753.83	  379.18
     45.8700	  507.00	  505.57	-1732.07	  379.13
     45.9700	  520.00	  505.85	-1719.35	  379.08
     46.0700	  543.00	  506.16	-1696.66	  379.04
     46.1700	  510.00	  506.51	-1730.01	  379.00
     46.2700	  485.00	  506.90	-1755.40	  378.96
     46.3700	  524.00	  507.35	-1716.85	  378.92
     46.4700	  496.00	  507.86	-1745.36	  378.89
     46.5700	  486.00	  508.44	-1755.94	  378.85
     46.6700	  480.00	  509.11	-1762.61	  378.82
     46.7700	  535.00	  509.90	-1708.40	  378.79
     46.8700	  479.00	  510.88	-1765.38	  378.76
     46.9700	  458.00	  512.17	-1787.67	  378.73
     47.0700	  528.00	  514.09	-1719.59	  378.70
     47.1700	  502.00	  517.20	-1748.70	  378.68
     47.2700	  497.00	  522.32	-1758.82	  378.66
     47.3700	  522.00	  530.69	-1742.19	  378.63
     47.4700	  537.00	  543.33	-1739.83	  378.61
     47.5700	  628.00	  560.36	-1665.86	  378.60
     47.6700	  609.00	  580.02	-1704.52	  378.58
     47.7700	  587.00	  598.15	-1744.65	  378.56
     47.8700	  601.00	  608.90	-1741.40	  378.55
     47.9700	  595.00	  607.82	-1746.32	  378.54
     48.0700	  539.00	  596.04	-1790.54	  378.53
     48.1700	  543.00	  579.46	-1769.96	  378.52
     48.2700	  581.00	  563.75	-1716.25	  378.51
     48.3700	  549.00	  552.09	-1736.59	  378.51
     48.4700	  553.00	  545.38	-1725.88	  378.50
     48.5700	  544.00	  543.05	-1732.55	  378.50
     48.6700	  542.00	  544.04	-1735.54	  378.50
     48.7700	  539.00	  547.42	-1741.92	  378.50
     48.8700	  577.00	  552.72	-1709.22	  378.50
     48.9700	  582.00	  559.97	-1711.47	  378.50
     49.0700	  560.00	  569.84	-1743.34	  378.51
     49.1700	  613.00	  583.95	-1704.45	  378.52
     49.2700	  613.00	  605.77	-1726.27	  378.52
     49.3700	  637.00	  641.89	-1738.39	  378.53
     49.4700	  721.00	  703.79	-1716.29	  378.54
     49.5700	  776.00	  806.76	-1764.26	  378.56
     49.6700	  944.00	  969.23	-1758.73	  378.57
     49.7700	 1108.00	 1204.54	-1830.04	  378.59
     49.8700	 1419.00	 1510.46	-1824.96	  378.60
     49.9700	 1888.00	 1857.62	-1703.12	  378.62
     50.0700	 2241.00	 2180.44	-1672.94	  378.64
     50.1700	 2523.00	 2382.74	-1593.24	  378.66
     50.2700	 2491.00	 2380.58	-1623.08	  378.69
     50.3700	 2138.00	 2172.95	-1768.45	  378.71
     50.4700	 1820.00	 1846.47	-1759.97	  378.74
     50.5700	 1388.00	 1501.17	-1846.67	  378.76
     50.6700	 1012.00	 1202.35	-1923.85	  378.79
     50.7700	  810.00	  977.89	-1901.39	  378.82
     50.8700	  721.00	  828.29	-1840.79	  378.85
     50.9700	  670.00	  738.00	-1801.50	  378.89
     51.0700	  645.00	  686.20	-1774.70	  378.92
     51.1700	  622.00	  654.31	-1765.81	  378.96
     51.2700	  585.00	  630.31	-1778.81	  378.99
     51.3700	  601.00	  609.42	-1741.92	  379.03
     51.4700	  587.00	  591.12	-1737.62	  379.07
     51.5700	  575.00	  576.02	-1734.52	  379.11
     51.6700	  559.00	  564.46	-1738.96	  379.15
     51.7700	  519.00	  556.23	-1770.73	  379.20
     51.8700	  566.00	  550.71	-1718.21	  379.24
     51.9700	  558.00	  547.18	-1722.68	  379.29
     52.0700	  558.00	  545.07	-1720.57	  379.33
     52.1700	  535.00	  544.27	-1742.77	  379.38
     52.2700	  589.00	  544.20	-1688.70	  379.43
     52.3700	  565.00	  545.20	-1713.70	  379.48
     52.4700	  549.00	  547.73	-1732.23	  379.54
     52.5700	  554.00	  552.90	-1732.40	  379.59
     52.6700	  618.00	  562.95	-1678.45	  379.65
     52.7700	  638.00	  581.92	-1677.42	  379.70
     52.8700	  651.00	  615.83	-1698.33	  379.76
     52.9700	  738.00	  671.87	-1667.37	  379.82
     53.0700	  797.00	  755.78	-1692.28	  379.88
     53.1700	  922.00	  867.57	-1679.07	  379.94
     53.2700	 1031.00	  997.16	-1699.66	  380.00
     53.3700	 1106.00	 1121.44	-1748.94	  380.07
     53.4700	 1203.00	 1206.23	-1736.73	  380.13
     53.5700	 1159.00	 1219.42	-1793.92	  380.20
     53.6700	 1072.00	 1154.72	-1816.22	  380.26
     53.7700	  991.00	 1038.41	-1780.91	  380.33
     53.8700	  893.00	  907.10	-1747.60	  380.40
     53.9700	  713.00	  788.16	-1808.66	  380.47
     54.0700	  685.00	  695.54	-1744.04	  380.55
     54.1700	  602.00	  631.84	-1763.34	  380.62
     54.2700	  602.00	  592.47	-1723.97	  380.69
     54.3700	  592.00	  570.23	-1711.73	  380.77
     54.4700	  545.00	  558.51	-1747.01	  380.84
     54.5700	  626.00	  552.62	-1660.12	  380.92
     54.6700	  567.00	  549.79	-1716.29	  381.00
     54.7700	  595.00	  548.70	-1687.20	  381.08
     54.8700	  567.00	  548.69	-1715.19	  381.16
     54.9700	  595.00	  549.52	-1688.02	  381.24
     55.0700	  604.00	  551.11	-1680.61	  381.32
     55.1700	  555.00	  553.48	-1731.98	  381.41
     55.2700	  574.00	  556.65	-1716.15	  381.49
     55.3700	  557.00	  560.77	-1737.27	  381.58
     55.4700	  578.00	  566.05	-1721.55	  381.66
     55.5700	  577.00	  572.92	-1729.42	  381.75
     55.6700	  582.00	  582.20	-1733.70	  381.84
     55.7700	  581.00	  595.57	-1748.07	  381.93
     55.8700	  596.00	  616.43	-1753.93	  382.02
     55.9700	  605.00	  651.03	-1779.53	  382.11
     56.0700	  676.00	  709.71	-1767.21	  382.21
     56.1700	  749.00	  807.31	-1791.81	  382.30
     56.2700	  870.00	  961.25	-1824.75	  382.39
     56.3700	 1099.00	 1186.34	-1820.84	  382.49
     56.4700	 1370.00	 1486.48	-1849.98	  382.59
     56.5700	 1731.00	 1845.07	-1847.57	  382.68
     56.6700	 2070.00	 2217.70	-1881.20	  382.78
     56.7700	 2514.00	 2530.01	-1749.51	  382.88
     56.8700	 2620.00	 2691.82	-1805.32	  382.98
     56.9700	 2608.00	 2643.06	-1768.56	  383.08
     57.0700	 2406.00	 2402.56	-1730.06	  383.18
     57.1700	 2037.00	 2052.57	-1749.07	  383.28
     57.2700	 1625.00	 1680.71	-1789.21	  383.39
     57.3700	 1323.00	 1348.21	-1758.71	  383.49
     57.4700	 1040.00	 1085.77	-1779.27	  383.60
     57.5700	  874.00	  899.54	-1759.04	  383.70
     57.6700	  803.00	  779.71	-1710.21	  383.81
     57.7700	  727.00	  710.07	-1716.57	  383.91
     57.8700	  693.00	  675.19	-1715.69	  384.02
     57.9700	  732.00	  664.14	-1665.64	  384.13
     58.0700	  665.00	  671.07	-1739.57	  384.24
     58.1700	  672.00	  693.96	-1755.46	  384.35
     58.2700	  833.00	  732.78	-1633.28	  384.46
     58.3700	  801.00	  787.70	-1720.20	  384.57
     58.4700	  910.00	  857.37	-1680.87	  384.69
     58.5700	 1035.00	  937.53	-1636.03	  384.80
     58.6700	 1143.00	 1020.35	-1610.85	  384.91
     58.7700	 1313.00	 1096.80	-1517.30	  385.03
     58.8700	 1422.00	 1160.60	-1472.10	  385.14
     58.9700	 1500.00	 1208.19	-1441.69	  385.26
     59.0700	 1473.00	 1234.69	-1495.19	  385.37
     59.1700	 1493.00	 1235.84	-1476.34	  385.49
     59.2700	 1442.00	 1215.32	-1506.82	  385.61
     59.3700	 1341.00	 1185.04	-1577.54	  385.73
     59.4700	 1337.00	 1157.13	-1553.63	  385.85
     59.5700	 1208.00	 1139.85	-1665.35	  385.96
     59.6700	 1136.00	 1140.30	-1737.80	  386.08
     59.7700	 1122.00	 1166.79	-1778.29	  386.21
     59.8700	 1230.00	 1224.54	-1728.04	  386.33
     59.9700	 1348.00	 1309.33	-1694.83	  386.45
     60.0700	 1449.00	 1404.64	-1689.14	  386.57
     60.1700	 1477.00	 1482.26	-1738.76	  386.69
     60.2700	 1609.00	 1509.49	-1633.99	  386.82
     60.3700	 1497.00	 1466.33	-1702.83	  386.94
     60.4700	 1426.00	 1359.99	-1667.49	  387.06
     60.5700	 1284.00	 1217.60	-1667.10	  387.19
     60.6700	 1078.00	 1068.13	-1723.63	  387.31
     60.7700	  937.00	  932.63	-1729.13	  387.44
     60.8700	  823.00	  822.92	-1733.42	  387.57
     60.9700	  767.00	  743.03	-1709.53	  387.69
     61.0700	  676.00	  691.81	-1749.31	  387.82
     61.1700	  605.00	  665.94	-1794.44	  387.95
     61.2700	  634.00	  662.69	-1762.19	  388.07
     61.3700	  694.00	  681.54	-1721.04	  388.20
     61.4700	  701.00	  724.43	-1756.93	  388.33
     61.5700	  793.00	  794.37	-1734.87	  388.46
     61.6700	  825.00	  893.17	-1801.67	  388.59
     61.7700	  951.00	 1018.34	-1800.84	  388.72
     61.8700	 1083.00	 1160.70	-1811.20	  388.85
     61.9700	 1265.00	 1302.46	-1770.96	  388.98
     62.0700	 1345.00	 1417.38	-1805.88	  389.11
     62.1700	 1405.00	 1475.88	-1804.38	  389.24
     62.2700	 1355.00	 1458.82	-1837.32	  389.37
     62.3700	 1325.00	 1371.38	-1779.88	  389.50
     62.4700	 1194.00	 1239.01	-1778.51	  389.64
     62.5700	  976.00	 1091.24	-1848.74	  389.77
     62.6700	  855.00	  950.89	-1829.39	  389.90
     62.7700	  810.00	  831.87	-1755.37	  390.03
     62.8700	  704.00	  739.85	-1769.35	  390.17
     62.9700	  610.00	  674.23	-1797.73	  390.30
     63.0700	  589.00	  630.69	-1775.19	  390.43
     63.1700	  584.00	  603.56	-1753.06	  390.56
     63.2700	  511.00	  587.66	-1810.16	  390.70
     63.3700	  601.00	  579.13	-1711.63	  390.83
     63.4700	  553.00	  575.69	-1756.19	  390.97
     63.5700	  593.00	  576.54	-1717.04	  391.10
     63.6700	  592.00	  582.12	-1723.62	  391.23
     63.7700	  639.00	  593.84	-1688.34	  391.37
     63.8700	  644.00	  613.77	-1703.27	  391.50
     63.9700	  685.00	  644.08	-1692.58	  391.64
     64.0700	  699.00	  686.27	-1720.77	  391.77
     64.1700	  763.00	  740.15	-1710.65	  391.91
     64.2700	  854.00	  802.97	-1682.47	  392.04
     64.3700	  902.00	  868.71	-1700.21	  392.18
     64.4700	  972.00	  928.02	-1689.52	  392.31
     64.5700	 1080.00	  969.38	-1622.88	  392.45
     64.6700	 1034.00	  984.95	-1684.45	  392.58
     64.7700	 1018.00	  971.99	-1687.49	  392.72
     64.8700	  979.00	  935.23	-1689.73	  392.85
     64.9700	  902.00	  883.44	-1714.94	  392.99
     65.0700	  853.00	  826.37	-1706.87	  393.12
     65.1700	  817.00	  771.93	-1688.43	  393.26
     65.2700	  763.00	  724.63	-1695.13	  393.39
     65.3700	  699.00	  685.70	-1720.20	  393.53
     65.4700	  666.00	  654.41	-1721.91	  393.66
     65.5700	  632.00	  629.49	-1730.99	  393.80
     65.6700	  575.00	  609.93	-1768.43	  393.93
     65.7700	  570.00	  594.90	-1758.40	  394.07
     65.8700	  566.00	  583.76	-1751.26	  394.20
     65.9700	  579.00	  575.95	-1730.45	  394.33
     66.0700	  530.00	  570.97	-1774.47	  394.47
     66.1700	  560.00	  568.36	-1741.86	  394.60
     66.2700	  559.00	  567.72	-1742.22	  394.74
     66.3700	  573.00	  568.71	-1729.21	  394.87
     66.4700	  535.00	  571.15	-1769.65	  395.00
     66.5700	  586.00	  575.18	-1722.68	  395.14
     66.6700	  569.00	  580.98	-1745.48	  395.27
     66.7700	  579.00	  589.55	-1744.05	  395.40
     66.8700	  558.00	  602.68	-1778.18	  395.54
     66.9700	  591.00	  623.42	-1765.93	  395.67
     67.0700	  644.00	  656.58	-1746.08	  395.80
     67.1700	  685.00	  708.96	-1757.46	  395.93
     67.2700	  815.00	  789.15	-1707.65	  396.07
     67.3700	  850.00	  906.24	-1789.74	  396.20
     67.4700	 1037.00	 1067.73	-1764.23	  396.33
     67.5700	 1313.00	 1275.83	-1696.33	  396.46
     67.6700	 1525.00	 1524.80	-1733.30	  396.59
     67.7700	 1816.00	 1797.75	-1715.25	  396.72
     67.8700	 2171.00	 2065.17	-1627.67	  396.85
     67.9700	 2261.00	 2286.49	-1758.99	  396.98
     68.0700	 2482.00	 2415.99	-1667.49	  397.11
     68.1700	 2437.00	 2420.49	-1716.99	  397.24
     68.2700	 2367.00	 2298.68	-1665.18	  397.37
     68.3700	 2091.00	 2082.32	-1724.82	  397.50
     68.4700	 1826.00	 1816.69	-1724.19	  397.63
     68.5700	 1590.00	 1543.43	-1686.93	  397.75
     68.6700	 1240.00	 1292.65	-1786.15	  397.88
     68.7700	 1079.00	 1082.05	-1736.55	  398.01
     68.8700	  841.00	  918.10	-1810.60	  398.13
     68.9700	  777.00	  798.81	-1755.31	  398.26
     69.0700	  738.00	  717.01	-1712.51	  398.39
     69.1700	  683.00	  663.60	-1714.10	  398.51
     69.2700	  655.00	  629.91	-1708.41	  398.64
     69.3700	  607.00	  609.01	-1735.51	  398.76
     69.4700	  610.00	  595.96	-1719.46	  398.88
     69.5700	  608.00	  587.58	-1713.08	  399.01
     69.6700	  570.00	  581.99	-1745.49	  399.13
     69.7700	  592.00	  578.14	-1719.64	  399.25
     69.8700	  553.00	  575.49	-1755.99	  399.37
     69.9700	  547.00	  573.74	-1760.24	  399.49
     70.0700	  602.00	  572.77	-1704.27	  399.61
     70.1700	  536.00	  572.55	-1770.05	  399.73
     70.2700	  587.00	  573.06	-1719.56	  399.85
     70.3700	  550.00	  574.42	-1757.92	  399.97
     70.4700	  591.00	  576.90	-1719.40	  400.09
     70.5700	  539.00	  580.99	-1775.49	  400.21
     70.6700	  581.00	  587.59	-1740.09	  400.33
     70.7700	  574.00	  598.26	-1757.76	  400.44
     70.8700	  586.00	  615.46	-1762.96	  400.56
     70.9700	  578.00	  642.80	-1798.30	  400.67
     71.0700	  710.00	  685.09	-1708.59	  400.79
     71.1700	  741.00	  748.03	-1740.53	  400.90
     71.2700	  829.00	  837.24	-1741.74	  401.01
     71.3700	  970.00	  956.97	-1720.47	  401.13
     71.4700	 1090.00	 1108.06	-1751.56	  401.24
     71.5700	 1269.00	 1287.01	-1751.51	  401.35
     71.6700	 1386.00	 1481.17	-1828.67	  401.46
     71.7700	 1608.00	 1673.05	-1798.55	  401.57
     71.8700	 1845.00	 1837.76	-1726.26	  401.68
     71.9700	 1908.00	 1946.72	-1772.22	  401.79
     72.0700	 1983.00	 1976.48	-1726.98	  401.89
     72.1700	 1892.00	 1919.87	-1761.37	  402.00
     72.2700	 1768.00	 1790.56	-1756.06	  402.10
     72.3700	 1668.00	 1614.94	-1680.44	  402.21
     72.4700	 1493.00	 1420.55	-1661.05	  402.31
     72.5700	 1297.00	 1230.98	-1667.48	  402.42
     72.6700	 1185.00	 1061.53	-1610.03	  402.52
     72.7700	 1058.00	  920.70	-1596.20	  402.62
     72.8700	  907.00	  810.75	-1637.25	  402.72
     72.9700	  825.00	  729.53	-1638.03	  402.82
     73.0700	  766.00	  672.26	-1639.76	  402.92
     73.1700	  710.00	  633.35	-1656.85	  403.02
     73.2700	  691.00	  607.55	-1650.05	  403.12
     73.3700	  661.00	  590.59	-1663.09	  403.22
     73.4700	  628.00	  579.36	-1684.86	  403.31
     73.5700	  667.00	  571.81	-1638.31	  403.41
     73.6700	  621.00	  566.65	-1679.15	  403.50
     73.7700	  621.00	  563.13	-1675.63	  403.59
     73.8700	  605.00	  560.83	-1689.33	  403.69
     73.9700	  619.00	  559.49	-1673.99	  403.78
     74.0700	  593.00	  558.92	-1699.42	  403.87
     74.1700	  625.00	  558.95	-1667.45	  403.96
     74.2700	  648.00	  559.39	-1644.89	  404.04
     74.3700	  588.00	  559.98	-1705.48	  404.13
     74.4700	  629.00	  560.47	-1664.97	  404.22
     74.5700	  651.00	  560.56	-1643.06	  404.30
     74.6700	  607.00	  560.03	-1686.53	  404.39
     74.7700	  633.00	  558.85	-1659.35	  404.47
     74.8700	  630.00	  557.16	-1660.66	  404.55
     74.9700	  616.00	  555.24	-1672.74	  404.64
     75.0700	  557.00	  553.42	-1729.92	  404.72
     75.1700	  597.00	  552.05	-1688.55	  404.80
     75.2700	  541.00	  551.42	-1743.92	  404.87
     75.3700	  546.00	  552.05	-1739.55	  404.95
     75.4700	  551.00	  554.27	-1736.77	  405.03
     75.5700	  577.00	  558.68	-1715.18	  405.10
     75.6700	  572.00	  565.67	-1727.17	  405.18
     75.7700	  582.00	  575.88	-1727.38	  405.25
     75.8700	  623.00	  589.53	-1700.03	  405.32
     75.9700	  605.00	  606.56	-1735.06	  405.39
     76.0700	  623.00	  626.44	-1736.94	  405.46
     76.1700	  675.00	  648.03	-1706.53	  405.53
     76.2700	  713.00	  669.55	-1690.05	  405.60
     76.3700	  680.00	  688.61	-1742.11	  405.67
     76.4700	  709.00	  702.49	-1726.99	  405.73
     76.5700	  738.00	  708.69	-1704.19	  405.80
     76.6700	  670.00	  705.91	-1769.41	  405.86
     76.7700	  664.00	  694.71	-1764.21	  405.92
     76.8700	  681.00	  677.18	-1729.68	  405.98
     76.9700	  655.00	  656.07	-1734.57	  406.04
     77.0700	  580.00	  633.75	-1787.25	  406.10
     77.1700	  568.00	  612.62	-1778.12	  406.16
     77.2700	  529.00	  593.87	-1798.37	  406.21
     77.3700	  577.00	  578.26	-1734.76	  406.27
     77.4700	  532.00	  565.97	-1767.47	  406.32
     77.5700	  530.00	  556.77	-1760.27	  406.37
     77.6700	  523.00	  550.21	-1760.71	  406.42
     77.7700	  499.00	  545.71	-1780.21	  406.47
     77.8700	  513.00	  542.72	-1763.22	  406.52
     77.9700	  562.00	  540.77	-1712.27	  406.57
     78.0700	  498.00	  539.52	-1775.02	  406.62
     78.1700	  512.00	  538.72	-1760.22	  406.66
     78.2700	  502.00	  538.20	-1769.70	  406.70
     78.3700	  525.00	  537.87	-1746.37	  406.75
     78.4700	  503.00	  537.67	-1768.17	  406.79
     78.5700	  527.00	  537.57	-1744.07	  406.83
     78.6700	  496.00	  537.58	-1775.08	  406.87
     78.7700	  539.00	  537.70	-1732.20	  406.90
     78.8700	  538.00	  537.94	-1733.44	  406.94
     78.9700	  496.00	  538.35	-1775.85	  406.97
     79.0700	  565.00	  538.95	-1707.45	  407.01
     79.1700	  478.00	  539.80	-1795.30	  407.04
     79.2700	  539.00	  540.94	-1735.44	  407.07
     79.3700	  528.00	  542.27	-1747.77	  407.10
     79.4700	  548.00	  544.17	-1729.67	  407.13
     79.5700	  540.00	  546.54	-1740.04	  407.15
     79.6700	  550.00	  549.43	-1732.93	  407.18
     79.7700	  495.00	  552.94	-1791.44	  407.20
     79.8700	  537.00	  557.17	-1753.67	  407.22
     79.9700	  570.00	  562.26	-1725.76	  407.25
     80.0700	  540.00	  568.43	-1761.93	  407.27
     80.1700	  529.00	  575.93	-1780.43	  407.28
     80.2700	  561.00	  585.10	-1757.60	  407.30
     80.3700	  582.00	  596.24	-1747.74	  407.32
     80.4700	  600.00	  609.49	-1742.99	  407.33
     80.5700	  576.00	  624.79	-1782.29	  407.34
     80.6700	  587.00	  641.75	-1788.25	  407.36
     80.7700	  670.00	  659.64	-1723.14	  407.37
     80.8700	  634.00	  677.38	-1776.88	  407.37
     80.9700	  669.00	  693.71	-1758.21	  407.38
     81.0700	  696.00	  707.42	-1744.92	  407.39
     81.1700	  726.00	  717.51	-1725.01	  407.39
     81.2700	  775.00	  723.30	-1681.80	  407.39
     81.3700	  747.00	  724.39	-1710.89	  407.40
     81.4700	  797.00	  720.82	-1657.32	  407.40
     81.5700	  717.00	  712.96	-1729.46	  407.39
     81.6700	  744.00	  701.46	-1690.96	  407.39
     81.7700	  772.00	  687.08	-1648.58	  407.39
     81.8700	  702.00	  670.77	-1702.27	  407.38
     81.9700	  707.00	  653.60	-1680.10	  407.37
     82.0700	  677.00	  636.61	-1693.11	  407.36
     82.1700	  649.00	  620.54	-1705.04	  407.35
     82.2700	  669.00	  606.02	-1670.52	  407.34
     82.3700	  664.00	  593.27	-1662.77	  407.33
     82.4700	  637.00	  582.41	-1678.91	  407.32
     82.5700	  612.00	  573.45	-1694.95	  407.30
     82.6700	  554.00	  566.34	-1745.84	  407.28
     82.7700	  593.00	  561.06	-1701.56	  407.26
     82.8700	  571.00	  557.47	-1719.97	  407.24
     82.9700	  522.00	  555.50	-1767.00	  407.22
     83.0700	  527.00	  555.03	-1761.53	  407.20
     83.1700	  603.00	  555.98	-1686.48	  407.17
     83.2700	  588.00	  558.20	-1703.70	  407.14
     83.3700	  545.00	  561.53	-1750.03	  407.12
     83.4700	  563.00	  565.71	-1736.21	  407.09
     83.5700	  558.00	  570.42	-1745.92	  407.06
     83.6700	  554.00	  575.23	-1754.73	  407.02
     83.7700	  549.00	  579.64	-1764.14	  406.99
     83.8700	  567.00	  583.10	-1749.60	  406.95
     83.9700	  560.00	  585.07	-1758.57	  406.92
     84.0700	  591.00	  585.20	-1727.70	  406.88
     84.1700	  575.00	  583.40	-1741.90	  406.84
     84.2700	  560.00	  579.93	-1753.43	  406.79
     84.3700	  521.00	  575.24	-1787.74	  406.75
     84.4700	  597.00	  569.85	-1706.35	  406.71
     84.5700	  530.00	  564.23	-1767.73	  406.66
     84.6700	  590.00	  558.78	-1702.28	  406.61
     84.7700	  512.00	  553.79	-1775.29	  406.56
     84.8700	  511.00	  549.45	-1771.95	  406.51
     84.9700	  543.00	  545.84	-1736.34	  406.46
     85.0700	  544.00	  542.96	-1732.46	  406.40
     85.1700	  505.00	  540.77	-1769.27	  406.35
     85.2700	  541.00	  539.17	-1731.67	  406.29
     85.3700	  561.00	  538.08	-1710.58	  406.23
     85.4700	  509.00	  537.39	-1761.89	  406.17
     85.5700	  487.00	  537.04	-1783.54	  406.11
     85.6700	  508.00	  536.99	-1762.49	  406.04
     85.7700	  512.00	  537.23	-1758.73	  405.98
     85.8700	  560.00	  537.80	-1711.30	  405.91
     85.9700	  528.00	  538.76	-1744.26	  405.84
     86.0700	  540.00	  540.22	-1733.72	  405.77
     86.1700	  599.00	  542.35	-1676.85	  405.70
     86.2700	  484.00	  545.31	-1794.81	  405.63
     86.3700	  548.00	  549.30	-1734.80	  405.56
     86.4700	  537.00	  554.49	-1750.99	  405.48
     86.5700	  515.00	  560.99	-1779.49	  405.40
     86.6700	  566.00	  568.84	-1736.34	  405.32
     86.7700	  601.00	  577.93	-1710.43	  405.24
     86.8700	  605.00	  588.00	-1716.50	  405.16
     86.9700	  625.00	  598.27	-1706.77	  405.08
     87.0700	  619.00	  608.78	-1723.28	  404.99
     87.1700	  646.00	  618.42	-1705.92	  404.90
     87.2700	  625.00	  626.30	-1734.80	  404.82
     87.3700	  672.00	  631.56	-1693.06	  404.73
     87.4700	  655.00	  633.54	-1712.04	  404.63
     87.5700	  655.00	  631.99	-1710.49	  404.54
     87.6700	  633.00	  627.20	-1727.70	  404.45
     87.7700	  648.00	  619.86	-1705.36	  404.35
     87.8700	  623.00	  610.91	-1721.41	  404.25
     87.9700	  629.00	  601.29	-1705.79	  404.15
     88.0700	  618.00	  591.89	-1707.39	  404.05
     88.1700	  605.00	  583.42	-1711.92	  403.95
     88.2700	  640.00	  576.45	-1669.95	  403.84
     88.3700	  641.00	  571.33	-1663.83	  403.74
     88.4700	  594.00	  568.25	-1707.75	  403.63
     88.5700	  592.00	  567.20	-1708.70	  403.52
     88.6700	  579.00	  568.02	-1722.52	  403.41
     88.7700	  585.00	  570.45	-1718.95	  403.30
     88.8700	  574.00	  574.07	-1733.57	  403.19
     88.9700	  599.00	  578.43	-1712.93	  403.07
     89.0700	  603.00	  582.98	-1713.48	  402.96
     89.1700	  581.00	  587.16	-1739.66	  402.84
     89.2700	  601.00	  590.38	-1722.88	  402.72
     89.3700	  576.00	  592.17	-1749.67	  402.60
     89.4700	  578.00	  592.19	-1747.69	  402.48
     89.5700	  582.00	  590.39	-1741.89	  402.35
     89.6700	  560.00	  586.95	-1760.45	  402.23
     89.7700	  562.00	  582.26	-1753.76	  402.10
     89.8700	  554.00	  576.77	-1756.27	  401.97
     89.9700	  592.00	  570.93	-1712.43	  401.84
     90.0700	  546.00	  565.12	-1752.62	  401.71
     90.1700	  519.00	  559.64	-1774.14	  401.58
     90.2700	  532.00	  554.72	-1756.22	  401.44
     90.3700	  461.00	  550.48	-1822.98	  401.31
     90.4700	  527.00	  546.99	-1753.49	  401.17
     90.5700	  482.00	  544.23	-1795.73	  401.03
     90.6700	  517.00	  542.16	-1758.66	  400.89
     90.7700	  514.00	  540.70	-1760.20	  400.75
     90.8700	  521.00	  539.76	-1752.26	  400.60
     90.9700	  524.00	  539.28	-1748.78	  400.46
     91.0700	  509.00	  539.19	-1763.69	  400.31
     91.1700	  531.00	  539.48	-1741.98	  400.16
     91.2700	  487.00	  540.15	-1786.65	  400.02
     91.3700	  477.00	  541.25	-1797.75	  399.87
     91.4700	  515.00	  542.86	-1761.36	  399.71
     91.5700	  476.00	  545.11	-1802.61	  399.56
     91.6700	  526.00	  548.16	-1755.66	  399.40
     91.7700	  561.00	  552.20	-1724.70	  399.25
     91.8700	  527.00	  557.44	-1763.94	  399.09
     91.9700	  564.00	  564.08	-1733.58	  398.93
     92.0700	  570.00	  572.08	-1735.58	  398.77
     92.1700	  576.00	  582.02	-1739.52	  398.61
     92.2700	  574.00	  593.73	-1753.23	  398.45
     92.3700	  559.00	  607.15	-1781.65	  398.28
     92.4700	  608.00	  622.11	-1747.61	  398.12
     92.5700	  651.00	  638.30	-1720.80	  397.95
     92.6700	  662.00	  655.29	-1726.79	  397.78
     92.7700	  674.00	  672.50	-1732.00	  397.61
     92.8700	  703.00	  689.26	-1719.76	  397.44
     92.9700	  704.00	  704.85	-1734.35	  397.26
     93.0700	  793.00	  718.71	-1659.21	  397.09
     93.1700	  748.00	  730.52	-1716.02	  396.92
     93.2700	  721.00	  740.33	-1752.83	  396.74
     93.3700	  803.00	  748.56	-1679.06	  396.56
     93.4700	  791.00	  755.79	-1698.29	  396.38
     93.5700	  820.00	  762.67	-1676.17	  396.20
     93.6700	  817.00	  769.77	-1686.27	  396.02
     93.7700	  816.00	  777.57	-1695.07	  395.83
     93.8700	  825.00	  786.54	-1695.04	  395.65
     93.9700	  867.00	  797.09	-1663.59	  395.46
     94.0700	  899.00	  809.59	-1644.09	  395.28
     94.1700	  874.00	  824.17	-1683.67	  395.09
     94.2700	  871.00	  840.61	-1703.11	  394.90
     94.3700	  868.00	  858.27	-1723.77	  394.71
     94.4700	  899.00	  876.05	-1710.55	  394.52
     94.5700	  963.00	  892.44	-1662.94	  394.32
     94.6700	  888.00	  905.64	-1751.14	  394.13
     94.7700	  972.00	  913.81	-1675.31	  393.93
     94.8700	  944.00	  915.38	-1704.88	  393.74
     94.9700	  880.00	  909.48	-1762.98	  393.54
     95.0700	  934.00	  896.16	-1695.66	  393.34
     95.1700	  882.00	  876.43	-1727.93	  393.14
     95.2700	  800.00	  851.94	-1785.44	  392.94
     95.3700	  764.00	  824.64	-1794.14	  392.74
     95.4700	  782.00	  796.56	-1748.06	  392.53
     95.5700	  767.00	  769.65	-1736.15	  392.33
     95.6700	  738.00	  745.71	-1741.21	  392.12
     95.7700	  662.00	  726.40	-1797.90	  391.91
     95.8700	  737.00	  713.15	-1709.65	  391.71
     95.9700	  700.00	  707.28	-1740.78	  391.50
     96.0700	  671.00	  709.89	-1772.39	  391.29
     96.1700	  740.00	  721.93	-1715.43	  391.08
     96.2700	  742.00	  744.13	-1735.63	  390.86
     96.3700	  800.00	  776.95	-1710.45	  390.65
     96.4700	  798.00	  820.50	-1756.00	  390.44
     96.5700	  854.00	  874.42	-1753.92	  390.22
     96.6700	  933.00	  937.82	-1738.31	  390.01
     96.7700	 1008.00	 1009.17	-1734.67	  389.79
     96.8700	 1006.00	 1086.21	-1813.71	  389.57
     96.9700	 1168.00	 1165.97	-1731.47	  389.35
     97.0700	 1246.00	 1244.76	-1732.26	  389.13
     97.1700	 1313.00	 1318.33	-1738.83	  388.91
     97.2700	 1393.00	 1382.03	-1722.53	  388.69
     97.3700	 1387.00	 1431.22	-1777.72	  388.47
     97.4700	 1402.00	 1461.91	-1793.41	  388.24
     97.5700	 1497.00	 1471.54	-1708.04	  388.02
     97.6700	 1506.00	 1459.58	-1687.08	  387.79
     97.7700	 1389.00	 1427.59	-1772.09	  387.57
     97.8700	 1350.00	 1378.84	-1762.34	  387.34
     97.9700	 1272.00	 1317.52	-1779.02	  387.11
     98.0700	 1248.00	 1248.18	-1733.68	  386.88
     98.1700	 1222.00	 1175.18	-1686.68	  386.65
     98.2700	 1084.00	 1102.55	-1752.05	  386.42
     98.3700	 1024.00	 1033.78	-1743.28	  386.19
     98.4700	  944.00	  971.75	-1761.25	  385.96
     98.5700	  850.00	  918.80	-1802.30	  385.73
     98.6700	  850.00	  876.69	-1760.19	  385.49
     98.7700	  879.00	  846.74	-1701.24	  385.26
     98.8700	  781.00	  829.89	-1782.39	  385.03
     98.9700	  782.00	  826.75	-1778.25	  384.79
     99.0700	  805.00	  837.70	-1766.20	  384.55
     99.1700	  803.00	  862.90	-1793.40	  384.32
     99.2700	  904.00	  902.33	-1731.83	  384.08
     99.3700	  941.00	  955.72	-1748.22	  383.84
     99.4700	 1034.00	 1022.54	-1722.04	  383.60
     99.5700	 1136.00	 1101.84	-1699.34	  383.37
     99.6700	 1171.00	 1192.24	-1754.74	  383.13
     99.7700	 1253.00	 1291.81	-1772.31	  382.89
     99.8700	 1341.00	 1397.91	-1790.41	  382.65
     99.9700	 1539.00	 1507.25	-1701.75	  382.41
    100.0700	 1618.00	 1615.87	-1731.37	  382.16
    100.1700	 1698.00	 1719.41	-1754.91	  381.92
    100.2700	 1863.00	 1813.46	-1683.96	  381.68
    100.3700	 1934.00	 1894.03	-1693.53	  381.44
    100.4700	 1913.00	 1957.97	-1778.47	  381.19
    100.5700	 2008.00	 2003.07	-1728.57	  380.95
    100.6700	 2100.00	 2027.94	-1661.44	  380.71
    100.7700	 2051.00	 2031.75	-1714.25	  380.46
    100.8700	 2093.00	 2014.24	-1654.74	  380.22
    100.9700	 1982.00	 1976.03	-1727.53	  379.97
    101.0700	 1979.00	 1918.93	-1673.43	  379.73
    101.1700	 1906.00	 1846.13	-1673.63	  379.48
    101.2700	 1842.00	 1761.98	-1653.48	  379.23
    101.3700	 1729.00	 1671.47	-1675.97	  378.99
    101.4700	 1554.00	 1579.58	-1759.08	  378.74
    101.5700	 1581.00	 1490.77	-1643.27	  378.49
    101.6700	 1369.00	 1408.62	-1773.12	  378.25
    101.7700	 1260.00	 1335.71	-1809.21	  378.00
    101.8700	 1286.00	 1273.60	-1721.10	  377.75
    101.9700	 1243.00	 1222.74	-1713.24	  377.51
    102.0700	 1229.00	 1182.65	-1687.15	  377.26
    102.1700	 1116.00	 1151.95	-1769.45	  377.01
    102.2700	 1130.00	 1128.58	-1732.08	  376.76
    102.3700	 1127.00	 1110.01	-1716.51	  376.52
    102.4700	 1068.00	 1093.47	-1758.97	  376.27
    102.5700	 1041.00	 1076.35	-1768.85	  376.02
    102.6700	 1031.00	 1056.50	-1759.00	  375.77
    102.7700	 1004.00	 1032.54	-1762.04	  375.53
    102.8700	 1025.00	 1003.94	-1712.44	  375.28
    102.9700	  993.00	  970.96	-1711.46	  375.03
    103.0700	  918.00	  934.43	-1749.93	  374.78
    103.1700	  910.00	  895.51	-1719.01	  374.54
    103.2700	  881.00	  855.45	-1707.95	  374.29
    103.3700	  835.00	  815.48	-1713.98	  374.04
    103.4700	  850.00	  776.74	-1660.24	  373.80
    103.5700	  745.00	  740.17	-1728.67	  373.55
    103.6700	  695.00	  706.53	-1745.03	  373.30
    103.7700	  701.00	  676.33	-1708.83	  373.06
    103.8700	  623.00	  649.85	-1760.35	  372.81
    103.9700	  603.00	  627.19	-1757.69	  372.57
    104.0700	  590.00	  608.24	-1751.74	  372.32
    104.1700	  637.00	  592.79	-1689.29	  372.08
    104.2700	  572.00	  580.51	-1742.01	  371.83
    104.3700	  590.00	  571.03	-1714.53	  371.59
    104.4700	  564.00	  563.97	-1733.47	  371.34
    104.5700	  559.00	  558.93	-1733.43	  371.10
    104.6700	  518.00	  555.57	-1771.07	  370.86
    104.7700	  562.00	  553.56	-1725.06	  370.62
    104.8700	  565.00	  552.63	-1721.13	  370.38
    104.9700	  545.00	  552.55	-1741.05	  370.13
    105.0700	  541.00	  553.16	-1745.66	  369.89
    105.1700	  532.00	  554.32	-1755.82	  369.65
    105.2700	  519.00	  555.92	-1770.42	  369.41
    105.3700	  548.00	  557.94	-1743.44	  369.18
    105.4700	  587.00	  560.35	-1706.85	  368.94
    105.5700	  521.00	  563.19	-1775.69	  368.70
    105.6700	  591.00	  566.52	-1709.02	  368.46
    105.7700	  559.00	  570.44	-1744.94	  368.23
    105.8700	  554.00	  575.07	-1754.57	  367.99
    105.9700	  600.00	  580.49	-1713.99	  367.76
    106.0700	  591.00	  586.79	-1729.29	  367.53
    106.1700	  591.00	  594.01	-1736.51	  367.29
    106.2700	  597.00	  602.11	-1738.61	  367.06
    106.3700	  620.00	  611.02	-1724.52	  366.83
    106.4700	  614.00	  620.58	-1740.08	  366.60
    106.5700	  619.00	  630.55	-1745.05	  366.37
    106.6700	  585.00	  640.67	-1789.17	  366.15
    106.7700	  616.00	  650.59	-1768.09	  365.92
    106.8700	  636.00	  659.92	-1757.42	  365.70
    106.9700	  659.00	  668.29	-1742.79	  365.47
    107.0700	  649.00	  675.33	-1759.83	  365.25
    107.1700	  682.00	  680.74	-1732.24	  365.03
    107.2700	  693.00	  684.38	-1724.88	  364.80
    107.3700	  683.00	  686.24	-1736.74	  364.58
    107.4700	  675.00	  686.50	-1745.00	  364.37
    107.5700	  685.00	  685.50	-1734.00	  364.15
    107.6700	  684.00	  683.65	-1733.15	  363.93
    107.7700	  702.00	  681.38	-1712.88	  363.72
    107.8700	  687.00	  679.13	-1725.63	  363.51
    107.9700	  672.00	  677.23	-1738.73	  363.29
    108.0700	  678.00	  675.93	-1731.43	  363.08
    108.1700	  640.00	  675.37	-1768.87	  362.88
    108.2700	  681.00	  675.57	-1728.07	  362.67
    108.3700	  681.00	  676.44	-1728.94	  362.46
    108.4700	  674.00	  677.77	-1737.27	  362.26
    108.5700	  654.00	  679.26	-1758.76	  362.05
    108.6700	  681.00	  680.52	-1733.02	  361.85
    108.7700	  719.00	  681.14	-1695.64	  361.65
    108.8700	  697.00	  680.74	-1717.24	  361.46
    108.9700	  683.00	  678.95	-1729.45	  361.26
    109.0700	  701.00	  675.58	-1708.08	  361.07
    109.1700	  653.00	  670.53	-1751.03	  360.87
    109.2700	  692.00	  663.88	-1705.38	  360.68
    109.3700	  625.00	  655.83	-1764.33	  360.49
    109.4700	  676.00	  646.67	-1704.17	  360.31
    109.5700	  653.00	  636.72	-1717.22	  360.12
    109.6700	  667.00	  626.33	-1692.83	  359.94
    109.7700	  613.00	  615.83	-1736.33	  359.76
    109.8700	  561.00	  605.52	-1778.02	  359.58
    109.9700	  612.00	  595.68	-1717.18	  359.40
    110.0700	  604.00	  586.51	-1716.01	  359.23
    110.1700	  546.00	  578.19	-1765.69	  359.05
    110.2700	  593.00	  570.83	-1711.33	  358.88
    110.3700	  546.00	  564.48	-1751.98	  358.72
    110.4700	  591.00	  559.17	-1701.67	  358.55
    110.5700	  534.00	  554.88	-1754.38	  358.39
    110.6700	  565.00	  551.55	-1720.05	  358.22
    110.7700	  576.00	  549.12	-1706.62	  358.06
    110.8700	  578.00	  547.49	-1702.99	  357.91
    110.9700	  548.00	  546.57	-1732.07	  357.75
    111.0700	  533.00	  546.28	-1746.78	  357.60
    111.1700	  525.00	  546.51	-1755.01	  357.45
    111.2700	  562.00	  547.18	-1718.69	  357.30
    111.3700	  566.00	  548.24	-1715.74	  357.16
    111.4700	  504.00	  549.61	-1779.11	  357.02
    111.5700	  566.00	  551.25	-1718.75	  356.88
    111.6700	  523.00	  553.11	-1763.61	  356.74
    111.7700	  574.00	  555.17	-1714.67	  356.61
    111.8700	  543.00	  557.41	-1747.91	  356.48
    111.9700	  527.00	  559.82	-1766.32	  356.35
    112.0700	  573.00	  562.42	-1722.92	  356.22
    112.1700	  558.00	  565.20	-1740.70	  356.10
    112.2700	  560.00	  568.20	-1741.70	  355.98
    112.3700	  602.00	  571.44	-1702.94	  355.86
    112.4700	  549.00	  574.98	-1759.48	  355.75
    112.5700	  591.00	  578.86	-1721.36	  355.64
    112.6700	  563.00	  583.15	-1753.65	  355.53
    112.7700	  594.00	  587.95	-1727.45	  355.43
    112.8700	  625.00	  593.37	-1701.87	  355.33
    112.9700	  652.00	  599.56	-1681.06	  355.23
    113.0700	  649.00	  606.71	-1691.21	  355.13
    113.1700	  685.00	  615.05	-1663.55	  355.04
    113.2700	  663.00	  624.92	-1695.42	  354.95
    113.3700	  753.00	  636.70	-1617.20	  354.87
    113.4700	  715.00	  650.92	-1669.42	  354.79
    113.5700	  759.00	  668.22	-1642.72	  354.71
    113.6700	  797.00	  689.38	-1625.88	  354.63
    113.7700	  826.00	  715.37	-1622.87	  354.56
    113.8700	  860.00	  747.34	-1620.84	  354.50
    113.9700	  929.00	  786.66	-1591.16	  354.43
    114.0700	 1013.00	  834.91	-1555.41	  354.37
    114.1700	 1064.00	  893.90	-1563.40	  354.31
    114.2700	 1140.00	  965.65	-1559.15	  354.26
    114.3700	 1184.00	 1052.31	-1601.81	  354.21
    114.4700	 1283.00	 1156.20	-1606.70	  354.17
    114.5700	 1414.00	 1279.64	-1599.14	  354.13
    114.6700	 1622.00	 1424.94	-1536.44	  354.09
    114.7700	 1658.00	 1594.27	-1669.77	  354.06
    114.8700	 1880.00	 1789.45	-1642.95	  354.03
    114.9700	 2145.00	 2011.88	-1600.38	  354.00
    115.0700	 2364.00	 2262.29	-1631.79	  353.98
    115.1700	 2548.00	 2540.74	-1726.24	  353.96
    115.2700	 2804.00	 2846.39	-1775.89	  353.95
    115.3700	 3037.00	 3177.26	-1873.76	  353.94
    115.4700	 3399.00	 3530.29	-1864.79	  353.94
    115.5700	 3765.00	 3901.13	-1869.63	  353.94
    115.6700	 4113.00	 4284.32	-1904.82	  353.94
    115.7700	 4457.00	 4673.17	-1949.67	  353.95
    115.8700	 4803.00	 5059.72	-1990.22	  353.96
    115.9700	 5267.00	 5434.95	-1901.45	  353.98
    116.0700	 5724.00	 5788.90	-1798.40	  354.00
    116.1700	 5991.00	 6111.08	-1853.58	  354.03
    116.2700	 6372.00	 6390.76	-1752.26	  354.06
    116.3700	 6573.00	 6617.48	-1777.98	  354.10
    116.4700	 6651.00	 6782.01	-1864.51	  354.14
    116.5700	 6876.00	 6877.18	-1734.68	  354.18
    116.6700	 6785.00	 6898.78	-1847.28	  354.24
    116.7700	 6865.00	 6846.02	-1714.52	  354.29
    116.8700	 6934.00	 6721.67	-1521.17	  354.35
    116.9700	 6646.00	 6531.70	-1619.20	  354.42
    117.0700	 6456.00	 6284.58	-1562.08	  354.49
    117.1700	 6024.00	 5990.20	-1699.70	  354.56
    117.2700	 5685.00	 5659.14	-1707.64	  354.64
    117.3700	 5176.00	 5302.05	-1859.55	  354.73
    117.4700	 4893.00	 4929.04	-1769.54	  354.82
    117.5700	 4609.00	 4549.44	-1673.94	  354.92
    117.6700	 4212.00	 4171.44	-1692.94	  355.02
    117.7700	 3873.00	 3802.07	-1662.57	  355.13
    117.8700	 3619.00	 3447.26	-1561.76	  355.24
    117.9700	 3338.00	 3111.64	-1507.14	  355.36
    118.0700	 2936.00	 2798.69	-1596.19	  355.48
    118.1700	 2480.00	 2510.66	-1764.16	  355.61
    118.2700	 2206.00	 2248.79	-1776.29	  355.75
    118.3700	 2002.00	 2013.48	-1744.98	  355.89
    118.4700	 1811.00	 1804.34	-1726.84	  356.04
    118.5700	 1559.00	 1620.40	-1794.90	  356.19
    118.6700	 1413.00	 1460.12	-1780.62	  356.35
    118.7700	 1241.00	 1321.67	-1814.17	  356.51
    118.8700	 1155.00	 1203.06	-1781.56	  356.68
    118.9700	  986.00	 1102.15	-1849.65	  356.86
    119.0700	  982.00	 1016.85	-1768.35	  357.04
    119.1700	  882.00	  945.09	-1796.59	  357.23
    119.2700	  759.00	  884.96	-1859.46	  357.43
    119.3700	  806.00	  834.73	-1762.23	  357.63
    119.4700	  742.00	  792.85	-1784.35	  357.84
    119.5700	  721.00	  757.97	-1770.47	  358.05
    119.6700	  634.00	  728.92	-1828.42	  358.27
    119.7700	  615.00	  704.71	-1823.21	  358.50
    119.8700	  673.00	  684.51	-1745.01	  358.73
    119.9700	  670.00	  667.64	-1731.14	  358.97
    120.0700	  638.00	  653.55	-1749.05	  359.22
    120.1700	  596.00	  641.77	-1779.27	  359.47
    120.2700	  596.00	  631.93	-1769.43	  359.73
    120.3700	  597.00	  623.75	-1760.25	  360.00
    120.4700	  573.00	  616.98	-1777.48	  360.28
    120.5700	  580.00	  611.44	-1764.94	  360.56
    120.6700	  568.00	  606.99	-1772.49	  360.84
    120.7700	  569.00	  603.49	-1767.99	  361.14
    120.8700	  572.00	  600.87	-1762.37	  361.44
    120.9700	  580.00	  599.05	-1752.55	  361.75
    121.0700	  594.00	  597.96	-1737.46	  362.07
    121.1700	  554.00	  597.55	-1777.05	  362.39
    121.2700	  558.00	  597.78	-1773.28	  362.72
    121.3700	  574.00	  598.60	-1758.10	  363.06
    121.4700	  589.00	  599.95	-1744.45	  363.41
    121.5700	  578.00	  601.79	-1757.29	  363.76
    121.6700	  597.00	  604.07	-1740.57	  364.13
    121.7700	  604.00	  606.71	-1736.21	  364.49
    121.8700	  637.00	  609.64	-1706.14	  364.87
    121.9700	  621.00	  612.77	-1725.27	  365.26
    122.0700	  656.00	  616.04	-1693.54	  365.65
    122.1700	  619.00	  619.34	-1733.84	  366.05
    122.2700	  642.00	  622.58	-1714.08	  366.46
    122.3700	  679.00	  625.65	-1680.15	  366.88
    122.4700	  684.00	  628.44	-1677.94	  367.30
    122.5700	  651.00	  630.87	-1713.37	  367.73
    122.6700	  609.00	  632.83	-1757.33	  368.17
    122.7700	  649.00	  634.25	-1718.75	  368.62
    122.8700	  612.00	  635.10	-1756.60	  369.08
    122.9700	  651.00	  635.35	-1717.85	  369.55
    123.0700	  645.00	  634.98	-1723.48	  370.02
    123.1700	  655.00	  634.04	-1712.54	  370.51
    123.2700	  592.00	  632.55	-1774.05	  371.00
    123.3700	  606.00	  630.58	-1758.08	  371.50
    123.4700	  630.00	  628.21	-1731.71	  372.01
    123.5700	  681.00	  625.49	-1677.99	  372.53
    123.6700	  653.00	  622.51	-1703.01	  373.05
    123.7700	  627.00	  619.34	-1725.84	  373.59
    123.8700	  630.00	  616.05	-1719.55	  374.14
    123.9700	  663.00	  612.70	-1683.20	  374.69
    124.0700	  602.00	  609.36	-1740.86	  375.25
    124.1700	  597.00	  606.08	-1742.58	  375.83
    124.2700	  668.00	  602.90	-1668.40	  376.41
    124.3700	  624.00	  599.86	-1709.36	  377.00
    124.4700	  561.00	  596.99	-1769.49	  377.60
    124.5700	  614.00	  594.32	-1713.82	  378.21
    124.6700	  620.00	  591.85	-1705.35	  378.83
    124.7700	  578.00	  589.61	-1745.11	  379.46
    124.8700	  598.00	  587.60	-1723.10	  380.10
    124.9700	  535.00	  498.73	-1697.23	  380.75
    125.0700	  581.00	  499.39	-1733.50	  381.41
    125.1700	  611.00	  500.05	-1733.50	  382.08
    125.2700	  573.00	  500.73	-1733.50	  382.75
    125.3700	  633.00	  501.42	-1733.50	  383.44
    125.4700	  548.00	  502.12	-1733.50	  384.14
    125.5700	  581.00	  502.83	-1733.50	  384.85
    125.6700	  568.00	  503.55	-1733.50	  385.57
    125.7700	  558.00	  504.28	-1733.50	  386.30
    125.8700	  555.00	  505.02	-1733.50	  387.04
    125.9700	  576.00	  505.77	-1733.50	  387.79
    126.0700	  593.00	  506.53	-1733.50	  388.55
    126.1700	  617.00	  507.30	-1733.50	  389.32
    126.2700	  575.00	  508.08	-1733.50	  390.11
    126.3700	  598.00	  508.88	-1733.50	  390.90
    126.4700	  578.00	  509.68	-1733.50	  391.70
    126.5700	  563.00	  510.50	-1733.50	  392.52
    126.6700	  595.00	  511.32	-1733.50	  393.34
    126.7700	  648.00	  512.16	-1733.50	  394.18
    126.8700	  605.00	  513.01	-1733.50	  395.03
    126.9700	  604.00	  513.87	-1733.50	  395.89
    127.0700	  608.00	  514.74	-1733.50	  396.76
    127.1700	  652.00	  515.62	-1733.50	  397.64
    127.2700	  580.00	  516.52	-1733.50	  398.54
    127.3700	  669.00	  517.42	-1733.50	  399.44
    127.4700	  657.00	  518.34	-1733.50	  400.36
    127.5700	  672.00	  519.27	-1733.50	  401.29
    127.6700	  687.00	  520.21	-1733.50	  402.23
    127.7700	  714.00	  521.16	-1733.50	  403.18
    127.8700	  752.00	  522.12	-1733.50	  404.14
    127.9700	  724.00	  523.10	-1733.50	  405.12
    128.0700	  753.00	  524.09	-1733.50	  406.11
    128.1700	  772.00	  525.09	-1733.50	  407.11
    128.2700	  739.00	  526.10	-1733.50	  408.12
    128.3700	  781.00	  527.12	-1733.50	  409.14
    128.4700	  785.00	  528.16	-1733.50	  410.18
    128.5700	    0.00	  529.21	-1733.50	  411.23
    128.6700	    0.00	  530.27	-1733.50	  412.29
     12.3049	        	        	        	        	       0	(  0  0  2)	  0  1
     24.8863	        	        	        	        	       0	(  0  0  4)	  0  1
     28.3301	        	        	        	        	       0	(  1  0  0)	  0  1
     29.0271	        	        	        	        	       0	(  1  0  1)	  0  1
     31.0329	        	        	        	        	       0	(  1  0  2)	  0  1
     34.1405	        	        	        	        	       0	(  1  0  3)	  0  1
     37.7834	        	        	        	        	       0	(  0  0  6)	  0  1
     38.1168	        	        	        	        	       0	(  1  0  4)	  0  1
     42.7659	        	        	        	        	       0	(  1  0  5)	  0  1
     47.9488	        	        	        	        	       0	(  1  0  6)	  0  1
     50.2656	        	        	        	        	       0	(  1  1  0)	  0  1
     51.2026	        	        	        	        	       0	(  0  0  8)	  0  1
     51.9882	        	        	        	        	       0	(  1  1  2)	  0  1
     53.5780	        	        	        	        	       0	(  1  0  7)	  0  1
     56.9349	        	        	        	        	       0	(  1  1  4)	  0  1
     58.7620	        	        	        	        	       0	(  2  0  0)	  0  1
     59.1535	        	        	        	        	       0	(  2  0  1)	  0  1
     59.6071	        	        	        	        	       0	(  1  0  8)	  0  1
     60.3186	        	        	        	        	       0	(  2  0  2)	  0  1
     62.2313	        	        	        	        	       0	(  2  0  3)	  0  1
     64.6276	        	        	        	        	       0	(  1  1  6)	  0  1
     64.8547	        	        	        	        	       0	(  2  0  4)	  0  1
     65.4285	        	        	        	        	       0	(  0  0 10)	  0  1
     66.0219	        	        	        	        	       0	(  1  0  9)	  0  1
     68.1481	        	        	        	        	       0	(  2  0  5)	  0  1
     72.0745	        	        	        	        	       0	(  2  0  6)	  0  1
     72.8362	        	        	        	        	       0	(  1  0 10)	  0  1
     74.6627	        	        	        	        	       0	(  1  1  8)	  0  1
     76.6074	        	        	        	        	       0	(  2  0  7)	  0  1
     80.0918	        	        	        	        	       0	(  1  0 11)	  0  1
     80.9047	        	        	        	        	       0	(  0  0 12)	  0  1
     81.0014	        	        	        	        	       0	(  2  1  0)	  0  1
     81.3411	        	        	        	        	       0	(  2  1  1)	  0  1
     81.7362	        	        	        	        	       0	(  2  0  8)	  0  1
     82.3587	        	        	        	        	       0	(  2  1  2)	  0  1
     84.0495	        	        	        	        	       0	(  2  1  3)	  0  1
     86.4084	        	        	        	        	       0	(  2  1  4)	  0  1
     86.9304	        	        	        	        	       0	(  1  1 10)	  0  1
     87.4724	        	        	        	        	       0	(  2  0  9)	  0  1
     87.8636	        	        	        	        	       0	(  1  0 12)	  0  1
     89.4333	        	        	        	        	       0	(  2  1  5)	  0  1
     93.1295	        	        	        	        	       0	(  2  1  6)	  0  1
     93.8577	        	        	        	        	       0	(  2  0 10)	  0  1
     94.8888	        	        	        	        	       0	(  3  0  0)	  0  1
     95.2260	        	        	        	        	       0	(  3  0  1)	  0  1
     96.2389	        	        	        	        	       0	(  3  0  2)	  0  1
     96.2739	        	        	        	        	       0	(  1  0 13)	  0  1
     97.5166	        	        	        	        	       0	(  2  1  7)	  0  1
     97.9316	        	        	        	        	       0	(  3  0  3)	  0  1
     98.4379	        	        	        	        	       0	(  0  0 14)	  0  1
    100.3138	        	        	        	        	       0	(  3  0  4)	  0  1
    100.9770	        	        	        	        	       0	(  2  0 11)	  0  1
    101.7955	        	        	        	        	       0	(  1  1 12)	  0  1
    102.6372	        	        	        	        	       0	(  2  1  8)	  0  1
    103.4043	        	        	        	        	       0	(  3  0  5)	  0  1
    105.5227	        	        	        	        	       0	(  1  0 14)	  0  1
    107.2380	        	        	        	        	       0	(  3  0  6)	  0  1
    108.5717	        	        	        	        	       0	(  2  1  9)	  0  1
    108.9848	        	        	        	        	       0	(  2  0 12)	  0  1
    111.8764	        	        	        	        	       0	(  3  0  7)	  0  1
    115.4655	        	        	        	        	       0	(  2  1 10)	  0  1
    115.9609	        	        	        	        	       0	(  1  0 15)	  0  1
    116.6107	        	        	        	        	       0	(  2  2  0)	  0  1
    117.4274	        	        	        	        	       0	(  3  0  8)	  0  1
    118.1252	        	        	        	        	       0	(  2  2  2)	  0  1
    118.1647	        	        	        	        	       0	(  2  0 13)	  0  1
    119.9155	        	        	        	        	       0	(  0  0 16)	  0  1
    120.6305	        	        	        	        	       0	(  1  1 14)	  0  1
    122.8086	        	        	        	        	       0	(  2  2  4)	  0  1
    123.5883	        	        	        	        	       0	(  2  1 11)	  0  1
    124.0840	        	        	        	        	       0	(  3  0  9)	  0  1
    124.6743	        	        	        	        	       0	(  3  1  0)	  0  1
    125.0843	        	        	        	        	       0	(  3  1  1)	  0  1
    126.3271	        	        	        	        	       0	(  3  1  2)	  0  1
    128.2964	        	        	        	        	       0	(  1  0 16)	  0  1
    128.4443	        	        	        	        	       0	(  3  1  3)	  0  1
    129.0879	        	        	        	        	       0	(  2  0 14)	  0  1
    131.2442	        	        	        	        	       0	(  2  2  6)	  0  1
    131.5187	        	        	        	        	       0	(  3  1  4)	  0  1
    132.2199	        	        	        	        	       0	(  3  0 10)	  0  1
    133.4944	        	        	        	        	       0	(  2  1 12)	  0  1
    135.7033	        	        	        	        	       0	(  3  1  5)	  0  1
    141.2950	        	        	        	        	       0	(  3  1  6)	  0  1
    142.6908	        	        	        	        	       0	(  3  0 11)	  0  1
    143.2162	        	        	        	        	       0	(  2  0 15)	  0  1
    144.4514	        	        	        	        	       0	(  1  0 17)	  0  1
    145.4682	        	        	        	        	       0	(  2  2  8)	  0  1
    146.6387	        	        	        	        	       0	(  2  1 13)	  0  1
    148.9617	        	        	        	        	       0	(  3  1  7)	  0  1
    149.5416	        	        	        	        	       0	(  1  1 16)	  0  1
    153.9327	        	        	        	        	       0	(  0  0 18)	  0  1
    158.5493	        	        	        	        	       0	(  3  0 12)	  0  1
    158.8136	        	        	        	        	       0	(  4  0  0)	  0  1
    159.7690	        	        	        	        	       0	(  4  0  1)	  0  1
    160.9389	        	        	        	        	       0	(  3  1  8)	  0  1
    162.9419	        	        	        	        	       0	(  4  0  2)	  0  1
    169.5919	        	        	        	        	       0	(  2  0 16)	  0  1
    170.2624	        	        	        	        	       0	(  4  0  3)	  0  1
    173.9757	        	        	        	        	       0	(  2  1 14)	  0  1
