MSG Master    CELL:    5.91918   5.91918  23.27626   90.0000   90.0000  120.0000   SPGR: P 63/m m c             TEMP:   1074.85
  1   1280     2.52000     0.00000    -0.12682     0.00000     0.00000    0
    99     0     2
       0.00000      10.00000
     125.00000     130.00000
 2Theta	Yobs	Ycal	Yobs-Ycal	Backg	Posr	(hkl)	K
      0.7700	    0.00	  522.85	-1744.25	  404.24
      0.8700	    0.00	  523.76	-1744.25	  405.15
      0.9700	   36.00	  524.66	-1744.25	  406.05
      1.0700	   51.00	  525.55	-1744.25	  406.94
      1.1700	   41.00	  526.43	-1744.25	  407.81
      1.2700	   45.00	  527.29	-1744.25	  408.68
      1.3700	   46.00	  528.15	-1744.25	  409.53
      1.4700	  106.00	  528.99	-1744.25	  410.38
      1.5700	  326.00	  529.82	-1744.25	  411.21
      1.6700	  478.00	  530.64	-1744.25	  412.03
      1.7700	  590.00	  531.45	-1744.25	  412.83
      1.8700	  604.00	  532.25	-1744.25	  413.63
      1.9700	  716.00	  533.03	-1744.25	  414.42
      2.0700	  750.00	  533.81	-1744.25	  415.19
      2.1700	  760.00	  534.57	-1744.25	  415.96
      2.2700	  766.00	  535.33	-1744.25	  416.71
      2.3700	  711.00	  536.07	-1744.25	  417.46
      2.4700	  729.00	  536.81	-1744.25	  418.19
      2.5700	  673.00	  537.53	-1744.25	  418.91
      2.6700	  681.00	  538.24	-1744.25	  419.62
      2.7700	  652.00	  538.94	-1744.25	  420.32
      2.8700	  632.00	  539.63	-1744.25	  421.02
      2.9700	  670.00	  540.31	-1744.25	  421.70
      3.0700	  577.00	  540.98	-1744.25	  422.37
      3.1700	  595.00	  541.64	-1744.25	  423.03
      3.2700	  596.00	  542.29	-1744.25	  423.68
      3.3700	  758.00	  542.93	-1744.25	  424.32
      3.4700	  740.00	  543.56	-1744.25	  424.95
      3.5700	  796.00	  544.18	-1744.25	  425.57
      3.6700	  823.00	  544.79	-1744.25	  426.18
      3.7700	  966.00	  545.39	-1744.25	  426.78
      3.8700	  977.00	  545.99	-1744.25	  427.37
      3.9700	 1017.00	  546.57	-1744.25	  427.95
      4.0700	 1059.00	  547.14	-1744.25	  428.52
      4.1700	 1098.00	  547.70	-1744.25	  429.09
      4.2700	 1118.00	  548.26	-1744.25	  429.64
      4.3700	 1093.00	  548.80	-1744.25	  430.18
      4.4700	 1040.00	  549.33	-1744.25	  430.72
      4.5700	 1093.00	  549.86	-1744.25	  431.24
      4.6700	 1028.00	  550.38	-1744.25	  431.76
      4.7700	 1013.00	  550.88	-1744.25	  432.27
      4.8700	  993.00	  551.38	-1744.25	  432.77
      4.9700	  930.00	  551.87	-1744.25	  433.25
      5.0700	  916.00	  552.35	-1744.25	  433.73
      5.1700	  932.00	  552.82	-1744.25	  434.21
      5.2700	  882.00	  553.28	-1744.25	  434.67
      5.3700	  870.00	  553.74	-1744.25	  435.12
      5.4700	  876.00	  554.18	-1744.25	  435.57
      5.5700	  806.00	  554.62	-1744.25	  436.01
      5.6700	  875.00	  555.05	-1744.25	  436.43
      5.7700	  824.00	  555.47	-1744.25	  436.85
      5.8700	  840.00	  555.88	-1744.25	  437.27
      5.9700	  828.00	  556.28	-1744.25	  437.67
      6.0700	  790.00	  556.68	-1744.25	  438.06
      6.1700	  812.00	  557.07	-1744.25	  438.45
      6.2700	  770.00	  557.44	-1744.25	  438.83
      6.3700	  812.00	  557.82	-1744.25	  439.20
      6.4700	  803.00	  558.18	-1744.25	  439.56
      6.5700	  724.00	  558.53	-1744.25	  439.92
      6.6700	  707.00	  558.88	-1744.25	  440.26
      6.7700	  748.00	  559.22	-1744.25	  440.60
      6.8700	  708.00	  559.55	-1744.25	  440.93
      6.9700	  719.00	  559.87	-1744.25	  441.26
      7.0700	  736.00	  560.19	-1744.25	  441.57
      7.1700	  729.00	  560.50	-1744.25	  441.88
      7.2700	  718.00	  560.80	-1744.25	  442.18
      7.3700	  649.00	  561.09	-1744.25	  442.48
      7.4700	  652.00	  561.38	-1744.25	  442.76
      7.5700	  648.00	  561.66	-1744.25	  443.04
      7.6700	  674.00	  561.93	-1744.25	  443.31
      7.7700	  645.00	  562.19	-1744.25	  443.58
      7.8700	  632.00	  562.45	-1744.25	  443.83
      7.9700	  654.00	  562.70	-1744.25	  444.08
      8.0700	  657.00	  562.94	-1744.25	  444.33
      8.1700	  623.00	  563.18	-1744.25	  444.56
      8.2700	  643.00	  563.41	-1744.25	  444.79
      8.3700	  670.00	  563.63	-1744.25	  445.01
      8.4700	  607.00	  563.85	-1744.25	  445.23
      8.5700	  660.00	  564.05	-1744.25	  445.44
      8.6700	  622.00	  564.26	-1744.25	  445.64
      8.7700	  595.00	  564.45	-1744.25	  445.84
      8.8700	  644.00	  564.64	-1744.25	  446.02
      8.9700	  594.00	  564.82	-1744.25	  446.21
      9.0700	  617.00	  565.00	-1744.25	  446.38
      9.1700	  619.00	  565.17	-1744.25	  446.55
      9.2700	  622.00	  565.33	-1744.25	  446.71
      9.3700	  595.00	  565.48	-1744.25	  446.87
      9.4700	  543.00	  565.63	-1744.25	  447.02
      9.5700	  581.00	  565.78	-1744.25	  447.16
      9.6700	  601.00	  565.92	-1744.25	  447.30
      9.7700	  609.00	  566.05	-1744.25	  447.43
      9.8700	  631.00	  566.17	-1744.25	  447.56
      9.9700	  649.00	  566.29	-1744.25	  447.68
     10.0700	  547.00	  567.34	-1764.59	  447.79
     10.1700	  557.00	  567.55	-1754.80	  447.90
     10.2700	  629.00	  567.78	-1683.03	  448.00
     10.3700	  570.00	  568.04	-1742.29	  448.10
     10.4700	  570.00	  568.37	-1742.62	  448.19
     10.5700	  570.00	  568.83	-1743.08	  448.27
     10.6700	  600.00	  569.52	-1713.77	  448.35
     10.7700	  598.00	  570.57	-1716.82	  448.42
     10.8700	  569.00	  572.06	-1747.31	  448.49
     10.9700	  602.00	  573.97	-1716.22	  448.55
     11.0700	  552.00	  576.27	-1768.52	  448.61
     11.1700	  551.00	  578.96	-1772.21	  448.66
     11.2700	  587.00	  582.07	-1739.32	  448.71
     11.3700	  590.00	  585.71	-1739.96	  448.75
     11.4700	  559.00	  590.01	-1775.26	  448.79
     11.5700	  578.00	  595.21	-1761.46	  448.82
     11.6700	  603.00	  601.71	-1742.96	  448.84
     11.7700	  653.00	  610.20	-1701.45	  448.86
     11.8700	  653.00	  621.66	-1712.91	  448.88
     11.9700	  675.00	  636.66	-1705.91	  448.89
     12.0700	  681.00	  653.24	-1716.49	  448.89
     12.1700	  737.00	  664.55	-1671.80	  448.89
     12.2700	  680.00	  660.20	-1724.45	  448.89
     12.3700	  640.00	  637.56	-1741.81	  448.88
     12.4700	  601.00	  610.39	-1753.64	  448.87
     12.5700	  568.00	  590.52	-1766.77	  448.85
     12.6700	  640.00	  579.61	-1683.86	  448.82
     12.7700	  544.00	  574.60	-1774.85	  448.80
     12.8700	  594.00	  572.34	-1722.59	  448.76
     12.9700	  502.00	  571.13	-1813.38	  448.73
     13.0700	  573.00	  570.35	-1741.60	  448.69
     13.1700	  547.00	  569.77	-1767.02	  448.64
     13.2700	  550.00	  569.33	-1763.58	  448.59
     13.3700	  552.00	  568.97	-1761.22	  448.53
     13.4700	  563.00	  568.67	-1749.92	  448.48
     13.5700	  594.00	  568.42	-1718.67	  448.41
     13.6700	  533.00	  568.20	-1779.45	  448.35
     13.7700	  527.00	  568.00	-1785.25	  448.27
     13.8700	  543.00	  567.82	-1769.07	  448.20
     13.9700	  562.00	  567.65	-1749.90	  448.12
     14.0700	  538.00	  567.49	-1773.74	  448.04
     14.1700	  542.00	  567.34	-1769.59	  447.95
     14.2700	  580.00	  567.19	-1731.44	  447.86
     14.3700	  561.00	  567.04	-1750.29	  447.76
     14.4700	  562.00	  566.90	-1749.15	  447.66
     14.5700	  544.00	  566.76	-1767.01	  447.56
     14.6700	  549.00	  566.62	-1761.87	  447.45
     14.7700	  562.00	  566.48	-1748.73	  447.34
     14.8700	  545.00	  566.34	-1765.59	  447.23
     14.9700	  566.00	  566.20	-1744.45	  447.11
     15.0700	  570.00	  566.06	-1740.31	  446.99
     15.1700	  534.00	  565.91	-1776.16	  446.86
     15.2700	  549.00	  565.77	-1761.02	  446.73
     15.3700	  543.00	  565.62	-1766.87	  446.60
     15.4700	  595.00	  565.47	-1714.72	  446.47
     15.5700	  545.00	  565.32	-1764.57	  446.33
     15.6700	  564.00	  565.16	-1745.41	  446.19
     15.7700	  565.00	  565.01	-1744.26	  446.04
     15.8700	  557.00	  564.85	-1752.10	  445.89
     15.9700	  568.00	  564.72	-1740.97	  445.74
     16.0700	  537.00	  564.55	-1771.80	  445.59
     16.1700	  537.00	  564.39	-1771.64	  445.43
     16.2700	  569.00	  564.22	-1739.47	  445.27
     16.3700	  601.00	  564.05	-1707.30	  445.10
     16.4700	  592.00	  563.88	-1716.13	  444.94
     16.5700	  525.00	  563.70	-1782.95	  444.77
     16.6700	  569.00	  563.52	-1738.77	  444.59
     16.7700	  534.00	  563.34	-1773.59	  444.42
     16.8700	  531.00	  563.16	-1776.41	  444.24
     16.9700	  568.00	  562.97	-1739.22	  444.06
     17.0700	  585.00	  562.78	-1722.03	  443.87
     17.1700	  548.00	  562.59	-1758.84	  443.68
     17.2700	  561.00	  562.40	-1745.65	  443.49
     17.3700	  530.00	  562.21	-1776.46	  443.30
     17.4700	  555.00	  562.01	-1751.26	  443.11
     17.5700	  567.00	  561.81	-1739.06	  442.91
     17.6700	  552.00	  561.61	-1753.86	  442.71
     17.7700	  544.00	  561.40	-1761.65	  442.50
     17.8700	  582.00	  561.20	-1723.45	  442.30
     17.9700	  545.00	  560.99	-1760.24	  442.09
     18.0700	  592.00	  560.88	-1713.13	  441.88
     18.1700	  609.00	  560.67	-1695.92	  441.67
     18.2700	  590.00	  560.45	-1714.70	  441.45
     18.3700	  567.00	  560.24	-1737.49	  441.24
     18.4700	  608.00	  560.02	-1696.27	  441.02
     18.5700	  593.00	  559.80	-1711.05	  440.79
     18.6700	  554.00	  559.58	-1749.83	  440.57
     18.7700	  516.00	  559.35	-1787.60	  440.34
     18.8700	  522.00	  559.21	-1781.46	  440.12
     18.9700	  551.00	  558.98	-1752.23	  439.89
     19.0700	  596.00	  558.75	-1707.00	  439.65
     19.1700	  591.00	  558.53	-1711.78	  439.42
     19.2700	  573.00	  558.29	-1729.54	  439.18
     19.3700	  602.00	  558.06	-1700.31	  438.94
     19.4700	  525.00	  557.83	-1777.08	  438.70
     19.5700	  575.00	  557.59	-1726.84	  438.46
     19.6700	  532.00	  557.36	-1769.61	  438.22
     19.7700	  563.00	  557.12	-1738.37	  437.97
     19.8700	  563.00	  556.88	-1738.13	  437.72
     19.9700	  509.00	  556.64	-1791.89	  437.47
     20.0700	  585.00	  556.40	-1715.65	  437.22
     20.1700	  564.00	  556.15	-1736.40	  436.97
     20.2700	  539.00	  555.91	-1761.16	  436.71
     20.3700	  572.00	  555.66	-1727.91	  436.46
     20.4700	  525.00	  555.42	-1774.67	  436.20
     20.5700	  576.00	  555.17	-1723.42	  435.94
     20.6700	  562.00	  554.88	-1737.13	  435.68
     20.7700	  574.00	  554.63	-1724.88	  435.42
     20.8700	  554.00	  554.42	-1744.67	  435.15
     20.9700	  541.00	  554.17	-1757.42	  434.89
     21.0700	  555.00	  553.92	-1743.17	  434.62
     21.1700	  545.00	  553.67	-1752.92	  434.35
     21.2700	  537.00	  553.42	-1760.67	  434.08
     21.3700	  543.00	  553.17	-1754.42	  433.81
     21.4700	  571.00	  552.92	-1726.17	  433.54
     21.5700	  561.00	  552.67	-1735.92	  433.27
     21.6700	  594.00	  552.43	-1702.68	  432.99
     21.7700	  557.00	  552.18	-1739.43	  432.72
     21.8700	  549.00	  551.93	-1747.18	  432.44
     21.9700	  556.00	  551.68	-1739.93	  432.16
     22.0700	  556.00	  551.44	-1739.69	  431.88
     22.1700	  532.00	  551.20	-1763.45	  431.60
     22.2700	  553.00	  550.96	-1742.21	  431.32
     22.3700	  568.00	  550.72	-1726.97	  431.04
     22.4700	  540.00	  550.49	-1754.74	  430.75
     22.5700	  574.00	  550.26	-1720.51	  430.47
     22.6700	  524.00	  550.04	-1770.29	  430.18
     22.7700	  555.00	  549.82	-1739.07	  429.90
     22.8700	  543.00	  549.61	-1750.86	  429.61
     22.9700	  567.00	  549.41	-1726.66	  429.32
     23.0700	  547.00	  549.23	-1746.48	  429.03
     23.1700	  547.00	  549.06	-1746.31	  428.74
     23.2700	  557.00	  548.91	-1736.16	  428.45
     23.3700	  578.00	  548.79	-1715.04	  428.16
     23.4700	  529.00	  548.70	-1763.95	  427.87
     23.5700	  562.00	  548.66	-1730.91	  427.57
     23.6700	  555.00	  548.84	-1738.09	  427.28
     23.7700	  530.00	  549.00	-1763.25	  426.99
     23.8700	  524.00	  549.38	-1769.63	  426.69
     23.9700	  549.00	  550.22	-1745.47	  426.40
     24.0700	  589.00	  551.94	-1707.19	  426.10
     24.1700	  585.00	  555.20	-1714.45	  425.80
     24.2700	  555.00	  560.81	-1750.06	  425.51
     24.3700	  546.00	  569.69	-1767.94	  425.21
     24.4700	  592.00	  582.78	-1735.03	  424.91
     24.5700	  584.00	  600.09	-1760.34	  424.61
     24.6700	  598.00	  618.68	-1764.93	  424.31
     24.7700	  629.00	  630.93	-1746.18	  424.01
     24.8700	  626.00	  627.11	-1745.36	  423.71
     24.9700	  661.00	  606.74	-1689.99	  423.41
     25.0700	  618.00	  582.68	-1708.93	  423.11
     25.1700	  570.00	  564.73	-1738.98	  422.81
     25.2700	  561.00	  554.48	-1737.73	  422.51
     25.3700	  581.00	  549.56	-1712.81	  422.21
     25.4700	  543.00	  547.28	-1748.53	  421.91
     25.5700	  611.00	  546.06	-1679.31	  421.61
     25.6700	  531.00	  545.27	-1758.52	  421.30
     25.7700	  564.00	  544.70	-1724.95	  421.00
     25.8700	  545.00	  544.27	-1743.52	  420.70
     25.9700	  583.00	  543.95	-1705.20	  420.40
     26.0700	  527.00	  543.72	-1760.97	  420.09
     26.1700	  604.00	  543.56	-1683.81	  419.79
     26.2700	  542.00	  543.48	-1745.73	  419.49
     26.3700	  539.00	  543.48	-1748.73	  419.19
     26.4700	  568.00	  543.56	-1719.81	  418.88
     26.5700	  563.00	  543.73	-1724.98	  418.58
     26.6700	  559.00	  544.02	-1729.27	  418.28
     26.7700	  551.00	  544.44	-1737.69	  417.97
     26.8700	  530.00	  545.04	-1759.29	  417.67
     26.9700	  576.00	  545.85	-1714.10	  417.37
     27.0700	  550.00	  546.96	-1741.21	  417.07
     27.1700	  575.00	  548.51	-1717.76	  416.76
     27.2700	  525.00	  550.73	-1769.98	  416.46
     27.3700	  575.00	  554.14	-1723.39	  416.16
     27.4700	  561.00	  559.71	-1742.96	  415.86
     27.5700	  520.00	  569.20	-1793.45	  415.56
     27.6700	  550.00	  585.38	-1779.63	  415.25
     27.7700	  573.00	  611.85	-1783.10	  414.95
     27.8700	  664.00	  651.69	-1731.94	  414.65
     27.9700	  619.00	  705.00	-1830.25	  414.35
     28.0700	  819.00	  765.59	-1690.84	  414.05
     28.1700	  876.00	  818.10	-1686.35	  413.75
     28.2700	  990.00	  839.53	-1593.78	  413.45
     28.3700	  888.00	  816.57	-1672.82	  413.15
     28.4700	  802.00	  770.97	-1713.22	  412.85
     28.5700	  703.00	  737.99	-1779.24	  412.55
     28.6700	  655.00	  733.58	-1822.83	  412.26
     28.7700	  741.00	  753.20	-1756.45	  411.96
     28.8700	  796.00	  777.88	-1726.13	  411.66
     28.9700	  782.00	  781.20	-1743.45	  411.36
     29.0700	  759.00	  746.67	-1731.92	  411.07
     29.1700	  679.00	  688.79	-1754.04	  410.77
     29.2700	  635.00	  633.81	-1743.06	  410.48
     29.3700	  621.00	  594.17	-1717.42	  410.18
     29.4700	  610.00	  570.17	-1704.42	  409.89
     29.5700	  595.00	  557.17	-1706.42	  409.59
     29.6700	  599.00	  550.27	-1695.52	  409.30
     29.7700	  569.00	  546.36	-1721.61	  409.01
     29.8700	  586.00	  543.93	-1702.18	  408.71
     29.9700	  568.00	  542.40	-1718.65	  408.42
     30.0700	  548.00	  541.64	-1737.89	  408.13
     30.1700	  529.00	  541.82	-1757.07	  407.84
     30.2700	  507.00	  543.47	-1780.72	  407.55
     30.3700	  552.00	  547.60	-1739.85	  407.26
     30.4700	  560.00	  555.75	-1740.00	  406.98
     30.5700	  583.00	  569.50	-1730.75	  406.69
     30.6700	  566.00	  589.22	-1767.47	  406.40
     30.7700	  582.00	  612.42	-1774.67	  406.12
     30.8700	  648.00	  632.45	-1728.70	  405.83
     30.9700	  598.00	  639.33	-1785.58	  405.55
     31.0700	  603.00	  626.30	-1767.55	  405.26
     31.1700	  565.00	  600.24	-1779.49	  404.98
     31.2700	  572.00	  574.18	-1746.43	  404.70
     31.3700	  516.00	  554.91	-1783.16	  404.42
     31.4700	  521.00	  543.15	-1766.40	  404.14
     31.5700	  531.00	  536.83	-1750.08	  403.86
     31.6700	  564.00	  533.57	-1713.82	  403.58
     31.7700	  561.00	  531.76	-1715.01	  403.30
     31.8700	  528.00	  530.63	-1746.88	  403.03
     31.9700	  575.00	  529.85	-1699.10	  402.75
     32.0700	  545.00	  529.31	-1728.56	  402.48
     32.1700	  563.00	  528.95	-1710.20	  402.20
     32.2700	  556.00	  528.75	-1717.00	  401.93
     32.3700	  582.00	  528.71	-1690.96	  401.66
     32.4700	  549.00	  528.83	-1724.08	  401.39
     32.5700	  510.00	  529.12	-1763.37	  401.12
     32.6700	  555.00	  529.63	-1718.88	  400.85
     32.7700	  557.00	  530.39	-1717.64	  400.58
     32.8700	  532.00	  531.48	-1743.73	  400.31
     32.9700	  524.00	  533.02	-1753.27	  400.05
     33.0700	  514.00	  535.26	-1765.51	  399.78
     33.1700	  527.00	  538.68	-1755.93	  399.52
     33.2700	  552.00	  544.41	-1736.66	  399.26
     33.3700	  625.00	  554.88	-1674.13	  399.00
     33.4700	  619.00	  574.66	-1699.91	  398.73
     33.5700	  589.00	  610.90	-1766.15	  398.48
     33.6700	  631.00	  671.63	-1784.88	  398.22
     33.7700	  795.00	  760.11	-1709.36	  397.96
     33.8700	  854.00	  866.33	-1756.58	  397.70
     33.9700	  999.00	  961.62	-1706.87	  397.45
     34.0700	 1129.00	 1002.54	-1617.79	  397.20
     34.1700	 1047.00	  957.86	-1655.11	  396.94
     34.2700	  871.00	  850.83	-1724.08	  396.69
     34.3700	  813.00	  736.16	-1667.41	  396.44
     34.4700	  612.00	  647.25	-1779.50	  396.19
     34.5700	  590.00	  591.01	-1745.26	  395.95
     34.6700	  570.00	  560.28	-1734.53	  395.70
     34.7700	  559.00	  544.68	-1729.93	  395.45
     34.8700	  568.00	  536.49	-1712.74	  395.21
     34.9700	  517.00	  531.59	-1758.84	  394.97
     35.0700	  510.00	  528.23	-1762.48	  394.73
     35.1700	  514.00	  525.68	-1755.93	  394.49
     35.2700	  498.00	  523.67	-1769.92	  394.25
     35.3700	  495.00	  522.03	-1771.28	  394.01
     35.4700	  530.00	  520.67	-1734.92	  393.77
     35.5700	  486.00	  519.53	-1777.78	  393.54
     35.6700	  535.00	  518.54	-1727.79	  393.31
     35.7700	  518.00	  517.69	-1743.94	  393.07
     35.8700	  503.00	  516.94	-1758.19	  392.84
     35.9700	  518.00	  516.27	-1742.52	  392.61
     36.0700	  539.00	  516.15	-1721.40	  392.39
     36.1700	  496.00	  515.62	-1763.87	  392.16
     36.2700	  516.00	  515.14	-1743.39	  391.93
     36.3700	  538.00	  514.71	-1720.96	  391.71
     36.4700	  506.00	  514.32	-1752.57	  391.49
     36.5700	  536.00	  513.98	-1722.23	  391.27
     36.6700	  482.00	  513.68	-1775.93	  391.05
     36.7700	  548.00	  513.43	-1709.68	  390.83
     36.8700	  461.00	  513.27	-1796.52	  390.61
     36.9700	  494.00	  513.27	-1763.52	  390.39
     37.0700	  493.00	  513.57	-1764.82	  390.18
     37.1700	  564.00	  514.46	-1694.71	  389.97
     37.2700	  542.00	  516.35	-1718.60	  389.76
     37.3700	  508.00	  519.59	-1755.84	  389.55
     37.4700	  543.00	  524.12	-1725.37	  389.34
     37.5700	  521.00	  529.10	-1752.35	  389.13
     37.6700	  553.00	  532.86	-1724.11	  388.92
     37.7700	  537.00	  533.58	-1740.83	  388.72
     37.8700	  523.00	  530.99	-1752.24	  388.52
     37.9700	  505.00	  526.73	-1765.98	  388.32
     38.0700	  513.00	  522.27	-1753.52	  388.12
     38.1700	  495.00	  518.21	-1767.46	  387.92
     38.2700	  475.00	  514.86	-1784.11	  387.72
     38.3700	  517.00	  512.38	-1739.63	  387.53
     38.4700	  553.00	  510.69	-1701.94	  387.33
     38.5700	  492.00	  509.59	-1761.84	  387.14
     38.6700	  537.00	  508.88	-1716.13	  386.95
     38.7700	  524.00	  508.30	-1728.55	  386.76
     38.8700	  524.00	  507.95	-1728.20	  386.57
     38.9700	  480.00	  507.65	-1771.90	  386.39
     39.0700	  505.00	  507.39	-1746.64	  386.20
     39.1700	  517.00	  507.16	-1734.41	  386.02
     39.2700	  540.00	  506.87	-1711.12	  385.84
     39.3700	  531.00	  506.67	-1719.92	  385.66
     39.4700	  509.00	  506.62	-1741.87	  385.48
     39.5700	  499.00	  506.44	-1751.69	  385.30
     39.6700	  504.00	  506.28	-1746.53	  385.13
     39.7700	  502.00	  506.12	-1748.37	  384.95
     39.8700	  531.00	  505.98	-1719.23	  384.78
     39.9700	  502.00	  505.85	-1748.10	  384.61
     40.0700	  495.00	  505.72	-1754.97	  384.44
     40.1700	  535.00	  505.61	-1714.86	  384.28
     40.2700	  513.00	  505.51	-1736.76	  384.11
     40.3700	  480.00	  505.42	-1769.67	  383.95
     40.4700	  474.00	  505.34	-1775.59	  383.78
     40.5700	  485.00	  505.28	-1764.53	  383.62
     40.6700	  471.00	  505.24	-1778.49	  383.46
     40.7700	  533.00	  505.21	-1716.46	  383.30
     40.8700	  557.00	  505.22	-1692.47	  383.15
     40.9700	  513.00	  505.25	-1736.50	  382.99
     41.0700	  493.00	  505.31	-1756.56	  382.84
     41.1700	  488.00	  505.42	-1761.67	  382.69
     41.2700	  523.00	  505.54	-1726.79	  382.54
     41.3700	  469.00	  505.77	-1781.02	  382.39
     41.4700	  520.00	  506.52	-1730.77	  382.24
     41.5700	  502.00	  506.97	-1749.22	  382.10
     41.6700	  484.00	  507.60	-1767.85	  381.96
     41.7700	  495.00	  508.57	-1757.82	  381.81
     41.8700	  493.00	  510.21	-1761.46	  381.67
     41.9700	  487.00	  513.25	-1770.50	  381.54
     42.0700	  546.00	  519.09	-1717.34	  381.40
     42.1700	  513.00	  529.89	-1761.14	  381.26
     42.2700	  536.00	  548.07	-1756.32	  381.13
     42.3700	  576.00	  574.95	-1743.20	  381.00
     42.4700	  535.00	  608.23	-1817.48	  380.87
     42.5700	  599.00	  640.62	-1785.87	  380.74
     42.6700	  577.00	  660.33	-1827.58	  380.61
     42.7700	  558.00	  657.03	-1843.28	  380.49
     42.8700	  567.00	  631.64	-1808.89	  380.36
     42.9700	  547.00	  596.72	-1793.97	  380.24
     43.0700	  534.00	  564.16	-1774.41	  380.12
     43.1700	  524.00	  539.74	-1759.99	  380.00
     43.2700	  526.00	  524.15	-1742.40	  379.88
     43.3700	  486.00	  515.37	-1773.62	  379.77
     43.4700	  499.00	  510.78	-1756.03	  379.65
     43.5700	  506.00	  508.36	-1746.61	  379.54
     43.6700	  512.00	  507.14	-1739.39	  379.43
     43.7700	  500.00	  506.23	-1750.48	  379.32
     43.8700	  510.00	  505.60	-1739.85	  379.21
     43.9700	  481.00	  505.09	-1768.34	  379.11
     44.0700	  532.00	  504.69	-1716.94	  379.00
     44.1700	  540.00	  504.37	-1708.62	  378.90
     44.2700	  479.00	  504.12	-1769.37	  378.80
     44.3700	  487.00	  503.93	-1761.18	  378.70
     44.4700	  447.00	  503.77	-1801.02	  378.60
     44.5700	  505.00	  503.66	-1742.91	  378.51
     44.6700	  534.00	  503.44	-1713.69	  378.41
     44.7700	  550.00	  503.39	-1697.64	  378.32
     44.8700	  502.00	  503.37	-1745.62	  378.23
     44.9700	  518.00	  503.37	-1729.62	  378.14
     45.0700	  540.00	  503.39	-1707.64	  378.05
     45.1700	  506.00	  503.62	-1741.87	  377.96
     45.2700	  479.00	  503.69	-1768.94	  377.88
     45.3700	  527.00	  503.78	-1721.03	  377.80
     45.4700	  491.00	  503.90	-1757.15	  377.71
     45.5700	  487.00	  504.04	-1761.29	  377.63
     45.6700	  533.00	  504.21	-1715.46	  377.56
     45.7700	  512.00	  504.40	-1736.65	  377.48
     45.8700	  507.00	  504.62	-1741.87	  377.40
     45.9700	  508.00	  504.88	-1741.13	  377.33
     46.0700	  484.00	  505.17	-1765.42	  377.26
     46.1700	  501.00	  505.50	-1748.75	  377.19
     46.2700	  494.00	  505.87	-1756.12	  377.12
     46.3700	  522.00	  506.30	-1728.55	  377.05
     46.4700	  526.00	  506.80	-1725.05	  376.99
     46.5700	  538.00	  507.36	-1713.61	  376.92
     46.6700	  521.00	  508.03	-1731.28	  376.86
     46.7700	  521.00	  508.81	-1732.06	  376.80
     46.8700	  508.00	  509.79	-1746.04	  376.74
     46.9700	  520.00	  511.10	-1735.35	  376.68
     47.0700	  519.00	  513.04	-1738.29	  376.63
     47.1700	  522.00	  516.30	-1738.55	  376.57
     47.2700	  560.00	  521.68	-1705.93	  376.52
     47.3700	  504.00	  530.54	-1770.79	  376.47
     47.4700	  538.00	  543.97	-1750.22	  376.42
     47.5700	  576.00	  562.06	-1730.31	  376.37
     47.6700	  577.00	  582.89	-1750.14	  376.33
     47.7700	  623.00	  601.97	-1723.22	  376.28
     47.8700	  582.00	  613.02	-1775.27	  376.24
     47.9700	  564.00	  611.42	-1791.67	  376.20
     48.0700	  618.00	  598.53	-1724.78	  376.16
     48.1700	  554.00	  580.74	-1770.99	  376.12
     48.2700	  541.00	  563.99	-1767.24	  376.08
     48.3700	  520.00	  551.62	-1775.87	  376.04
     48.4700	  527.00	  544.51	-1761.76	  376.01
     48.5700	  563.00	  542.00	-1723.25	  375.98
     48.6700	  533.00	  542.93	-1754.18	  375.95
     48.7700	  539.00	  546.33	-1751.58	  375.92
     48.8700	  559.00	  551.67	-1736.92	  375.89
     48.9700	  580.00	  559.00	-1723.25	  375.86
     49.0700	  575.00	  568.97	-1738.22	  375.84
     49.1700	  559.00	  583.23	-1768.48	  375.81
     49.2700	  639.00	  605.26	-1710.51	  375.79
     49.3700	  633.00	  641.69	-1752.94	  375.77
     49.4700	  665.00	  703.99	-1783.24	  375.75
     49.5700	  750.00	  807.54	-1801.79	  375.74
     49.6700	  913.00	  970.83	-1802.08	  375.72
     49.7700	 1128.00	 1207.34	-1823.59	  375.70
     49.8700	 1490.00	 1515.16	-1769.41	  375.69
     49.9700	 1849.00	 1865.07	-1760.32	  375.68
     50.0700	 2262.00	 2191.73	-1673.98	  375.67
     50.1700	 2543.00	 2398.56	-1599.81	  375.66
     50.2700	 2497.00	 2400.23	-1647.48	  375.65
     50.3700	 2264.00	 2193.87	-1674.12	  375.65
     50.4700	 1837.00	 1865.85	-1773.10	  375.64
     50.5700	 1369.00	 1517.25	-1892.50	  375.64
     50.6700	 1018.00	 1214.53	-1940.78	  375.64
     50.7700	  846.00	  986.45	-1884.70	  375.64
     50.8700	  678.00	  833.86	-1900.11	  375.64
     50.9700	  654.00	  741.39	-1831.64	  375.64
     51.0700	  628.00	  687.99	-1804.24	  375.65
     51.1700	  624.00	  654.87	-1775.12	  375.65
     51.2700	  618.00	  629.92	-1756.17	  375.66
     51.3700	  590.00	  608.36	-1762.61	  375.67
     51.4700	  569.00	  589.68	-1764.93	  375.68
     51.5700	  587.00	  574.41	-1731.66	  375.69
     51.6700	  521.00	  562.83	-1786.08	  375.70
     51.7700	  556.00	  554.65	-1742.90	  375.72
     51.8700	  568.00	  549.17	-1725.42	  375.73
     51.9700	  536.00	  545.63	-1753.88	  375.75
     52.0700	  544.00	  543.45	-1743.70	  375.77
     52.1700	  561.00	  542.52	-1725.77	  375.79
     52.2700	  547.00	  542.33	-1739.58	  375.81
     52.3700	  562.00	  543.24	-1725.49	  375.83
     52.4700	  531.00	  545.75	-1759.00	  375.85
     52.5700	  600.00	  551.02	-1695.27	  375.88
     52.6700	  578.00	  561.45	-1727.70	  375.90
     52.7700	  577.00	  581.27	-1748.52	  375.93
     52.8700	  673.00	  616.87	-1688.12	  375.96
     52.9700	  763.00	  675.84	-1657.09	  375.99
     53.0700	  815.00	  764.13	-1693.38	  376.02
     53.1700	  910.00	  881.64	-1715.89	  376.05
     53.2700	 1055.00	 1017.35	-1706.60	  376.09
     53.3700	 1148.00	 1146.56	-1742.81	  376.12
     53.4700	 1223.00	 1233.17	-1754.42	  376.16
     53.5700	 1227.00	 1244.00	-1761.25	  376.19
     53.6700	 1046.00	 1173.73	-1871.98	  376.23
     53.7700	 1002.00	 1050.81	-1793.06	  376.27
     53.8700	  862.00	  913.48	-1795.73	  376.31
     53.9700	  760.00	  790.01	-1774.26	  376.36
     54.0700	  676.00	  694.56	-1762.81	  376.40
     54.1700	  668.00	  629.36	-1705.61	  376.44
     54.2700	  566.00	  589.37	-1767.62	  376.49
     54.3700	  569.00	  566.93	-1742.18	  376.54
     54.4700	  564.00	  555.11	-1735.36	  376.59
     54.5700	  548.00	  549.19	-1745.44	  376.64
     54.6700	  584.00	  546.35	-1706.60	  376.69
     54.7700	  543.00	  545.21	-1746.46	  376.74
     54.8700	  610.00	  545.15	-1679.40	  376.79
     54.9700	  567.00	  545.92	-1723.17	  376.85
     55.0700	  579.00	  547.45	-1712.70	  376.90
     55.1700	  537.00	  549.76	-1757.01	  376.96
     55.2700	  567.00	  552.87	-1730.12	  377.01
     55.3700	  591.00	  556.93	-1710.18	  377.07
     55.4700	  533.00	  562.15	-1773.40	  377.13
     55.5700	  600.00	  568.94	-1713.19	  377.19
     55.6700	  559.00	  578.13	-1763.38	  377.26
     55.7700	  577.00	  591.38	-1758.63	  377.32
     55.8700	  605.00	  612.07	-1751.32	  377.38
     55.9700	  599.00	  646.45	-1791.70	  377.45
     56.0700	  646.00	  704.86	-1803.11	  377.52
     56.1700	  725.00	  802.16	-1821.41	  377.58
     56.2700	  893.00	  955.90	-1807.15	  377.65
     56.3700	 1040.00	 1181.02	-1885.27	  377.72
     56.4700	 1432.00	 1481.60	-1793.85	  377.79
     56.5700	 1782.00	 1841.09	-1803.34	  377.86
     56.6700	 2164.00	 2215.00	-1795.25	  377.93
     56.7700	 2477.00	 2528.74	-1795.99	  378.01
     56.8700	 2610.00	 2691.76	-1826.01	  378.08
     56.9700	 2492.00	 2643.54	-1895.79	  378.16
     57.0700	 2424.00	 2402.71	-1722.96	  378.23
     57.1700	 2095.00	 2051.74	-1700.99	  378.31
     57.2700	 1629.00	 1678.69	-1793.94	  378.39
     57.3700	 1314.00	 1345.13	-1775.38	  378.47
     57.4700	 1061.00	 1081.99	-1765.24	  378.55
     57.5700	  845.00	  895.42	-1794.67	  378.63
     57.6700	  766.00	  775.58	-1753.83	  378.71
     57.7700	  739.00	  706.14	-1711.39	  378.80
     57.8700	  701.00	  671.64	-1714.89	  378.88
     57.9700	  640.00	  661.16	-1765.41	  378.97
     58.0700	  675.00	  668.89	-1738.14	  379.05
     58.1700	  688.00	  692.88	-1749.13	  379.14
     58.2700	  732.00	  733.18	-1745.43	  379.23
     58.3700	  819.00	  789.94	-1715.19	  379.31
     58.4700	  960.00	  861.78	-1646.03	  379.40
     58.5700	 1058.00	  944.24	-1630.49	  379.49
     58.6700	 1251.00	 1029.25	-1522.50	  379.58
     58.7700	 1344.00	 1107.49	-1507.74	  379.68
     58.8700	 1511.00	 1172.63	-1405.88	  379.77
     58.9700	 1536.00	 1221.29	-1429.54	  379.86
     59.0700	 1666.00	 1248.91	-1327.16	  379.96
     59.1700	 1674.00	 1251.14	-1321.39	  380.05
     59.2700	 1490.00	 1231.29	-1485.54	  380.15
     59.3700	 1365.00	 1200.77	-1580.02	  380.24
     59.4700	 1296.00	 1171.25	-1619.50	  380.34
     59.5700	 1167.00	 1150.55	-1727.80	  380.44
     59.6700	 1141.00	 1145.91	-1749.16	  380.54
     59.7700	 1174.00	 1166.18	-1736.43	  380.64
     59.8700	 1167.00	 1217.31	-1794.56	  380.74
     59.9700	 1248.00	 1295.86	-1792.11	  380.84
     60.0700	 1492.00	 1385.97	-1638.22	  380.94
     60.1700	 1550.00	 1460.17	-1654.42	  381.04
     60.2700	 1635.00	 1486.23	-1595.48	  381.14
     60.3700	 1519.00	 1444.11	-1669.36	  381.25
     60.4700	 1382.00	 1340.31	-1702.56	  381.35
     60.5700	 1339.00	 1201.11	-1606.36	  381.46
     60.6700	 1044.00	 1054.76	-1755.01	  381.56
     60.7700	  917.00	  921.94	-1749.19	  381.67
     60.8700	  768.00	  814.32	-1790.57	  381.78
     60.9700	  728.00	  735.93	-1752.18	  381.88
     61.0700	  596.00	  685.73	-1833.98	  381.99
     61.1700	  598.00	  660.57	-1806.82	  382.10
     61.2700	  621.00	  657.92	-1781.17	  382.21
     61.3700	  649.00	  677.45	-1772.70	  382.32
     61.4700	  652.00	  721.26	-1813.51	  382.43
     61.5700	  755.00	  792.58	-1781.83	  382.54
     61.6700	  847.00	  893.29	-1790.54	  382.65
     61.7700	  939.00	 1021.08	-1826.33	  382.77
     61.8700	 1058.00	 1166.58	-1852.83	  382.88
     61.9700	 1142.00	 1311.77	-1914.02	  382.99
     62.0700	 1312.00	 1429.93	-1862.18	  383.11
     62.1700	 1374.00	 1490.74	-1860.99	  383.22
     62.2700	 1431.00	 1474.39	-1787.64	  383.34
     62.3700	 1284.00	 1385.82	-1846.07	  383.45
     62.4700	 1154.00	 1250.88	-1841.13	  383.57
     62.5700	 1007.00	 1099.78	-1837.03	  383.68
     62.6700	  929.00	  956.06	-1771.31	  383.80
     62.7700	  762.00	  833.99	-1816.24	  383.92
     62.8700	  721.00	  739.51	-1762.76	  384.03
     62.9700	  640.00	  672.08	-1776.33	  384.15
     63.0700	  600.00	  627.28	-1771.53	  384.27
     63.1700	  576.00	  599.33	-1767.58	  384.39
     63.2700	  575.00	  582.90	-1752.15	  384.51
     63.3700	  549.00	  574.00	-1769.25	  384.63
     63.4700	  601.00	  570.28	-1713.53	  384.75
     63.5700	  585.00	  570.86	-1730.11	  384.87
     63.6700	  592.00	  576.14	-1728.39	  384.99
     63.7700	  614.00	  587.50	-1717.75	  385.11
     63.8700	  625.00	  606.96	-1726.21	  385.23
     63.9700	  618.00	  636.71	-1762.96	  385.35
     64.0700	  727.00	  678.24	-1695.49	  385.47
     64.1700	  774.00	  731.41	-1701.66	  385.60
     64.2700	  819.00	  793.52	-1718.77	  385.72
     64.3700	  917.00	  858.70	-1685.95	  385.84
     64.4700	 1010.00	  917.67	-1651.92	  385.96
     64.5700	 1033.00	  959.01	-1670.26	  386.09
     64.6700	 1012.00	  974.92	-1707.17	  386.21
     64.7700	 1002.00	  962.46	-1704.71	  386.34
     64.8700	 1022.00	  926.01	-1648.26	  386.46
     64.9700	  933.00	  874.07	-1685.32	  386.58
     65.0700	  853.00	  816.34	-1707.59	  386.71
     65.1700	  787.00	  760.94	-1718.19	  386.83
     65.2700	  763.00	  712.61	-1693.86	  386.96
     65.3700	  655.00	  672.88	-1762.13	  387.08
     65.4700	  632.00	  641.29	-1753.54	  387.21
     65.5700	  603.00	  616.65	-1757.90	  387.33
     65.6700	  588.00	  597.83	-1754.08	  387.46
     65.7700	  618.00	  583.82	-1710.07	  387.59
     65.8700	  532.00	  573.74	-1785.99	  387.71
     65.9700	  613.00	  566.90	-1698.15	  387.84
     66.0700	  527.00	  562.72	-1779.97	  387.96
     66.1700	  586.00	  560.70	-1718.95	  388.09
     66.2700	  564.00	  560.45	-1740.70	  388.22
     66.3700	  582.00	  561.68	-1723.93	  388.34
     66.4700	  574.00	  564.22	-1734.47	  388.47
     66.5700	  581.00	  568.28	-1731.53	  388.60
     66.6700	  580.00	  574.03	-1738.28	  388.72
     66.7700	  545.00	  582.51	-1781.76	  388.85
     66.8700	  550.00	  595.48	-1789.73	  388.98
     66.9700	  621.00	  615.97	-1739.22	  389.10
     67.0700	  624.00	  648.75	-1769.00	  389.23
     67.1700	  680.00	  700.61	-1764.86	  389.36
     67.2700	  719.00	  780.07	-1805.32	  389.48
     67.3700	  893.00	  896.21	-1747.46	  389.61
     67.4700	 1067.00	 1056.50	-1733.75	  389.73
     67.5700	 1256.00	 1263.17	-1751.42	  389.86
     67.6700	 1510.00	 1510.34	-1744.59	  389.99
     67.7700	 1803.00	 1781.46	-1722.71	  390.11
     67.8700	 2117.00	 2047.13	-1674.38	  390.24
     67.9700	 2298.00	 2266.72	-1712.97	  390.37
     68.0700	 2387.00	 2394.92	-1752.17	  390.49
     68.1700	 2471.00	 2398.84	-1672.09	  390.62
     68.2700	 2300.00	 2277.36	-1721.61	  390.75
     68.3700	 2027.00	 2062.11	-1779.36	  390.87
     68.4700	 1815.00	 1798.14	-1727.39	  391.00
     68.5700	 1560.00	 1526.80	-1711.05	  391.12
     68.6700	 1258.00	 1277.97	-1764.22	  391.25
     68.7700	  989.00	 1069.20	-1824.45	  391.37
     68.8700	  848.00	  906.85	-1803.10	  391.50
     68.9700	  751.00	  788.88	-1782.13	  391.62
     69.0700	  682.00	  708.10	-1770.35	  391.75
     69.1700	  710.00	  655.43	-1689.68	  391.87
     69.2700	  647.00	  622.27	-1719.52	  392.00
     69.3700	  620.00	  601.72	-1725.97	  392.12
     69.4700	  593.00	  588.91	-1740.16	  392.24
     69.5700	  606.00	  580.70	-1718.95	  392.37
     69.6700	  577.00	  575.23	-1742.48	  392.49
     69.7700	  607.00	  571.47	-1708.72	  392.61
     69.8700	  549.00	  568.88	-1764.13	  392.74
     69.9700	  590.00	  567.19	-1721.44	  392.86
     70.0700	  621.00	  566.27	-1689.52	  392.98
     70.1700	  541.00	  566.08	-1769.33	  393.10
     70.2700	  551.00	  566.62	-1759.87	  393.23
     70.3700	  560.00	  568.02	-1752.27	  393.35
     70.4700	  582.00	  570.52	-1732.77	  393.47
     70.5700	  588.00	  574.63	-1730.88	  393.59
     70.6700	  573.00	  581.25	-1752.50	  393.71
     70.7700	  592.00	  591.94	-1744.19	  393.83
     70.8700	  577.00	  609.20	-1776.45	  393.95
     70.9700	  603.00	  636.66	-1777.91	  394.07
     71.0700	  692.00	  679.18	-1731.43	  394.19
     71.1700	  706.00	  742.50	-1780.75	  394.30
     71.2700	  803.00	  832.38	-1773.63	  394.42
     71.3700	  950.00	  953.08	-1747.33	  394.54
     71.4700	 1110.00	 1105.47	-1739.72	  394.66
     71.5700	 1293.00	 1286.01	-1737.26	  394.77
     71.6700	 1415.00	 1481.90	-1811.15	  394.89
     71.7700	 1640.00	 1675.45	-1779.70	  395.01
     71.8700	 1824.00	 1841.44	-1761.69	  395.12
     71.9700	 1910.00	 1951.15	-1785.40	  395.24
     72.0700	 1906.00	 1980.88	-1819.13	  395.35
     72.1700	 1937.00	 1923.56	-1730.81	  395.46
     72.2700	 1842.00	 1793.08	-1695.33	  395.58
     72.3700	 1616.00	 1615.68	-1743.93	  395.69
     72.4700	 1458.00	 1420.38	-1706.63	  395.80
     72.5700	 1332.00	 1229.66	-1641.91	  395.91
     72.6700	 1197.00	 1059.30	-1606.55	  396.03
     72.7700	 1106.00	  917.78	-1556.03	  396.14
     72.8700	  941.00	  807.30	-1610.55	  396.25
     72.9700	  899.00	  725.65	-1570.90	  396.36
     73.0700	  785.00	  668.01	-1627.26	  396.47
     73.1700	  714.00	  628.77	-1659.02	  396.57
     73.2700	  728.00	  602.66	-1618.91	  396.68
     73.3700	  637.00	  585.42	-1692.67	  396.79
     73.4700	  564.00	  573.95	-1754.20	  396.90
     73.5700	  642.00	  566.19	-1668.44	  397.00
     73.6700	  601.00	  560.85	-1704.10	  397.11
     73.7700	  638.00	  557.16	-1663.41	  397.21
     73.8700	  564.00	  554.70	-1734.95	  397.32
     73.9700	  596.00	  553.17	-1701.42	  397.42
     74.0700	  592.00	  552.40	-1704.65	  397.52
     74.1700	  613.00	  552.20	-1683.45	  397.62
     74.2700	  554.00	  552.39	-1742.64	  397.72
     74.3700	  582.00	  552.76	-1715.01	  397.83
     74.4700	  642.00	  553.05	-1655.30	  397.93
     74.5700	  627.00	  553.01	-1670.26	  398.02
     74.6700	  610.00	  552.46	-1686.71	  398.12
     74.7700	  641.00	  551.36	-1654.61	  398.22
     74.8700	  611.00	  549.84	-1683.09	  398.32
     74.9700	  625.00	  548.16	-1667.41	  398.41
     75.0700	  585.00	  546.61	-1705.86	  398.51
     75.1700	  553.00	  545.52	-1736.77	  398.60
     75.2700	  606.00	  545.15	-1683.40	  398.70
     75.3700	  567.00	  545.98	-1723.23	  398.79
     75.4700	  541.00	  548.48	-1751.73	  398.88
     75.5700	  578.00	  553.11	-1719.36	  398.98
     75.6700	  569.00	  560.32	-1735.57	  399.07
     75.7700	  524.00	  570.79	-1791.04	  399.16
     75.8700	  547.00	  584.73	-1781.98	  399.25
     75.9700	  597.00	  602.09	-1749.34	  399.33
     76.0700	  619.00	  622.33	-1747.58	  399.42
     76.1700	  662.00	  644.29	-1726.54	  399.51
     76.2700	  696.00	  666.14	-1714.39	  399.59
     76.3700	  693.00	  685.47	-1736.72	  399.68
     76.4700	  723.00	  699.49	-1720.74	  399.76
     76.5700	  680.00	  705.68	-1769.93	  399.85
     76.6700	  692.00	  702.76	-1755.01	  399.93
     76.7700	  674.00	  691.31	-1761.56	  400.01
     76.8700	  663.00	  673.48	-1754.73	  400.09
     76.9700	  666.00	  652.05	-1730.30	  400.17
     77.0700	  600.00	  629.43	-1773.68	  400.25
     77.1700	  597.00	  608.05	-1755.30	  400.33
     77.2700	  568.00	  589.12	-1765.37	  400.40
     77.3700	  577.00	  573.38	-1740.63	  400.48
     77.4700	  530.00	  561.02	-1775.27	  400.55
     77.5700	  534.00	  551.81	-1762.06	  400.63
     77.6700	  496.00	  545.25	-1793.50	  400.70
     77.7700	  527.00	  540.77	-1758.02	  400.77
     77.8700	  543.00	  537.82	-1739.07	  400.84
     77.9700	  522.00	  535.92	-1758.17	  400.91
     78.0700	  481.00	  534.71	-1797.96	  400.98
     78.1700	  555.00	  533.95	-1723.20	  401.05
     78.2700	  503.00	  533.47	-1774.72	  401.12
     78.3700	  469.00	  533.19	-1808.44	  401.18
     78.4700	  474.00	  533.04	-1803.29	  401.25
     78.5700	  478.00	  533.00	-1799.25	  401.31
     78.6700	  542.00	  533.08	-1735.33	  401.37
     78.7700	  509.00	  533.27	-1768.52	  401.44
     78.8700	  546.00	  533.62	-1731.87	  401.50
     78.9700	  516.00	  534.15	-1762.40	  401.56
     79.0700	  509.00	  534.92	-1770.17	  401.61
     79.1700	  525.00	  535.99	-1755.24	  401.67
     79.2700	  550.00	  537.41	-1731.66	  401.73
     79.3700	  550.00	  539.06	-1733.31	  401.78
     79.4700	  512.00	  541.38	-1773.63	  401.84
     79.5700	  541.00	  544.22	-1747.47	  401.89
     79.6700	  512.00	  547.65	-1779.90	  401.94
     79.7700	  509.00	  551.76	-1787.01	  401.99
     79.8700	  481.00	  556.64	-1819.89	  402.04
     79.9700	  564.00	  562.45	-1742.70	  402.09
     80.0700	  554.00	  569.40	-1759.65	  402.14
     80.1700	  562.00	  577.79	-1760.04	  402.19
     80.2700	  622.00	  587.99	-1710.24	  402.23
     80.3700	  555.00	  600.34	-1789.59	  402.28
     80.4700	  618.00	  615.01	-1741.26	  402.32
     80.5700	  619.00	  631.91	-1757.16	  402.36
     80.6700	  593.00	  650.59	-1801.84	  402.40
     80.7700	  623.00	  670.16	-1791.41	  402.44
     80.8700	  666.00	  689.41	-1767.66	  402.48
     80.9700	  704.00	  706.87	-1747.12	  402.52
     81.0700	  753.00	  721.16	-1712.41	  402.55
     81.1700	  715.00	  731.13	-1760.38	  402.59
     81.2700	  716.00	  736.01	-1764.26	  402.62
     81.3700	  746.00	  735.41	-1733.66	  402.65
     81.4700	  769.00	  729.45	-1704.70	  402.68
     81.5700	  747.00	  718.67	-1715.92	  402.71
     81.6700	  759.00	  703.93	-1689.18	  402.74
     81.7700	  718.00	  686.26	-1712.51	  402.77
     81.8700	  763.00	  666.80	-1648.05	  402.80
     81.9700	  716.00	  646.79	-1675.04	  402.82
     82.0700	  679.00	  627.36	-1692.61	  402.85
     82.1700	  676.00	  609.51	-1677.76	  402.87
     82.2700	  665.00	  593.80	-1673.05	  402.89
     82.3700	  672.00	  580.53	-1652.78	  402.91
     82.4700	  608.00	  569.80	-1706.05	  402.93
     82.5700	  580.00	  561.51	-1725.76	  402.94
     82.6700	  569.00	  555.49	-1730.74	  402.96
     82.7700	  545.00	  551.58	-1750.83	  402.98
     82.8700	  532.00	  549.55	-1761.80	  402.99
     82.9700	  559.00	  549.23	-1734.48	  403.00
     83.0700	  533.00	  550.47	-1761.72	  403.01
     83.1700	  577.00	  553.15	-1720.40	  403.02
     83.2700	  540.00	  557.13	-1761.38	  403.03
     83.3700	  539.00	  562.23	-1767.48	  403.04
     83.4700	  484.00	  568.17	-1828.42	  403.04
     83.5700	  564.00	  574.61	-1754.86	  403.05
     83.6700	  556.00	  581.04	-1769.29	  403.05
     83.7700	  553.00	  586.88	-1778.13	  403.05
     83.8700	  607.00	  591.48	-1728.73	  403.05
     83.9700	  600.00	  594.18	-1738.43	  403.05
     84.0700	  531.00	  594.55	-1807.80	  403.05
     84.1700	  588.00	  592.50	-1748.75	  403.05
     84.2700	  629.00	  588.33	-1703.58	  403.04
     84.3700	  560.00	  582.61	-1766.86	  403.03
     84.4700	  530.00	  575.98	-1790.23	  403.03
     84.5700	  506.00	  569.06	-1807.31	  403.02
     84.6700	  529.00	  562.35	-1777.60	  403.01
     84.7700	  517.00	  556.20	-1783.45	  403.00
     84.8700	  519.00	  550.87	-1776.12	  402.98
     84.9700	  575.00	  546.47	-1715.72	  402.97
     85.0700	  545.00	  543.01	-1742.26	  402.95
     85.1700	  522.00	  540.45	-1762.70	  402.94
     85.2700	  517.00	  538.69	-1765.94	  402.92
     85.3700	  503.00	  537.60	-1778.85	  402.90
     85.4700	  521.00	  537.10	-1760.35	  402.88
     85.5700	  545.00	  537.09	-1736.34	  402.85
     85.6700	  523.00	  537.50	-1758.75	  402.83
     85.7700	  530.00	  538.31	-1752.56	  402.80
     85.8700	  510.00	  539.52	-1773.77	  402.78
     85.9700	  464.00	  541.18	-1821.43	  402.75
     86.0700	  471.00	  543.35	-1816.60	  402.72
     86.1700	  584.00	  546.13	-1706.38	  402.69
     86.2700	  542.00	  549.67	-1751.92	  402.65
     86.3700	  506.00	  554.10	-1792.34	  402.62
     86.4700	  573.00	  559.56	-1730.81	  402.59
     86.5700	  607.00	  566.19	-1703.44	  402.55
     86.6700	  584.00	  574.04	-1734.29	  402.51
     86.7700	  558.00	  583.02	-1769.27	  402.47
     86.8700	  647.00	  592.57	-1689.82	  402.43
     86.9700	  617.00	  602.91	-1730.16	  402.39
     87.0700	  626.00	  613.10	-1731.35	  402.34
     87.1700	  660.00	  622.36	-1706.61	  402.30
     87.2700	  610.00	  629.83	-1764.08	  402.25
     87.3700	  704.00	  634.63	-1674.88	  402.21
     87.4700	  657.00	  636.10	-1723.35	  402.16
     87.5700	  659.00	  634.03	-1719.28	  402.10
     87.6700	  614.00	  628.72	-1758.97	  402.05
     87.7700	  647.00	  620.90	-1718.15	  402.00
     87.8700	  640.00	  611.54	-1715.79	  401.94
     87.9700	  618.00	  601.63	-1727.88	  401.89
     88.0700	  647.00	  592.05	-1689.30	  401.83
     88.1700	  583.00	  583.54	-1744.79	  401.77
     88.2700	  610.00	  576.68	-1710.93	  401.71
     88.3700	  568.00	  571.84	-1748.09	  401.65
     88.4700	  582.00	  569.18	-1731.43	  401.58
     88.5700	  585.00	  568.71	-1727.96	  401.52
     88.6700	  577.00	  570.25	-1737.50	  401.45
     88.7700	  608.00	  573.49	-1709.74	  401.38
     88.8700	  609.00	  578.00	-1713.25	  401.31
     88.9700	  576.00	  583.27	-1751.52	  401.24
     89.0700	  626.00	  588.69	-1706.94	  401.17
     89.1700	  622.00	  593.65	-1715.90	  401.10
     89.2700	  624.00	  597.48	-1717.73	  401.02
     89.3700	  635.00	  599.65	-1708.90	  400.95
     89.4700	  640.00	  599.78	-1704.03	  400.87
     89.5700	  580.00	  597.80	-1762.05	  400.79
     89.6700	  575.00	  593.94	-1763.19	  400.71
     89.7700	  528.00	  588.63	-1804.88	  400.63
     89.8700	  513.00	  582.39	-1813.64	  400.54
     89.9700	  543.00	  575.74	-1776.99	  400.46
     90.0700	  561.00	  569.10	-1752.35	  400.37
     90.1700	  490.00	  562.85	-1817.10	  400.28
     90.2700	  541.00	  557.22	-1760.47	  400.19
     90.3700	  513.00	  552.37	-1783.62	  400.10
     90.4700	  530.00	  548.37	-1762.62	  400.01
     90.5700	  515.00	  545.20	-1774.45	  399.92
     90.6700	  505.00	  542.82	-1782.07	  399.82
     90.7700	  532.00	  541.13	-1753.38	  399.73
     90.8700	  502.00	  540.03	-1782.28	  399.63
     90.9700	  533.00	  539.44	-1750.69	  399.53
     91.0700	  494.00	  539.29	-1789.54	  399.43
     91.1700	  501.00	  539.54	-1782.79	  399.33
     91.2700	  526.00	  540.19	-1758.44	  399.22
     91.3700	  547.00	  541.28	-1738.53	  399.12
     91.4700	  499.00	  542.90	-1788.15	  399.01
     91.5700	  513.00	  545.17	-1776.42	  398.91
     91.6700	  517.00	  548.24	-1775.49	  398.80
     91.7700	  546.00	  552.30	-1750.55	  398.69
     91.8700	  503.00	  557.57	-1798.82	  398.58
     91.9700	  539.00	  564.01	-1769.26	  398.46
     92.0700	  578.00	  572.26	-1738.51	  398.35
     92.1700	  524.00	  582.22	-1802.47	  398.23
     92.2700	  579.00	  593.93	-1759.18	  398.12
     92.3700	  602.00	  607.32	-1749.57	  398.00
     92.4700	  620.00	  622.22	-1746.47	  397.88
     92.5700	  643.00	  638.29	-1739.54	  397.76
     92.6700	  715.00	  655.09	-1684.34	  397.63
     92.7700	  699.00	  672.01	-1717.26	  397.51
     92.8700	  655.00	  688.38	-1777.63	  397.39
     92.9700	  759.00	  703.49	-1688.74	  397.26
     93.0700	  752.00	  716.75	-1709.00	  397.13
     93.1700	  767.00	  727.86	-1705.11	  397.00
     93.2700	  788.00	  736.93	-1693.18	  396.87
     93.3700	  775.00	  744.41	-1713.66	  396.74
     93.4700	  842.00	  750.94	-1653.19	  396.61
     93.5700	  806.00	  757.24	-1695.49	  396.47
     93.6700	  803.00	  763.96	-1705.21	  396.34
     93.7700	  827.00	  771.67	-1688.92	  396.20
     93.8700	  870.00	  780.86	-1655.11	  396.06
     93.9700	  893.00	  791.98	-1643.23	  395.92
     94.0700	  827.00	  805.36	-1722.61	  395.78
     94.1700	  876.00	  821.09	-1689.34	  395.64
     94.2700	  882.00	  838.86	-1701.11	  395.49
     94.3700	  844.00	  857.96	-1758.21	  395.35
     94.4700	  870.00	  877.18	-1751.43	  395.20
     94.5700	  909.00	  894.93	-1730.18	  395.06
     94.6700	  928.00	  909.35	-1725.60	  394.91
     94.7700	  846.00	  918.48	-1816.73	  394.76
     94.8700	  938.00	  920.71	-1726.96	  394.61
     94.9700	  969.00	  915.12	-1690.37	  394.46
     95.0700	  863.00	  901.78	-1783.03	  394.30
     95.1700	  787.00	  881.73	-1838.98	  394.15
     95.2700	  829.00	  856.69	-1771.94	  393.99
     95.3700	  874.00	  828.70	-1698.95	  393.83
     95.4700	  799.00	  799.84	-1745.09	  393.68
     95.5700	  792.00	  772.11	-1724.36	  393.52
     95.6700	  701.00	  747.32	-1790.57	  393.36
     95.7700	  708.00	  727.10	-1763.35	  393.19
     95.8700	  733.00	  712.91	-1724.16	  393.03
     95.9700	  662.00	  706.02	-1788.27	  392.87
     96.0700	  685.00	  707.49	-1766.74	  392.70
     96.1700	  697.00	  718.24	-1765.49	  392.53
     96.2700	  705.00	  738.95	-1778.20	  392.37
     96.3700	  776.00	  770.04	-1738.29	  392.20
     96.4700	  775.00	  811.56	-1780.81	  392.03
     96.5700	  860.00	  863.18	-1747.43	  391.86
     96.6700	  906.00	  924.00	-1762.25	  391.69
     96.7700	  967.00	  992.52	-1769.77	  391.51
     96.8700	 1021.00	 1066.52	-1789.77	  391.34
     96.9700	 1184.00	 1143.13	-1703.38	  391.16
     97.0700	 1230.00	 1218.81	-1733.06	  390.99
     97.1700	 1312.00	 1289.44	-1721.69	  390.81
     97.2700	 1306.00	 1350.54	-1788.79	  390.63
     97.3700	 1426.00	 1397.64	-1715.89	  390.45
     97.4700	 1440.00	 1426.93	-1731.18	  390.27
     97.5700	 1388.00	 1435.96	-1792.21	  390.09
     97.6700	 1410.00	 1424.23	-1758.48	  389.91
     97.7700	 1374.00	 1393.29	-1763.54	  389.72
     97.8700	 1316.00	 1346.29	-1774.54	  389.54
     97.9700	 1310.00	 1287.33	-1721.58	  389.35
     98.0700	 1233.00	 1220.73	-1731.98	  389.17
     98.1700	 1145.00	 1150.77	-1750.02	  388.98
     98.2700	 1044.00	 1081.31	-1781.56	  388.79
     98.3700	 1097.00	 1015.72	-1662.97	  388.60
     98.4700	  919.00	  956.80	-1782.05	  388.41
     98.5700	  903.00	  906.81	-1748.06	  388.22
     98.6700	  828.00	  867.50	-1783.75	  388.03
     98.7700	  822.00	  840.18	-1762.43	  387.83
     98.8700	  829.00	  825.81	-1741.06	  387.64
     98.9700	  756.00	  825.04	-1813.29	  387.44
     99.0700	  785.00	  838.29	-1797.54	  387.25
     99.1700	  835.00	  865.78	-1775.03	  387.05
     99.2700	  850.00	  907.58	-1801.83	  386.86
     99.3700	  920.00	  963.48	-1787.73	  386.66
     99.4700	 1011.00	 1032.99	-1766.24	  386.46
     99.5700	 1135.00	 1115.22	-1724.47	  386.26
     99.6700	 1188.00	 1208.81	-1765.06	  386.06
     99.7700	 1270.00	 1311.80	-1786.05	  385.86
     99.8700	 1403.00	 1421.56	-1762.81	  385.65
     99.9700	 1537.00	 1534.68	-1741.93	  385.45
    100.0700	 1565.00	 1647.12	-1826.37	  385.25
    100.1700	 1716.00	 1754.36	-1782.61	  385.04
    100.2700	 1839.00	 1851.80	-1757.05	  384.84
    100.3700	 1993.00	 1935.30	-1686.55	  384.63
    100.4700	 2032.00	 2001.52	-1713.77	  384.43
    100.5700	 2155.00	 2048.12	-1637.37	  384.22
    100.6700	 2130.00	 2073.58	-1687.83	  384.01
    100.7700	 2097.00	 2077.03	-1724.28	  383.80
    100.8700	 2100.00	 2058.25	-1702.50	  383.59
    100.9700	 2108.00	 2017.92	-1654.17	  383.38
    101.0700	 1989.00	 1958.00	-1713.25	  383.17
    101.1700	 1913.00	 1881.87	-1713.12	  382.96
    101.2700	 1844.00	 1794.07	-1694.32	  382.75
    101.3700	 1733.00	 1699.76	-1711.01	  382.54
    101.4700	 1590.00	 1604.07	-1758.32	  382.33
    101.5700	 1576.00	 1511.56	-1679.81	  382.11
    101.6700	 1454.00	 1425.90	-1716.15	  381.90
    101.7700	 1319.00	 1349.75	-1775.00	  381.68
    101.8700	 1278.00	 1284.66	-1750.91	  381.47
    101.9700	 1236.00	 1231.13	-1739.38	  381.25
    102.0700	 1237.00	 1188.67	-1695.92	  381.04
    102.1700	 1170.00	 1155.91	-1730.16	  380.82
    102.2700	 1183.00	 1130.79	-1692.04	  380.61
    102.3700	 1086.00	 1110.75	-1769.00	  380.39
    102.4700	 1054.00	 1093.03	-1783.28	  380.17
    102.5700	 1075.00	 1075.01	-1744.26	  379.95
    102.6700	 1047.00	 1054.53	-1751.78	  379.74
    102.7700	 1034.00	 1030.20	-1740.45	  379.52
    102.8700	  986.00	 1001.46	-1759.71	  379.30
    102.9700	  916.00	  968.56	-1796.81	  379.08
    103.0700	  867.00	  932.28	-1809.53	  378.86
    103.1700	  893.00	  893.74	-1744.99	  378.64
    103.2700	  851.00	  854.16	-1747.41	  378.42
    103.3700	  858.00	  814.74	-1700.99	  378.20
    103.4700	  773.00	  776.59	-1747.84	  377.98
    103.5700	  764.00	  740.64	-1720.89	  377.76
    103.6700	  672.00	  707.61	-1779.86	  377.54
    103.7700	  699.00	  678.00	-1723.25	  377.32
    103.8700	  648.00	  652.08	-1748.33	  377.10
    103.9700	  618.00	  629.93	-1756.18	  376.88
    104.0700	  636.00	  611.46	-1719.71	  376.65
    104.1700	  619.00	  596.44	-1721.69	  376.43
    104.2700	  584.00	  584.56	-1744.81	  376.21
    104.3700	  572.00	  575.43	-1747.68	  375.99
    104.4700	  583.00	  568.68	-1729.93	  375.77
    104.5700	  507.00	  563.91	-1801.16	  375.55
    104.6700	  562.00	  560.79	-1743.04	  375.33
    104.7700	  595.00	  558.98	-1708.23	  375.10
    104.8700	  518.00	  558.23	-1784.48	  374.88
    104.9700	  563.00	  558.28	-1739.53	  374.66
    105.0700	  526.00	  558.98	-1777.23	  374.44
    105.1700	  554.00	  560.17	-1750.42	  374.22
    105.2700	  562.00	  561.77	-1744.02	  374.00
    105.3700	  558.00	  563.70	-1749.95	  373.78
    105.4700	  542.00	  565.98	-1768.23	  373.56
    105.5700	  538.00	  568.62	-1774.87	  373.33
    105.6700	  546.00	  571.68	-1769.93	  373.11
    105.7700	  505.00	  575.28	-1814.53	  372.89
    105.8700	  578.00	  579.51	-1745.76	  372.67
    105.9700	  581.00	  584.49	-1747.74	  372.45
    106.0700	  582.00	  590.31	-1752.56	  372.23
    106.1700	  594.00	  597.00	-1747.25	  372.02
    106.2700	  556.00	  604.54	-1792.79	  371.80
    106.3700	  580.00	  612.86	-1777.11	  371.58
    106.4700	  564.00	  621.82	-1802.07	  371.36
    106.5700	  639.00	  631.19	-1736.44	  371.14
    106.6700	  632.00	  640.72	-1752.97	  370.92
    106.7700	  614.00	  650.06	-1780.31	  370.71
    106.8700	  654.00	  658.87	-1749.12	  370.49
    106.9700	  625.00	  666.75	-1786.00	  370.28
    107.0700	  667.00	  673.36	-1750.61	  370.06
    107.1700	  676.00	  678.40	-1746.65	  369.85
    107.2700	  657.00	  681.72	-1768.97	  369.63
    107.3700	  664.00	  683.31	-1763.56	  369.42
    107.4700	  672.00	  683.33	-1755.58	  369.20
    107.5700	  694.00	  682.09	-1732.34	  368.99
    107.6700	  689.00	  679.97	-1735.22	  368.78
    107.7700	  691.00	  677.40	-1730.65	  368.57
    107.8700	  672.00	  674.77	-1747.02	  368.36
    107.9700	  680.00	  672.42	-1736.67	  368.15
    108.0700	  655.00	  670.59	-1759.84	  367.94
    108.1700	  648.00	  669.42	-1765.67	  367.73
    108.2700	  646.00	  668.94	-1767.19	  367.52
    108.3700	  719.00	  669.09	-1694.34	  367.32
    108.4700	  680.00	  669.67	-1733.92	  367.11
    108.5700	  641.00	  670.43	-1773.68	  366.91
    108.6700	  683.00	  671.02	-1732.27	  366.70
    108.7700	  681.00	  671.09	-1734.34	  366.50
    108.8700	  695.00	  670.27	-1719.52	  366.30
    108.9700	  677.00	  668.27	-1735.52	  366.10
    109.0700	  673.00	  664.89	-1736.14	  365.90
    109.1700	  673.00	  660.08	-1731.33	  365.70
    109.2700	  679.00	  653.89	-1719.14	  365.50
    109.3700	  671.00	  646.50	-1719.75	  365.30
    109.4700	  596.00	  638.18	-1786.43	  365.11
    109.5700	  627.00	  629.20	-1746.45	  364.91
    109.6700	  613.00	  619.86	-1751.11	  364.72
    109.7700	  623.00	  610.47	-1731.72	  364.53
    109.8700	  617.00	  601.29	-1728.54	  364.34
    109.9700	  578.00	  592.54	-1758.79	  364.15
    110.0700	  600.00	  584.41	-1728.66	  363.96
    110.1700	  561.00	  577.04	-1760.29	  363.77
    110.2700	  581.00	  570.53	-1733.78	  363.59
    110.3700	  543.00	  564.94	-1766.19	  363.40
    110.4700	  514.00	  560.27	-1790.52	  363.22
    110.5700	  568.00	  556.49	-1732.74	  363.04
    110.6700	  538.00	  553.57	-1759.82	  362.86
    110.7700	  559.00	  551.43	-1736.68	  362.68
    110.8700	  565.00	  550.01	-1729.26	  362.50
    110.9700	  540.00	  549.21	-1753.46	  362.33
    111.0700	  562.00	  548.96	-1731.21	  362.15
    111.1700	  535.00	  549.19	-1758.44	  361.98
    111.2700	  502.00	  549.83	-1792.08	  361.81
    111.3700	  561.00	  550.82	-1734.07	  361.64
    111.4700	  518.00	  552.11	-1778.36	  361.48
    111.5700	  576.00	  553.68	-1721.93	  361.31
    111.6700	  519.00	  555.49	-1780.74	  361.15
    111.7700	  594.00	  557.52	-1707.77	  360.99
    111.8700	  560.00	  559.77	-1744.02	  360.83
    111.9700	  562.00	  562.24	-1744.49	  360.67
    112.0700	  600.00	  564.93	-1709.18	  360.51
    112.1700	  593.00	  567.84	-1719.09	  360.36
    112.2700	  547.00	  571.01	-1768.26	  360.20
    112.3700	  591.00	  574.46	-1727.71	  360.05
    112.4700	  600.00	  578.23	-1722.48	  359.91
    112.5700	  628.00	  582.36	-1698.61	  359.76
    112.6700	  599.00	  586.92	-1732.17	  359.61
    112.7700	  611.00	  592.00	-1725.25	  359.47
    112.8700	  599.00	  597.71	-1742.96	  359.33
    112.9700	  683.00	  604.18	-1665.43	  359.20
    113.0700	  692.00	  611.62	-1663.87	  359.06
    113.1700	  701.00	  620.24	-1663.49	  358.93
    113.2700	  728.00	  630.41	-1646.66	  358.80
    113.3700	  759.00	  642.50	-1627.75	  358.67
    113.4700	  813.00	  657.04	-1588.29	  358.54
    113.5700	  814.00	  674.65	-1604.90	  358.42
    113.6700	  849.00	  696.14	-1591.39	  358.29
    113.7700	  873.00	  722.48	-1593.73	  358.18
    113.8700	  952.00	  754.81	-1547.06	  358.06
    113.9700	  975.00	  794.51	-1563.76	  357.95
    114.0700	 1088.00	  843.16	-1499.41	  357.83
    114.1700	 1161.00	  902.55	-1485.80	  357.73
    114.2700	 1186.00	  974.71	-1532.96	  357.62
    114.3700	 1322.00	 1061.79	-1484.04	  357.52
    114.4700	 1386.00	 1166.11	-1524.36	  357.42
    114.5700	 1458.00	 1289.98	-1576.23	  357.32
    114.6700	 1581.00	 1435.71	-1598.96	  357.22
    114.7700	 1792.00	 1605.49	-1557.74	  357.13
    114.8700	 1856.00	 1801.13	-1689.38	  357.04
    114.9700	 2123.00	 2024.04	-1645.29	  356.95
    115.0700	 2344.00	 2274.99	-1675.24	  356.87
    115.1700	 2466.00	 2554.05	-1832.30	  356.79
    115.2700	 2848.00	 2860.40	-1756.65	  356.71
    115.3700	 3174.00	 3192.11	-1762.36	  356.64
    115.4700	 3370.00	 3546.15	-1920.40	  356.57
    115.5700	 3758.00	 3918.23	-1904.48	  356.50
    115.6700	 4137.00	 4302.93	-1910.18	  356.43
    115.7700	 4482.00	 4693.62	-1955.87	  356.37
    115.8700	 4667.00	 5082.36	-2159.61	  356.31
    115.9700	 5164.00	 5460.18	-2040.43	  356.26
    116.0700	 5642.00	 5817.13	-1919.38	  356.20
    116.1700	 6083.00	 6142.71	-1803.96	  356.15
    116.2700	 6201.00	 6426.15	-1969.40	  356.11
    116.3700	 6598.00	 6656.91	-1803.16	  356.07
    116.4700	 6833.00	 6825.62	-1736.87	  356.03
    116.5700	 6940.00	 6924.92	-1729.17	  355.99
    116.6700	 6959.00	 6950.39	-1735.64	  355.96
    116.7700	 6977.00	 6901.02	-1668.27	  355.94
    116.8700	 6966.00	 6779.39	-1557.64	  355.91
    116.9700	 6790.00	 6591.35	-1545.60	  355.89
    117.0700	 6334.00	 6345.26	-1755.51	  355.87
    117.1700	 6141.00	 6051.05	-1654.30	  355.86
    117.2700	 5730.00	 5719.30	-1733.55	  355.85
    117.3700	 5378.00	 5360.76	-1727.01	  355.85
    117.4700	 5019.00	 4985.62	-1710.87	  355.85
    117.5700	 4616.00	 4603.32	-1731.57	  355.85
    117.6700	 4340.00	 4222.17	-1626.42	  355.86
    117.7700	 3879.00	 3849.30	-1714.55	  355.87
    117.8700	 3695.00	 3490.74	-1539.99	  355.88
    117.9700	 3283.00	 3151.23	-1612.48	  355.90
    118.0700	 2891.00	 2834.36	-1687.61	  355.92
    118.1700	 2577.00	 2542.45	-1709.70	  355.95
    118.2700	 2173.00	 2276.83	-1848.08	  355.98
    118.3700	 2035.00	 2037.98	-1747.23	  356.02
    118.4700	 1792.00	 1825.55	-1777.80	  356.06
    118.5700	 1604.00	 1638.60	-1778.85	  356.10
    118.6700	 1377.00	 1475.63	-1842.88	  356.15
    118.7700	 1272.00	 1334.81	-1807.06	  356.20
    118.8700	 1121.00	 1214.13	-1837.38	  356.26
    118.9700	 1006.00	 1111.48	-1849.73	  356.33
    119.0700	  925.00	 1024.71	-1843.96	  356.39
    119.1700	  888.00	  951.75	-1808.00	  356.46
    119.2700	  785.00	  890.65	-1849.90	  356.54
    119.3700	  749.00	  839.65	-1834.90	  356.62
    119.4700	  774.00	  797.18	-1767.43	  356.71
    119.5700	  679.00	  761.85	-1827.10	  356.80
    119.6700	  720.00	  732.46	-1756.71	  356.89
    119.7700	  633.00	  707.99	-1819.24	  357.00
    119.8700	  665.00	  687.60	-1766.85	  357.10
    119.9700	  610.00	  670.58	-1804.83	  357.21
    120.0700	  624.00	  656.35	-1776.60	  357.33
    120.1700	  591.00	  644.43	-1797.68	  357.45
    120.2700	  558.00	  634.45	-1820.70	  357.57
    120.3700	  565.00	  626.10	-1805.35	  357.71
    120.4700	  602.00	  619.12	-1761.37	  357.84
    120.5700	  570.00	  613.34	-1787.59	  357.98
    120.6700	  543.00	  608.59	-1809.84	  358.13
    120.7700	  588.00	  604.76	-1761.01	  358.28
    120.8700	  563.00	  601.75	-1783.00	  358.44
    120.9700	  565.00	  599.49	-1778.74	  358.61
    121.0700	  572.00	  597.93	-1770.18	  358.78
    121.1700	  606.00	  597.01	-1735.26	  358.95
    121.2700	  579.00	  596.70	-1761.95	  359.13
    121.3700	  526.00	  596.95	-1815.20	  359.32
    121.4700	  567.00	  597.72	-1774.97	  359.51
    121.5700	  587.00	  598.97	-1756.22	  359.71
    121.6700	  562.00	  600.65	-1782.90	  359.91
    121.7700	  596.00	  602.71	-1750.96	  360.12
    121.8700	  572.00	  605.06	-1777.31	  360.34
    121.9700	  583.00	  607.67	-1768.92	  360.56
    122.0700	  619.00	  610.44	-1735.69	  360.79
    122.1700	  616.00	  613.28	-1741.53	  361.02
    122.2700	  635.00	  616.10	-1725.35	  361.26
    122.3700	  641.00	  618.81	-1722.06	  361.51
    122.4700	  674.00	  621.29	-1691.54	  361.76
    122.5700	  622.00	  623.47	-1745.72	  362.02
    122.6700	  605.00	  625.25	-1764.50	  362.28
    122.7700	  605.00	  626.57	-1765.82	  362.56
    122.8700	  587.00	  627.36	-1784.61	  362.84
    122.9700	  648.00	  627.60	-1723.85	  363.12
    123.0700	  702.00	  627.27	-1669.52	  363.41
    123.1700	  635.00	  626.41	-1735.66	  363.71
    123.2700	  670.00	  625.02	-1699.27	  364.02
    123.3700	  632.00	  623.18	-1735.43	  364.33
    123.4700	  677.00	  620.93	-1688.18	  364.65
    123.5700	  596.00	  618.33	-1766.58	  364.97
    123.6700	  657.00	  615.46	-1702.71	  365.30
    123.7700	  611.00	  612.38	-1745.63	  365.64
    123.8700	  616.00	  609.16	-1737.41	  365.99
    123.9700	  599.00	  605.86	-1751.11	  366.34
    124.0700	  638.00	  602.54	-1708.79	  366.70
    124.1700	  638.00	  599.25	-1705.50	  367.07
    124.2700	  603.00	  596.03	-1737.28	  367.45
    124.3700	  618.00	  592.92	-1719.17	  367.83
    124.4700	  578.00	  589.95	-1756.20	  368.22
    124.5700	  621.00	  587.15	-1710.40	  368.62
    124.6700	  596.00	  584.53	-1732.78	  369.02
    124.7700	  587.00	  582.11	-1739.36	  369.44
    124.8700	  632.00	  579.91	-1692.16	  369.86
    124.9700	  568.00	  488.90	-1665.15	  370.29
    125.0700	  585.00	  489.34	-1744.25	  370.72
    125.1700	  612.00	  489.78	-1744.25	  371.16
    125.2700	  525.00	  490.23	-1744.25	  371.62
    125.3700	  573.00	  490.69	-1744.25	  372.08
    125.4700	  580.00	  491.16	-1744.25	  372.54
    125.5700	  584.00	  491.63	-1744.25	  373.02
    125.6700	  601.00	  492.12	-1744.25	  373.50
    125.7700	  581.00	  492.61	-1744.25	  373.99
    125.8700	  609.00	  493.11	-1744.25	  374.49
    125.9700	  627.00	  493.62	-1744.25	  375.00
    126.0700	  582.00	  494.14	-1744.25	  375.52
    126.1700	  614.00	  494.66	-1744.25	  376.05
    126.2700	  545.00	  495.19	-1744.25	  376.58
    126.3700	  585.00	  495.74	-1744.25	  377.12
    126.4700	  598.00	  496.29	-1744.25	  377.67
    126.5700	  605.00	  496.85	-1744.25	  378.23
    126.6700	  659.00	  497.42	-1744.25	  378.80
    126.7700	  604.00	  497.99	-1744.25	  379.38
    126.8700	  646.00	  498.58	-1744.25	  379.96
    126.9700	  632.00	  499.17	-1744.25	  380.56
    127.0700	  651.00	  499.78	-1744.25	  381.16
    127.1700	  628.00	  500.39	-1744.25	  381.77
    127.2700	  618.00	  501.01	-1744.25	  382.40
    127.3700	  650.00	  501.64	-1744.25	  383.03
    127.4700	  608.00	  502.28	-1744.25	  383.67
    127.5700	  652.00	  502.93	-1744.25	  384.32
    127.6700	  704.00	  503.59	-1744.25	  384.98
    127.7700	  707.00	  504.26	-1744.25	  385.65
    127.8700	  702.00	  504.94	-1744.25	  386.32
    127.9700	  758.00	  505.63	-1744.25	  387.01
    128.0700	  774.00	  506.33	-1744.25	  387.71
    128.1700	  782.00	  507.03	-1744.25	  388.42
    128.2700	  772.00	  507.75	-1744.25	  389.13
    128.3700	  804.00	  508.48	-1744.25	  389.86
    128.4700	  807.00	  509.21	-1744.25	  390.60
    128.5700	    1.00	  509.96	-1744.25	  391.34
    128.6700	    0.00	  510.72	-1744.25	  392.10
     12.3039	        	        	        	        	       0	(  0  0  2)	  0  1
     24.8840	        	        	        	        	       0	(  0  0  4)	  0  1
     28.3312	        	        	        	        	       0	(  1  0  0)	  0  1
     29.0281	        	        	        	        	       0	(  1  0  1)	  0  1
     31.0334	        	        	        	        	       0	(  1  0  2)	  0  1
     34.1405	        	        	        	        	       0	(  1  0  3)	  0  1
     37.7798	        	        	        	        	       0	(  0  0  6)	  0  1
     38.1160	        	        	        	        	       0	(  1  0  4)	  0  1
     42.7644	        	        	        	        	       0	(  1  0  5)	  0  1
     47.9465	        	        	        	        	       0	(  1  0  6)	  0  1
     50.2676	        	        	        	        	       0	(  1  1  0)	  0  1
     51.1974	        	        	        	        	       0	(  0  0  8)	  0  1
     51.9898	        	        	        	        	       0	(  1  1  2)	  0  1
     53.5748	        	        	        	        	       0	(  1  0  7)	  0  1
     56.9354	        	        	        	        	       0	(  1  1  4)	  0  1
     58.7643	        	        	        	        	       0	(  2  0  0)	  0  1
     59.1557	        	        	        	        	       0	(  2  0  1)	  0  1
     59.6030	        	        	        	        	       0	(  1  0  8)	  0  1
     60.3206	        	        	        	        	       0	(  2  0  2)	  0  1
     62.2329	        	        	        	        	       0	(  2  0  3)	  0  1
     64.6267	        	        	        	        	       0	(  1  1  6)	  0  1
     64.8558	        	        	        	        	       0	(  2  0  4)	  0  1
     65.4215	        	        	        	        	       0	(  0  0 10)	  0  1
     66.0168	        	        	        	        	       0	(  1  0  9)	  0  1
     68.1485	        	        	        	        	       0	(  2  0  5)	  0  1
     72.0742	        	        	        	        	       0	(  2  0  6)	  0  1
     72.8300	        	        	        	        	       0	(  1  0 10)	  0  1
     74.6600	        	        	        	        	       0	(  1  1  8)	  0  1
     76.6062	        	        	        	        	       0	(  2  0  7)	  0  1
     80.0844	        	        	        	        	       0	(  1  0 11)	  0  1
     80.8954	        	        	        	        	       0	(  0  0 12)	  0  1
     81.0048	        	        	        	        	       0	(  2  1  0)	  0  1
     81.3445	        	        	        	        	       0	(  2  1  1)	  0  1
     81.7340	        	        	        	        	       0	(  2  0  8)	  0  1
     82.3619	        	        	        	        	       0	(  2  1  2)	  0  1
     84.0523	        	        	        	        	       0	(  2  1  3)	  0  1
     86.4108	        	        	        	        	       0	(  2  1  4)	  0  1
     86.9255	        	        	        	        	       0	(  1  1 10)	  0  1
     87.4692	        	        	        	        	       0	(  2  0  9)	  0  1
     87.8549	        	        	        	        	       0	(  1  0 12)	  0  1
     89.4351	        	        	        	        	       0	(  2  1  5)	  0  1
     93.1306	        	        	        	        	       0	(  2  1  6)	  0  1
     93.8532	        	        	        	        	       0	(  2  0 10)	  0  1
     94.8931	        	        	        	        	       0	(  3  0  0)	  0  1
     95.2303	        	        	        	        	       0	(  3  0  1)	  0  1
     96.2430	        	        	        	        	       0	(  3  0  2)	  0  1
     96.2634	        	        	        	        	       0	(  1  0 13)	  0  1
     97.5168	        	        	        	        	       0	(  2  1  7)	  0  1
     97.9354	        	        	        	        	       0	(  3  0  3)	  0  1
     98.4252	        	        	        	        	       0	(  0  0 14)	  0  1
    100.3171	        	        	        	        	       0	(  3  0  4)	  0  1
    100.9710	        	        	        	        	       0	(  2  0 11)	  0  1
    101.7875	        	        	        	        	       0	(  1  1 12)	  0  1
    102.6364	        	        	        	        	       0	(  2  1  8)	  0  1
    103.4071	        	        	        	        	       0	(  3  0  5)	  0  1
    105.5101	        	        	        	        	       0	(  1  0 14)	  0  1
    107.2400	        	        	        	        	       0	(  3  0  6)	  0  1
    108.5697	        	        	        	        	       0	(  2  1  9)	  0  1
    108.9771	        	        	        	        	       0	(  2  0 12)	  0  1
    111.8776	        	        	        	        	       0	(  3  0  7)	  0  1
    115.4620	        	        	        	        	       0	(  2  1 10)	  0  1
    115.9453	        	        	        	        	       0	(  1  0 15)	  0  1
    116.6170	        	        	        	        	       0	(  2  2  0)	  0  1
    117.4275	        	        	        	        	       0	(  3  0  8)	  0  1
    118.1314	        	        	        	        	       0	(  2  2  2)	  0  1
    118.1545	        	        	        	        	       0	(  2  0 13)	  0  1
    119.8964	        	        	        	        	       0	(  0  0 16)	  0  1
    120.6175	        	        	        	        	       0	(  1  1 14)	  0  1
    122.8141	        	        	        	        	       0	(  2  2  4)	  0  1
    123.5829	        	        	        	        	       0	(  2  1 11)	  0  1
    124.0828	        	        	        	        	       0	(  3  0  9)	  0  1
    124.6817	        	        	        	        	       0	(  3  1  0)	  0  1
    125.0917	        	        	        	        	       0	(  3  1  1)	  0  1
    126.3344	        	        	        	        	       0	(  3  1  2)	  0  1
    128.2759	        	        	        	        	       0	(  1  0 16)	  0  1
    128.4514	        	        	        	        	       0	(  3  1  3)	  0  1
    129.0741	        	        	        	        	       0	(  2  0 14)	  0  1
    131.2486	        	        	        	        	       0	(  2  2  6)	  0  1
    131.5254	        	        	        	        	       0	(  3  1  4)	  0  1
    132.2169	        	        	        	        	       0	(  3  0 10)	  0  1
    133.4861	        	        	        	        	       0	(  2  1 12)	  0  1
    135.7097	        	        	        	        	       0	(  3  1  5)	  0  1
    141.3010	        	        	        	        	       0	(  3  1  6)	  0  1
    142.6848	        	        	        	        	       0	(  3  0 11)	  0  1
    143.1950	        	        	        	        	       0	(  2  0 15)	  0  1
    144.4200	        	        	        	        	       0	(  1  0 17)	  0  1
    145.4709	        	        	        	        	       0	(  2  2  8)	  0  1
    146.6248	        	        	        	        	       0	(  2  1 13)	  0  1
    148.9674	        	        	        	        	       0	(  3  1  7)	  0  1
    149.5116	        	        	        	        	       0	(  1  1 16)	  0  1
    153.8847	        	        	        	        	       0	(  0  0 18)	  0  1
    158.5351	        	        	        	        	       0	(  3  0 12)	  0  1
    158.8343	        	        	        	        	       0	(  4  0  0)	  0  1
    159.7904	        	        	        	        	       0	(  4  0  1)	  0  1
    160.9447	        	        	        	        	       0	(  3  1  8)	  0  1
    162.9666	        	        	        	        	       0	(  4  0  2)	  0  1
    169.5096	        	        	        	        	       0	(  2  0 16)	  0  1
    170.3034	        	        	        	        	       0	(  4  0  3)	  0  1
    173.8840	        	        	        	        	       0	(  2  1 14)	  0  1
