MSG Master    CELL:    5.90088   5.90088  23.18003   90.0000   90.0000  120.0000   SPGR: P 63/m m c             TEMP:    786.25
  1   1280     2.52000     0.00000    -0.11764     0.00000     0.00000    0
    98     0     2
       0.00000      10.00000
     125.00000     130.00000
 2Theta	Yobs	Ycal	Yobs-Ycal	Backg	Posr	(hkl)	K
      0.7700	    0.00	  468.10	-1771.50	  367.47
      0.8700	    0.00	  470.20	-1771.50	  369.58
      0.9700	   57.00	  472.29	-1771.50	  371.66
      1.0700	   42.00	  474.35	-1771.50	  373.72
      1.1700	   33.00	  476.39	-1771.50	  375.77
      1.2700	   38.00	  478.41	-1771.50	  377.78
      1.3700	   43.00	  480.41	-1771.50	  379.78
      1.4700	   98.00	  482.38	-1771.50	  381.76
      1.5700	  279.00	  484.34	-1771.50	  383.71
      1.6700	  426.00	  486.27	-1771.50	  385.65
      1.7700	  554.00	  488.19	-1771.50	  387.56
      1.8700	  630.00	  490.08	-1771.50	  389.45
      1.9700	  717.00	  491.95	-1771.50	  391.32
      2.0700	  812.00	  493.80	-1771.50	  393.17
      2.1700	  803.00	  495.63	-1771.50	  395.00
      2.2700	  778.00	  497.43	-1771.50	  396.81
      2.3700	  766.00	  499.22	-1771.50	  398.60
      2.4700	  699.00	  500.99	-1771.50	  400.36
      2.5700	  685.00	  502.74	-1771.50	  402.11
      2.6700	  668.00	  504.47	-1771.50	  403.84
      2.7700	  674.00	  506.17	-1771.50	  405.55
      2.8700	  619.00	  507.86	-1771.50	  407.24
      2.9700	  643.00	  509.53	-1771.50	  408.91
      3.0700	  632.00	  511.18	-1771.50	  410.55
      3.1700	  614.00	  512.81	-1771.50	  412.18
      3.2700	  669.00	  514.42	-1771.50	  413.80
      3.3700	  886.00	  516.01	-1771.50	  415.39
      3.4700	  989.00	  517.59	-1771.50	  416.96
      3.5700	 1065.00	  519.14	-1771.50	  418.51
      3.6700	 1187.00	  520.67	-1771.50	  420.05
      3.7700	 1318.00	  522.19	-1771.50	  421.56
      3.8700	 1312.00	  523.69	-1771.50	  423.06
      3.9700	 1398.00	  525.17	-1771.50	  424.54
      4.0700	 1445.00	  526.63	-1771.50	  426.00
      4.1700	 1457.00	  528.07	-1771.50	  427.45
      4.2700	 1535.00	  529.50	-1771.50	  428.87
      4.3700	 1471.00	  530.90	-1771.50	  430.28
      4.4700	 1405.00	  532.29	-1771.50	  431.67
      4.5700	 1355.00	  533.66	-1771.50	  433.04
      4.6700	 1329.00	  535.02	-1771.50	  434.39
      4.7700	 1252.00	  536.35	-1771.50	  435.73
      4.8700	 1249.00	  537.67	-1771.50	  437.05
      4.9700	 1170.00	  538.98	-1771.50	  438.35
      5.0700	 1206.00	  540.26	-1771.50	  439.63
      5.1700	 1185.00	  541.53	-1771.50	  440.90
      5.2700	 1159.00	  542.78	-1771.50	  442.15
      5.3700	 1055.00	  544.01	-1771.50	  443.38
      5.4700	 1061.00	  545.23	-1771.50	  444.60
      5.5700	 1003.00	  546.43	-1771.50	  445.80
      5.6700	  963.00	  547.61	-1771.50	  446.99
      5.7700	  973.00	  548.78	-1771.50	  448.15
      5.8700	  990.00	  549.93	-1771.50	  449.31
      5.9700	 1003.00	  551.07	-1771.50	  450.44
      6.0700	  921.00	  552.19	-1771.50	  451.56
      6.1700	  893.00	  553.29	-1771.50	  452.66
      6.2700	  953.00	  554.38	-1771.50	  453.75
      6.3700	  834.00	  555.45	-1771.50	  454.82
      6.4700	  895.00	  556.51	-1771.50	  455.88
      6.5700	  877.00	  557.55	-1771.50	  456.92
      6.6700	  835.00	  558.57	-1771.50	  457.95
      6.7700	  819.00	  559.58	-1771.50	  458.96
      6.8700	  840.00	  560.58	-1771.50	  459.95
      6.9700	  819.00	  561.56	-1771.50	  460.93
      7.0700	  801.00	  562.52	-1771.50	  461.90
      7.1700	  815.00	  563.47	-1771.50	  462.85
      7.2700	  755.00	  564.41	-1771.50	  463.78
      7.3700	  749.00	  565.33	-1771.50	  464.70
      7.4700	  740.00	  566.23	-1771.50	  465.61
      7.5700	  718.00	  567.13	-1771.50	  466.50
      7.6700	  704.00	  568.00	-1771.50	  467.38
      7.7700	  706.00	  568.87	-1771.50	  468.24
      7.8700	  743.00	  569.72	-1771.50	  469.09
      7.9700	  690.00	  570.55	-1771.50	  469.92
      8.0700	  690.00	  571.37	-1771.50	  470.74
      8.1700	  716.00	  572.18	-1771.50	  471.55
      8.2700	  680.00	  572.97	-1771.50	  472.35
      8.3700	  664.00	  573.75	-1771.50	  473.12
      8.4700	  719.00	  574.52	-1771.50	  473.89
      8.5700	  687.00	  575.27	-1771.50	  474.64
      8.6700	  684.00	  576.01	-1771.50	  475.38
      8.7700	  649.00	  576.74	-1771.50	  476.11
      8.8700	  683.00	  577.45	-1771.50	  476.82
      8.9700	  651.00	  578.15	-1771.50	  477.52
      9.0700	  620.00	  578.84	-1771.50	  478.21
      9.1700	  686.00	  579.51	-1771.50	  478.88
      9.2700	  670.00	  580.17	-1771.50	  479.55
      9.3700	  649.00	  580.82	-1771.50	  480.20
      9.4700	  635.00	  581.46	-1771.50	  480.83
      9.5700	  637.00	  582.08	-1771.50	  481.46
      9.6700	  665.00	  582.69	-1771.50	  482.07
      9.7700	  644.00	  583.29	-1771.50	  482.67
      9.8700	  607.00	  583.88	-1771.50	  483.25
      9.9700	  619.00	  584.46	-1771.50	  483.83
     10.0700	  658.00	  588.63	-1702.13	  484.39
     10.1700	  626.00	  589.38	-1734.88	  484.94
     10.2700	  614.00	  590.16	-1747.66	  485.48
     10.3700	  603.00	  591.00	-1759.50	  486.01
     10.4700	  642.00	  591.91	-1721.41	  486.53
     10.5700	  600.00	  592.96	-1764.46	  487.03
     10.6700	  651.00	  594.20	-1714.70	  487.52
     10.7700	  594.00	  595.74	-1773.24	  488.01
     10.8700	  625.00	  597.65	-1744.15	  488.48
     10.9700	  644.00	  599.99	-1727.49	  488.94
     11.0700	  603.00	  602.77	-1771.27	  489.38
     11.1700	  640.00	  606.00	-1737.50	  489.82
     11.2700	  639.00	  609.70	-1742.20	  490.25
     11.3700	  643.00	  613.95	-1742.45	  490.66
     11.4700	  594.00	  618.86	-1796.36	  491.07
     11.5700	  671.00	  624.62	-1725.12	  491.46
     11.6700	  618.00	  631.51	-1785.01	  491.85
     11.7700	  625.00	  639.88	-1786.38	  492.22
     11.8700	  679.00	  650.03	-1742.53	  492.58
     11.9700	  721.00	  661.83	-1712.33	  492.93
     12.0700	  727.00	  674.11	-1718.61	  493.28
     12.1700	  768.00	  683.98	-1687.48	  493.61
     12.2700	  739.00	  686.62	-1719.12	  493.93
     12.3700	  725.00	  677.77	-1724.27	  494.24
     12.4700	  672.00	  660.03	-1759.53	  494.55
     12.5700	  647.00	  641.46	-1765.96	  494.84
     12.6700	  636.00	  626.97	-1762.47	  495.12
     12.7700	  624.00	  617.31	-1764.81	  495.39
     12.8700	  572.00	  611.47	-1810.97	  495.66
     12.9700	  626.00	  608.11	-1753.61	  495.91
     13.0700	  595.00	  606.15	-1782.65	  496.16
     13.1700	  593.00	  604.94	-1783.44	  496.39
     13.2700	  588.00	  604.15	-1787.65	  496.62
     13.3700	  553.00	  603.60	-1822.10	  496.84
     13.4700	  583.00	  603.25	-1791.75	  497.05
     13.5700	  593.00	  602.98	-1781.48	  497.24
     13.6700	  614.00	  602.79	-1760.29	  497.44
     13.7700	  595.00	  602.66	-1779.16	  497.62
     13.8700	  604.00	  602.58	-1770.08	  497.79
     13.9700	  583.00	  602.53	-1791.03	  497.95
     14.0700	  588.00	  602.50	-1786.00	  498.11
     14.1700	  547.00	  602.49	-1826.99	  498.26
     14.2700	  587.00	  602.50	-1787.00	  498.40
     14.3700	  556.00	  602.52	-1818.02	  498.53
     14.4700	  585.00	  602.54	-1789.04	  498.65
     14.5700	  617.00	  602.57	-1757.07	  498.76
     14.6700	  547.00	  602.60	-1827.10	  498.87
     14.7700	  577.00	  602.63	-1797.13	  498.97
     14.8700	  583.00	  602.66	-1791.16	  499.06
     14.9700	  586.00	  602.69	-1788.19	  499.14
     15.0700	  578.00	  602.71	-1796.21	  499.22
     15.1700	  605.00	  602.74	-1769.24	  499.28
     15.2700	  591.00	  602.76	-1783.26	  499.34
     15.3700	  588.00	  602.78	-1786.28	  499.39
     15.4700	  587.00	  602.79	-1787.29	  499.44
     15.5700	  597.00	  602.80	-1777.30	  499.47
     15.6700	  607.00	  602.81	-1767.31	  499.50
     15.7700	  555.00	  602.81	-1819.31	  499.53
     15.8700	  575.00	  602.80	-1799.30	  499.54
     15.9700	  573.00	  602.79	-1801.29	  499.55
     16.0700	  546.00	  602.78	-1828.28	  499.55
     16.1700	  550.00	  602.76	-1824.26	  499.54
     16.2700	  598.00	  602.73	-1776.23	  499.53
     16.3700	  593.00	  602.70	-1781.20	  499.51
     16.4700	  605.00	  602.66	-1769.16	  499.48
     16.5700	  523.00	  602.62	-1851.12	  499.45
     16.6700	  543.00	  602.57	-1831.07	  499.41
     16.7700	  635.00	  602.51	-1739.01	  499.36
     16.8700	  587.00	  602.45	-1786.95	  499.31
     16.9700	  596.00	  602.39	-1777.89	  499.25
     17.0700	  628.00	  602.32	-1745.82	  499.18
     17.1700	  548.00	  602.24	-1825.74	  499.11
     17.2700	  607.00	  602.16	-1766.66	  499.03
     17.3700	  619.00	  602.19	-1754.69	  498.95
     17.4700	  611.00	  602.10	-1762.60	  498.86
     17.5700	  560.00	  602.00	-1813.50	  498.76
     17.6700	  570.00	  601.90	-1803.40	  498.66
     17.7700	  577.00	  601.79	-1796.29	  498.55
     17.8700	  611.00	  601.79	-1762.29	  498.44
     17.9700	  592.00	  601.68	-1781.18	  498.32
     18.0700	  574.00	  601.56	-1799.06	  498.19
     18.1700	  590.00	  601.43	-1782.93	  498.06
     18.2700	  570.00	  601.30	-1802.80	  497.92
     18.3700	  627.00	  601.16	-1745.66	  497.78
     18.4700	  578.00	  601.02	-1794.52	  497.63
     18.5700	  593.00	  600.88	-1779.38	  497.48
     18.6700	  562.00	  600.73	-1810.23	  497.32
     18.7700	  596.00	  600.57	-1776.07	  497.15
     18.8700	  570.00	  600.41	-1801.91	  496.99
     18.9700	  601.00	  600.25	-1770.75	  496.81
     19.0700	  604.00	  600.08	-1767.58	  496.63
     19.1700	  593.00	  599.91	-1778.41	  496.45
     19.2700	  590.00	  599.73	-1781.23	  496.26
     19.3700	  567.00	  599.55	-1804.05	  496.06
     19.4700	  565.00	  599.41	-1805.91	  495.87
     19.5700	  602.00	  599.22	-1768.72	  495.66
     19.6700	  566.00	  599.03	-1804.53	  495.45
     19.7700	  592.00	  598.83	-1778.33	  495.24
     19.8700	  592.00	  598.63	-1778.13	  495.02
     19.9700	  595.00	  598.43	-1774.93	  494.80
     20.0700	  600.00	  598.22	-1769.72	  494.58
     20.1700	  594.00	  598.01	-1775.51	  494.34
     20.2700	  531.00	  597.79	-1838.29	  494.11
     20.3700	  551.00	  597.57	-1818.07	  493.87
     20.4700	  574.00	  597.35	-1794.85	  493.63
     20.5700	  532.00	  597.13	-1836.63	  493.38
     20.6700	  555.00	  596.90	-1813.40	  493.13
     20.7700	  593.00	  596.67	-1775.17	  492.87
     20.8700	  565.00	  596.44	-1802.94	  492.61
     20.9700	  555.00	  596.20	-1812.70	  492.35
     21.0700	  583.00	  595.97	-1784.47	  492.08
     21.1700	  589.00	  595.73	-1778.23	  491.81
     21.2700	  592.00	  595.49	-1774.99	  491.53
     21.3700	  609.00	  595.25	-1757.75	  491.25
     21.4700	  598.00	  595.00	-1768.50	  490.97
     21.5700	  524.00	  594.76	-1842.26	  490.68
     21.6700	  614.00	  594.51	-1752.01	  490.39
     21.7700	  558.00	  594.27	-1807.77	  490.10
     21.8700	  569.00	  594.02	-1796.52	  489.80
     21.9700	  610.00	  593.94	-1755.44	  489.50
     22.0700	  582.00	  593.70	-1783.20	  489.20
     22.1700	  552.00	  593.46	-1812.96	  488.89
     22.2700	  569.00	  593.22	-1795.72	  488.58
     22.3700	  588.00	  592.99	-1776.49	  488.27
     22.4700	  624.00	  592.76	-1740.26	  487.95
     22.5700	  573.00	  592.54	-1791.04	  487.63
     22.6700	  610.00	  592.32	-1753.82	  487.31
     22.7700	  596.00	  592.12	-1767.62	  486.98
     22.8700	  576.00	  591.92	-1787.42	  486.65
     22.9700	  648.00	  591.74	-1715.24	  486.32
     23.0700	  558.00	  591.58	-1805.08	  485.99
     23.1700	  584.00	  591.44	-1778.94	  485.65
     23.2700	  635.00	  591.32	-1727.82	  485.31
     23.3700	  567.00	  591.25	-1795.75	  484.97
     23.4700	  580.00	  591.18	-1782.68	  484.62
     23.5700	  603.00	  591.21	-1759.71	  484.27
     23.6700	  559.00	  591.34	-1803.84	  483.92
     23.7700	  589.00	  591.61	-1774.11	  483.57
     23.8700	  566.00	  592.08	-1797.58	  483.22
     23.9700	  623.00	  592.88	-1741.38	  482.86
     24.0700	  596.00	  594.25	-1769.75	  482.50
     24.1700	  580.00	  596.52	-1788.02	  482.14
     24.2700	  618.00	  600.18	-1753.68	  481.77
     24.3700	  610.00	  605.78	-1767.28	  481.40
     24.4700	  636.00	  613.75	-1749.25	  481.03
     24.5700	  673.00	  624.11	-1722.61	  480.66
     24.6700	  629.00	  636.12	-1778.62	  480.29
     24.7700	  655.00	  647.70	-1764.20	  479.91
     24.8700	  726.00	  655.06	-1700.56	  479.54
     24.9700	  654.00	  653.63	-1771.13	  479.16
     25.0700	  648.00	  642.58	-1766.08	  478.78
     25.1700	  637.00	  627.34	-1761.84	  478.39
     25.2700	  630.00	  613.55	-1755.05	  478.01
     25.3700	  632.00	  603.35	-1742.85	  477.62
     25.4700	  635.00	  596.62	-1733.12	  477.23
     25.5700	  641.00	  592.48	-1722.98	  476.84
     25.6700	  626.00	  589.96	-1735.46	  476.45
     25.7700	  624.00	  588.37	-1735.87	  476.06
     25.8700	  617.00	  587.29	-1741.79	  475.66
     25.9700	  616.00	  586.51	-1742.01	  475.27
     26.0700	  634.00	  585.94	-1723.44	  474.87
     26.1700	  589.00	  585.53	-1768.03	  474.47
     26.2700	  638.00	  585.26	-1718.76	  474.07
     26.3700	  575.00	  585.10	-1781.60	  473.67
     26.4700	  614.00	  585.07	-1742.57	  473.26
     26.5700	  636.00	  585.17	-1720.67	  472.86
     26.6700	  632.00	  585.40	-1724.90	  472.45
     26.7700	  637.00	  585.80	-1720.30	  472.05
     26.8700	  656.00	  586.39	-1701.89	  471.64
     26.9700	  650.00	  587.22	-1708.72	  471.23
     27.0700	  609.00	  588.35	-1750.85	  470.82
     27.1700	  669.00	  589.90	-1692.40	  470.41
     27.2700	  637.00	  592.03	-1726.53	  469.99
     27.3700	  641.00	  595.09	-1725.59	  469.58
     27.4700	  649.00	  599.68	-1722.18	  469.16
     27.5700	  656.00	  606.96	-1722.46	  468.75
     27.6700	  712.00	  618.84	-1678.34	  468.33
     27.7700	  668.00	  638.20	-1741.70	  467.92
     27.8700	  710.00	  668.46	-1729.96	  467.50
     27.9700	  694.00	  712.11	-1789.61	  467.08
     28.0700	  752.00	  768.37	-1787.87	  466.66
     28.1700	  817.00	  830.57	-1785.07	  466.24
     28.2700	  962.00	  884.10	-1693.60	  465.82
     28.3700	 1025.00	  908.03	-1654.53	  465.40
     28.4700	  945.00	  891.21	-1717.71	  464.97
     28.5700	  827.00	  854.06	-1798.56	  464.55
     28.6700	  864.00	  828.85	-1736.35	  464.13
     28.7700	  747.00	  829.91	-1854.41	  463.71
     28.8700	  851.00	  852.31	-1772.81	  463.28
     28.9700	  851.00	  877.60	-1798.10	  462.86
     29.0700	  916.00	  879.82	-1735.32	  462.43
     29.1700	  879.00	  842.51	-1735.01	  462.01
     29.2700	  780.00	  778.81	-1770.31	  461.58
     29.3700	  724.00	  715.09	-1762.59	  461.16
     29.4700	  731.00	  665.54	-1706.04	  460.73
     29.5700	  681.00	  632.32	-1722.82	  460.30
     29.6700	  683.00	  612.11	-1700.61	  459.88
     29.7700	  639.00	  600.39	-1732.89	  459.45
     29.8700	  678.00	  593.52	-1687.02	  459.02
     29.9700	  672.00	  589.33	-1688.83	  458.60
     30.0700	  692.00	  586.79	-1666.29	  458.17
     30.1700	  629.00	  585.56	-1728.06	  457.74
     30.2700	  653.00	  585.78	-1704.28	  457.32
     30.3700	  630.00	  587.98	-1729.48	  456.89
     30.4700	  642.00	  593.12	-1722.62	  456.46
     30.5700	  688.00	  602.48	-1685.98	  456.04
     30.6700	  639.00	  617.07	-1749.57	  455.61
     30.7700	  640.00	  636.71	-1768.21	  455.18
     30.8700	  667.00	  658.88	-1763.38	  454.76
     30.9700	  673.00	  677.99	-1776.49	  454.33
     31.0700	  710.00	  685.76	-1747.26	  453.91
     31.1700	  692.00	  675.94	-1755.44	  453.48
     31.2700	  642.00	  652.57	-1782.07	  453.06
     31.3700	  622.00	  626.52	-1776.02	  452.63
     31.4700	  677.00	  604.89	-1699.39	  452.21
     31.5700	  609.00	  589.61	-1752.11	  451.78
     31.6700	  585.00	  579.90	-1766.40	  451.36
     31.7700	  596.00	  574.10	-1749.60	  450.93
     31.8700	  600.00	  570.64	-1742.14	  450.51
     31.9700	  598.00	  568.48	-1741.98	  450.09
     32.0700	  629.00	  567.04	-1709.54	  449.67
     32.1700	  569.00	  566.05	-1768.55	  449.25
     32.2700	  605.00	  565.38	-1731.88	  448.82
     32.3700	  604.00	  564.98	-1732.48	  448.40
     32.4700	  602.00	  564.83	-1734.33	  447.98
     32.5700	  616.00	  564.93	-1720.43	  447.57
     32.6700	  571.00	  565.30	-1765.80	  447.15
     32.7700	  563.00	  565.99	-1774.49	  446.73
     32.8700	  572.00	  567.05	-1766.55	  446.31
     32.9700	  535.00	  568.59	-1805.09	  445.90
     33.0700	  598.00	  570.83	-1744.33	  445.48
     33.1700	  504.00	  574.03	-1841.53	  445.07
     33.2700	  545.00	  578.84	-1805.34	  444.65
     33.3700	  576.00	  586.48	-1781.98	  444.24
     33.4700	  625.00	  599.12	-1745.62	  443.83
     33.5700	  627.00	  620.20	-1764.70	  443.41
     33.6700	  663.00	  654.28	-1762.78	  443.00
     33.7700	  742.00	  705.69	-1735.19	  442.59
     33.8700	  728.00	  775.36	-1818.86	  442.18
     33.9700	  875.00	  856.74	-1753.24	  441.78
     34.0700	  932.00	  932.76	-1772.26	  441.37
     34.1700	 1095.00	  976.30	-1652.80	  440.96
     34.2700	 1045.00	  962.23	-1688.73	  440.56
     34.3700	  970.00	  894.13	-1695.63	  440.16
     34.4700	  816.00	  805.10	-1760.60	  439.75
     34.5700	  747.00	  724.15	-1748.65	  439.35
     34.6700	  626.00	  662.91	-1808.41	  438.95
     34.7700	  634.00	  621.80	-1759.30	  438.55
     34.8700	  603.00	  596.34	-1764.84	  438.15
     34.9700	  568.00	  581.09	-1784.59	  437.76
     35.0700	  582.00	  571.73	-1761.23	  437.36
     35.1700	  558.00	  565.55	-1779.05	  436.96
     35.2700	  582.00	  561.11	-1750.61	  436.57
     35.3700	  548.00	  557.69	-1781.19	  436.18
     35.4700	  532.00	  555.42	-1794.92	  435.79
     35.5700	  587.00	  553.15	-1737.65	  435.40
     35.6700	  568.00	  551.24	-1754.74	  435.01
     35.7700	  556.00	  549.60	-1765.10	  434.62
     35.8700	  541.00	  548.18	-1778.68	  434.23
     35.9700	  538.00	  546.93	-1780.43	  433.85
     36.0700	  540.00	  545.82	-1777.32	  433.47
     36.1700	  559.00	  544.83	-1757.33	  433.08
     36.2700	  528.00	  543.94	-1787.44	  432.70
     36.3700	  569.00	  543.14	-1745.64	  432.32
     36.4700	  541.00	  542.41	-1772.91	  431.95
     36.5700	  518.00	  541.71	-1795.21	  431.57
     36.6700	  522.00	  541.12	-1790.62	  431.20
     36.7700	  455.00	  540.60	-1857.09	  430.82
     36.8700	  557.00	  540.15	-1754.65	  430.45
     36.9700	  499.00	  539.81	-1812.31	  430.08
     37.0700	  483.00	  539.64	-1828.14	  429.71
     37.1700	  509.00	  539.71	-1802.21	  429.34
     37.2700	  535.00	  540.36	-1776.86	  428.98
     37.3700	  523.00	  541.37	-1789.87	  428.61
     37.4700	  567.00	  543.06	-1747.56	  428.25
     37.5700	  529.00	  545.43	-1787.93	  427.89
     37.6700	  551.00	  548.22	-1768.72	  427.53
     37.7700	  536.00	  550.77	-1786.27	  427.17
     37.8700	  550.00	  552.13	-1773.63	  426.81
     37.9700	  576.00	  551.52	-1747.02	  426.46
     38.0700	  510.00	  549.12	-1810.62	  426.11
     38.1700	  501.00	  545.87	-1816.37	  425.75
     38.2700	  542.00	  542.52	-1772.02	  425.40
     38.3700	  519.00	  539.46	-1791.96	  425.06
     38.4700	  494.00	  536.94	-1814.44	  424.71
     38.5700	  518.00	  535.02	-1788.52	  424.37
     38.6700	  502.00	  533.61	-1803.11	  424.02
     38.7700	  536.00	  532.57	-1768.07	  423.68
     38.8700	  508.00	  531.78	-1795.28	  423.34
     38.9700	  552.00	  531.15	-1750.65	  423.00
     39.0700	  463.00	  530.62	-1839.12	  422.67
     39.1700	  526.00	  530.15	-1775.65	  422.33
     39.2700	  524.00	  529.72	-1777.22	  422.00
     39.3700	  496.00	  529.33	-1804.83	  421.67
     39.4700	  555.00	  528.95	-1745.45	  421.34
     39.5700	  551.00	  528.48	-1748.98	  421.01
     39.6700	  523.00	  528.20	-1776.70	  420.69
     39.7700	  503.00	  527.88	-1796.38	  420.37
     39.8700	  541.00	  527.57	-1758.07	  420.04
     39.9700	  552.00	  527.28	-1746.78	  419.72
     40.0700	  564.00	  527.54	-1735.04	  419.41
     40.1700	  503.00	  527.28	-1795.78	  419.09
     40.2700	  535.00	  527.03	-1763.53	  418.78
     40.3700	  483.00	  526.81	-1815.31	  418.46
     40.4700	  507.00	  526.48	-1790.98	  418.15
     40.5700	  524.00	  526.29	-1773.79	  417.85
     40.6700	  549.00	  526.12	-1748.62	  417.54
     40.7700	  523.00	  525.96	-1774.46	  417.23
     40.8700	  507.00	  525.84	-1790.34	  416.93
     40.9700	  548.00	  525.74	-1749.24	  416.63
     41.0700	  532.00	  525.67	-1765.17	  416.33
     41.1700	  463.00	  525.65	-1834.15	  416.04
     41.2700	  526.00	  525.67	-1771.17	  415.74
     41.3700	  514.00	  525.76	-1783.26	  415.45
     41.4700	  547.00	  525.92	-1750.42	  415.16
     41.5700	  478.00	  526.18	-1819.68	  414.87
     41.6700	  520.00	  526.63	-1778.13	  414.58
     41.7700	  534.00	  527.28	-1764.78	  414.30
     41.8700	  530.00	  528.20	-1769.70	  414.01
     41.9700	  487.00	  529.78	-1814.28	  413.73
     42.0700	  525.00	  532.24	-1778.74	  413.45
     42.1700	  500.00	  536.32	-1807.82	  413.18
     42.2700	  477.00	  542.92	-1837.42	  412.90
     42.3700	  494.00	  552.99	-1830.49	  412.63
     42.4700	  559.00	  567.12	-1779.62	  412.36
     42.5700	  550.00	  584.93	-1806.43	  412.09
     42.6700	  550.00	  604.28	-1825.78	  411.82
     42.7700	  612.00	  620.94	-1780.44	  411.56
     42.8700	  590.00	  628.50	-1810.00	  411.30
     42.9700	  587.00	  623.19	-1807.69	  411.04
     43.0700	  578.00	  607.32	-1800.82	  410.78
     43.1700	  582.00	  587.27	-1776.77	  410.52
     43.2700	  554.00	  568.35	-1785.84	  410.27
     43.3700	  553.00	  553.08	-1771.58	  410.02
     43.4700	  532.00	  542.01	-1781.51	  409.77
     43.5700	  475.00	  534.61	-1831.11	  409.52
     43.6700	  516.00	  529.92	-1785.42	  409.27
     43.7700	  521.00	  526.98	-1777.48	  409.03
     43.8700	  518.00	  525.09	-1778.59	  408.79
     43.9700	  512.00	  523.99	-1783.49	  408.55
     44.0700	  520.00	  523.04	-1774.54	  408.31
     44.1700	  548.00	  522.29	-1745.79	  408.07
     44.2700	  478.00	  521.69	-1815.19	  407.84
     44.3700	  499.00	  521.19	-1793.69	  407.61
     44.4700	  473.00	  520.78	-1819.28	  407.38
     44.5700	  528.00	  520.43	-1763.93	  407.15
     44.6700	  547.00	  520.15	-1744.65	  406.93
     44.7700	  499.00	  519.91	-1792.41	  406.71
     44.8700	  533.00	  519.71	-1758.21	  406.48
     44.9700	  543.00	  519.55	-1748.05	  406.27
     45.0700	  493.00	  519.43	-1797.93	  406.05
     45.1700	  535.00	  519.34	-1755.84	  405.84
     45.2700	  517.00	  519.28	-1773.78	  405.62
     45.3700	  532.00	  519.25	-1758.75	  405.41
     45.4700	  518.00	  519.32	-1772.82	  405.20
     45.5700	  484.00	  519.36	-1806.86	  405.00
     45.6700	  535.00	  519.43	-1755.93	  404.80
     45.7700	  542.00	  519.57	-1749.07	  404.59
     45.8700	  547.00	  519.70	-1744.20	  404.39
     45.9700	  469.00	  519.87	-1822.37	  404.20
     46.0700	  574.00	  520.09	-1717.59	  404.00
     46.1700	  520.00	  520.34	-1771.84	  403.81
     46.2700	  543.00	  520.65	-1749.15	  403.62
     46.3700	  512.00	  521.02	-1780.52	  403.43
     46.4700	  509.00	  521.45	-1783.95	  403.24
     46.5700	  549.00	  521.96	-1744.46	  403.06
     46.6700	  551.00	  522.41	-1742.91	  402.87
     46.7700	  489.00	  523.14	-1805.64	  402.69
     46.8700	  518.00	  524.01	-1777.51	  402.51
     46.9700	  496.00	  525.11	-1800.61	  402.34
     47.0700	  549.00	  526.55	-1749.05	  402.16
     47.1700	  507.00	  528.53	-1793.03	  401.99
     47.2700	  553.00	  531.41	-1749.91	  401.82
     47.3700	  540.00	  535.67	-1767.17	  401.65
     47.4700	  553.00	  541.95	-1760.45	  401.49
     47.5700	  497.00	  550.84	-1825.34	  401.32
     47.6700	  584.00	  562.63	-1750.13	  401.16
     47.7700	  576.00	  576.99	-1772.49	  401.00
     47.8700	  610.00	  592.49	-1753.99	  400.85
     47.9700	  588.00	  606.74	-1790.24	  400.69
     48.0700	  602.00	  614.96	-1784.46	  400.54
     48.1700	  582.00	  614.74	-1804.24	  400.39
     48.2700	  662.00	  606.87	-1716.37	  400.24
     48.3700	  597.00	  595.23	-1769.73	  400.09
     48.4700	  604.00	  583.62	-1751.12	  399.95
     48.5700	  549.00	  574.34	-1796.84	  399.80
     48.6700	  592.00	  568.36	-1747.86	  399.66
     48.7700	  547.00	  565.78	-1790.28	  399.52
     48.8700	  567.00	  566.30	-1770.80	  399.39
     48.9700	  571.00	  569.49	-1769.99	  399.25
     49.0700	  569.00	  575.17	-1777.67	  399.12
     49.1700	  603.00	  583.54	-1752.04	  398.99
     49.2700	  550.00	  595.53	-1817.03	  398.86
     49.3700	  559.00	  613.29	-1825.79	  398.73
     49.4700	  624.00	  641.01	-1788.51	  398.61
     49.5700	  601.00	  685.88	-1856.38	  398.49
     49.6700	  644.00	  758.62	-1886.12	  398.37
     49.7700	  798.00	  872.70	-1846.20	  398.25
     49.8700	  974.00	 1040.96	-1838.46	  398.13
     49.9700	 1157.00	 1269.66	-1884.16	  398.02
     50.0700	 1573.00	 1550.35	-1748.85	  397.90
     50.1700	 1830.00	 1851.40	-1792.90	  397.79
     50.2700	 2180.00	 2111.94	-1703.44	  397.69
     50.3700	 2325.00	 2250.64	-1697.14	  397.58
     50.4700	 2217.00	 2209.60	-1764.10	  397.47
     50.5700	 2107.00	 2005.42	-1669.92	  397.37
     50.6700	 1725.00	 1716.93	-1763.43	  397.27
     50.7700	 1338.00	 1422.00	-1855.50	  397.17
     50.8700	 1049.00	 1168.19	-1890.69	  397.08
     50.9700	  892.00	  974.75	-1854.25	  396.98
     51.0700	  753.00	  841.60	-1860.10	  396.89
     51.1700	  707.00	  757.39	-1821.89	  396.80
     51.2700	  633.00	  706.70	-1845.20	  396.71
     51.3700	  645.00	  675.12	-1801.62	  396.62
     51.4700	  678.00	  652.34	-1745.84	  396.54
     51.5700	  654.00	  633.21	-1750.71	  396.45
     51.6700	  588.00	  616.39	-1799.89	  396.37
     51.7700	  606.00	  601.99	-1767.49	  396.29
     51.8700	  636.00	  590.27	-1725.77	  396.22
     51.9700	  594.00	  581.25	-1758.75	  396.14
     52.0700	  590.00	  574.79	-1756.29	  396.07
     52.1700	  589.00	  570.55	-1753.05	  395.99
     52.2700	  568.00	  568.21	-1771.71	  395.92
     52.3700	  591.00	  567.54	-1748.04	  395.86
     52.4700	  582.00	  568.48	-1757.98	  395.79
     52.5700	  597.00	  571.26	-1745.76	  395.72
     52.6700	  600.00	  576.53	-1748.03	  395.66
     52.7700	  633.00	  585.58	-1724.08	  395.60
     52.8700	  633.00	  600.52	-1739.02	  395.54
     52.9700	  621.00	  624.35	-1774.85	  395.48
     53.0700	  687.00	  660.72	-1745.22	  395.43
     53.1700	  723.00	  713.19	-1761.69	  395.38
     53.2700	  819.00	  783.88	-1736.38	  395.32
     53.3700	  930.00	  871.79	-1713.29	  395.27
     53.4700	 1010.00	  970.64	-1732.14	  395.22
     53.5700	 1098.00	 1067.05	-1740.55	  395.18
     53.6700	 1175.00	 1139.76	-1736.26	  395.13
     53.7700	 1156.00	 1165.67	-1781.17	  395.09
     53.8700	 1135.00	 1134.50	-1771.00	  395.05
     53.9700	 1111.00	 1058.17	-1718.67	  395.01
     54.0700	  943.00	  960.69	-1789.19	  394.97
     54.1700	  870.00	  862.96	-1764.46	  394.93
     54.2700	  765.00	  777.46	-1783.96	  394.90
     54.3700	  700.00	  709.65	-1781.15	  394.86
     54.4700	  643.00	  660.03	-1788.53	  394.83
     54.5700	  609.00	  626.21	-1788.71	  394.80
     54.6700	  633.00	  604.53	-1743.03	  394.78
     54.7700	  604.00	  591.37	-1758.87	  394.75
     54.8700	  575.00	  583.81	-1780.31	  394.72
     54.9700	  562.00	  579.83	-1789.33	  394.70
     55.0700	  581.00	  578.20	-1768.70	  394.68
     55.1700	  611.00	  578.24	-1738.74	  394.66
     55.2700	  554.00	  579.65	-1797.15	  394.64
     55.3700	  597.00	  582.31	-1756.81	  394.62
     55.4700	  548.00	  586.26	-1809.76	  394.61
     55.5700	  575.00	  591.67	-1788.17	  394.59
     55.6700	  577.00	  598.88	-1793.38	  394.58
     55.7700	  620.00	  608.55	-1760.05	  394.57
     55.8700	  647.00	  621.87	-1746.37	  394.56
     55.9700	  644.00	  641.06	-1768.56	  394.55
     56.0700	  663.00	  669.91	-1778.41	  394.55
     56.1700	  708.00	  714.41	-1777.91	  394.54
     56.2700	  724.00	  783.17	-1830.67	  394.54
     56.3700	  819.00	  886.83	-1839.33	  394.54
     56.4700	  998.00	 1036.30	-1809.80	  394.53
     56.5700	 1160.00	 1239.35	-1850.85	  394.54
     56.6700	 1455.00	 1495.92	-1812.42	  394.54
     56.7700	 1834.00	 1793.11	-1730.61	  394.54
     56.8700	 2086.00	 2099.78	-1785.28	  394.55
     56.9700	 2327.00	 2363.28	-1807.78	  394.55
     57.0700	 2527.00	 2516.04	-1760.54	  394.56
     57.1700	 2496.00	 2506.49	-1781.99	  394.57
     57.2700	 2289.00	 2338.01	-1820.51	  394.58
     57.3700	 2040.00	 2066.91	-1798.41	  394.59
     57.4700	 1784.00	 1760.96	-1748.46	  394.61
     57.5700	 1428.00	 1470.59	-1814.09	  394.62
     57.6700	 1222.00	 1224.20	-1773.70	  394.64
     57.7700	  932.00	 1032.90	-1872.40	  394.65
     57.8700	  868.00	  895.80	-1799.30	  394.67
     57.9700	  798.00	  805.13	-1778.63	  394.69
     58.0700	  695.00	  750.93	-1827.43	  394.71
     58.1700	  733.00	  724.23	-1762.73	  394.73
     58.2700	  752.00	  718.70	-1738.20	  394.76
     58.3700	  736.00	  730.73	-1766.23	  394.78
     58.4700	  780.00	  758.61	-1750.11	  394.81
     58.5700	  775.00	  801.35	-1797.85	  394.84
     58.6700	  863.00	  857.24	-1765.74	  394.86
     58.7700	  985.00	  922.61	-1709.11	  394.89
     58.8700	 1038.00	  991.10	-1724.60	  394.92
     58.9700	 1119.00	 1055.21	-1707.71	  394.96
     59.0700	 1254.00	 1109.42	-1626.92	  394.99
     59.1700	 1265.00	 1150.53	-1657.03	  395.02
     59.2700	 1232.00	 1174.85	-1714.35	  395.06
     59.3700	 1320.00	 1179.09	-1630.59	  395.09
     59.4700	 1312.00	 1166.10	-1625.60	  395.13
     59.5700	 1298.00	 1146.33	-1619.83	  395.17
     59.6700	 1174.00	 1131.69	-1729.19	  395.21
     59.7700	 1221.00	 1130.24	-1680.74	  395.25
     59.8700	 1224.00	 1146.31	-1693.81	  395.29
     59.9700	 1217.00	 1182.99	-1737.49	  395.33
     60.0700	 1298.00	 1242.06	-1715.56	  395.38
     60.1700	 1354.00	 1320.34	-1737.84	  395.42
     60.2700	 1544.00	 1405.96	-1633.46	  395.47
     60.3700	 1558.00	 1477.55	-1691.05	  395.51
     60.4700	 1567.00	 1508.46	-1712.96	  395.56
     60.5700	 1496.00	 1479.52	-1755.02	  395.61
     60.6700	 1415.00	 1392.66	-1749.16	  395.66
     60.7700	 1329.00	 1268.79	-1711.29	  395.71
     60.8700	 1198.00	 1133.09	-1706.59	  395.76
     60.9700	 1000.00	 1004.93	-1776.43	  395.81
     61.0700	  919.00	  896.02	-1748.52	  395.86
     61.1700	  775.00	  811.85	-1808.35	  395.91
     61.2700	  739.00	  753.60	-1786.10	  395.97
     61.3700	  718.00	  720.02	-1773.52	  396.02
     61.4700	  747.00	  709.33	-1733.83	  396.08
     61.5700	  752.00	  720.51	-1740.01	  396.14
     61.6700	  756.00	  753.73	-1769.23	  396.19
     61.7700	  827.00	  809.79	-1754.29	  396.25
     61.8700	  841.00	  888.86	-1819.36	  396.31
     61.9700	  882.00	  988.76	-1878.26	  396.37
     62.0700	 1030.00	 1103.28	-1844.78	  396.43
     62.1700	 1167.00	 1220.68	-1825.18	  396.49
     62.2700	 1282.00	 1322.62	-1812.12	  396.55
     62.3700	 1308.00	 1386.27	-1849.77	  396.62
     62.4700	 1284.00	 1392.77	-1880.27	  396.68
     62.5700	 1294.00	 1339.36	-1816.86	  396.74
     62.6700	 1176.00	 1241.56	-1837.06	  396.81
     62.7700	 1042.00	 1122.39	-1851.89	  396.87
     62.8700	 1031.00	 1001.53	-1742.03	  396.94
     62.9700	  778.00	  892.14	-1885.64	  397.01
     63.0700	  784.00	  801.21	-1788.71	  397.07
     63.1700	  729.00	  730.86	-1773.36	  397.14
     63.2700	  601.00	  679.86	-1850.36	  397.21
     63.3700	  628.00	  645.05	-1788.55	  397.28
     63.4700	  647.00	  622.78	-1747.28	  397.35
     63.5700	  621.00	  609.74	-1760.24	  397.42
     63.6700	  607.00	  603.55	-1768.05	  397.49
     63.7700	  597.00	  602.97	-1777.47	  397.56
     63.8700	  665.00	  607.76	-1714.26	  397.63
     63.9700	  676.00	  618.63	-1714.13	  397.70
     64.0700	  644.00	  636.64	-1764.14	  397.77
     64.1700	  690.00	  663.25	-1744.75	  397.84
     64.2700	  822.00	  699.52	-1649.02	  397.92
     64.3700	  786.00	  745.64	-1731.14	  397.99
     64.4700	  875.00	  800.31	-1696.81	  398.06
     64.5700	  890.00	  860.16	-1741.66	  398.14
     64.6700	  957.00	  919.35	-1733.85	  398.21
     64.7700	 1032.00	  969.10	-1708.60	  398.28
     64.8700	 1056.00	 1000.54	-1716.04	  398.36
     64.9700	 1004.00	 1007.69	-1775.19	  398.43
     65.0700	 1041.00	  990.23	-1720.73	  398.51
     65.1700	  948.00	  953.12	-1776.62	  398.59
     65.2700	  908.00	  904.29	-1767.79	  398.66
     65.3700	  812.00	  851.87	-1811.37	  398.74
     65.4700	  816.00	  802.03	-1757.53	  398.81
     65.5700	  754.00	  757.62	-1775.12	  398.89
     65.6700	  689.00	  720.50	-1803.00	  398.97
     65.7700	  670.00	  689.90	-1791.40	  399.04
     65.8700	  651.00	  664.69	-1785.19	  399.12
     65.9700	  636.00	  644.43	-1779.93	  399.20
     66.0700	  647.00	  628.74	-1753.24	  399.28
     66.1700	  613.00	  616.84	-1775.34	  399.35
     66.2700	  580.00	  608.32	-1799.82	  399.43
     66.3700	  589.00	  602.74	-1785.24	  399.51
     66.4700	  587.00	  599.75	-1784.25	  399.59
     66.5700	  608.00	  599.13	-1762.63	  399.66
     66.6700	  630.00	  600.85	-1742.35	  399.74
     66.7700	  563.00	  604.83	-1813.33	  399.82
     66.8700	  641.00	  611.53	-1742.03	  399.90
     66.9700	  625.00	  621.82	-1768.32	  399.98
     67.0700	  610.00	  637.24	-1798.74	  400.05
     67.1700	  621.00	  660.32	-1810.82	  400.13
     67.2700	  686.00	  694.82	-1780.32	  400.21
     67.3700	  759.00	  745.61	-1758.11	  400.29
     67.4700	  831.00	  818.72	-1759.22	  400.37
     67.5700	  897.00	  920.41	-1794.91	  400.44
     67.6700	 1056.00	 1056.00	-1771.50	  400.52
     67.7700	 1163.00	 1227.97	-1836.47	  400.60
     67.8700	 1454.00	 1434.12	-1751.62	  400.67
     67.9700	 1569.00	 1665.61	-1868.11	  400.75
     68.0700	 1909.00	 1905.41	-1767.91	  400.83
     68.1700	 2152.00	 2126.94	-1746.44	  400.91
     68.2700	 2326.00	 2295.13	-1740.63	  400.98
     68.3700	 2434.00	 2374.18	-1711.68	  401.06
     68.4700	 2351.00	 2343.97	-1764.47	  401.13
     68.5700	 2231.00	 2212.52	-1753.02	  401.21
     68.6700	 2011.00	 2010.74	-1771.24	  401.29
     68.7700	 1872.00	 1775.61	-1675.11	  401.36
     68.8700	 1451.00	 1538.03	-1858.53	  401.44
     68.9700	 1243.00	 1319.30	-1847.80	  401.51
     69.0700	 1112.00	 1131.73	-1791.23	  401.59
     69.1700	  928.00	  980.22	-1823.72	  401.66
     69.2700	  859.00	  864.19	-1776.69	  401.73
     69.3700	  739.00	  779.36	-1811.86	  401.81
     69.4700	  748.00	  719.73	-1743.23	  401.88
     69.5700	  652.00	  679.00	-1798.50	  401.95
     69.6700	  670.00	  651.65	-1753.15	  402.03
     69.7700	  648.00	  633.36	-1756.86	  402.10
     69.8700	  579.00	  621.03	-1813.53	  402.17
     69.9700	  614.00	  612.61	-1770.11	  402.24
     70.0700	  633.00	  606.79	-1745.29	  402.31
     70.1700	  600.00	  602.82	-1774.32	  402.38
     70.2700	  593.00	  600.30	-1778.80	  402.45
     70.3700	  595.00	  599.02	-1775.52	  402.52
     70.4700	  587.00	  599.72	-1784.22	  402.59
     70.5700	  622.00	  600.89	-1750.39	  402.66
     70.6700	  619.00	  603.54	-1756.04	  402.72
     70.7700	  646.00	  608.13	-1733.64	  402.79
     70.8700	  653.00	  615.45	-1733.95	  402.86
     70.9700	  672.00	  626.71	-1726.21	  402.92
     71.0700	  636.00	  643.77	-1779.27	  402.99
     71.1700	  679.00	  669.20	-1761.70	  403.05
     71.2700	  709.00	  706.29	-1768.79	  403.12
     71.3700	  744.00	  758.86	-1786.36	  403.18
     71.4700	  838.00	  830.81	-1764.31	  403.24
     71.5700	  953.00	  925.41	-1743.91	  403.30
     71.6700	  981.00	 1044.29	-1834.79	  403.37
     71.7700	 1201.00	 1186.36	-1756.86	  403.43
     71.8700	 1304.00	 1346.81	-1814.31	  403.49
     71.9700	 1542.00	 1516.15	-1745.65	  403.54
     72.0700	 1629.00	 1679.62	-1822.12	  403.60
     72.1700	 1731.00	 1817.07	-1857.57	  403.66
     72.2700	 1896.00	 1905.55	-1781.05	  403.72
     72.3700	 1844.00	 1926.52	-1854.02	  403.77
     72.4700	 1811.00	 1875.09	-1835.59	  403.83
     72.5700	 1709.00	 1762.91	-1825.41	  403.88
     72.6700	 1670.00	 1611.52	-1713.02	  403.94
     72.7700	 1449.00	 1443.26	-1765.76	  403.99
     72.8700	 1254.00	 1276.05	-1793.55	  404.04
     72.9700	 1161.00	 1122.28	-1732.78	  404.09
     73.0700	  966.00	  989.18	-1794.68	  404.14
     73.1700	  913.00	  879.75	-1738.25	  404.19
     73.2700	  823.00	  793.77	-1742.27	  404.24
     73.3700	  792.00	  728.83	-1708.33	  404.29
     73.4700	  754.00	  681.38	-1698.88	  404.33
     73.5700	  702.00	  647.53	-1717.03	  404.38
     73.6700	  697.00	  623.75	-1698.25	  404.42
     73.7700	  661.00	  607.10	-1717.60	  404.47
     73.8700	  630.00	  595.36	-1736.86	  404.51
     73.9700	  632.00	  586.99	-1726.49	  404.55
     74.0700	  583.00	  580.96	-1769.46	  404.59
     74.1700	  603.00	  576.60	-1745.10	  404.63
     74.2700	  556.00	  572.96	-1788.46	  404.67
     74.3700	  624.00	  570.83	-1718.33	  404.71
     74.4700	  575.00	  569.45	-1765.95	  404.74
     74.5700	  571.00	  568.62	-1769.12	  404.78
     74.6700	  649.00	  568.12	-1690.62	  404.81
     74.7700	  588.00	  567.72	-1751.22	  404.84
     74.8700	  669.00	  567.19	-1669.69	  404.88
     74.9700	  624.00	  566.32	-1713.82	  404.91
     75.0700	  625.00	  565.04	-1711.54	  404.94
     75.1700	  654.00	  563.44	-1680.94	  404.96
     75.2700	  604.00	  561.77	-1729.27	  404.99
     75.3700	  625.00	  560.32	-1706.82	  405.02
     75.4700	  596.00	  559.41	-1734.91	  405.04
     75.5700	  583.00	  559.41	-1747.91	  405.07
     75.6700	  593.00	  560.67	-1739.17	  405.09
     75.7700	  572.00	  563.59	-1763.09	  405.11
     75.8700	  581.00	  568.60	-1759.10	  405.13
     75.9700	  611.00	  576.08	-1736.58	  405.15
     76.0700	  612.00	  586.32	-1745.82	  405.17
     76.1700	  644.00	  599.46	-1726.96	  405.18
     76.2700	  681.00	  615.32	-1705.82	  405.20
     76.3700	  637.00	  633.53	-1768.03	  405.21
     76.4700	  667.00	  653.14	-1757.64	  405.22
     76.5700	  679.00	  672.77	-1765.27	  405.23
     76.6700	  710.00	  690.55	-1752.05	  405.24
     76.7700	  732.00	  704.16	-1743.66	  405.25
     76.8700	  682.00	  711.26	-1800.76	  405.26
     76.9700	  704.00	  710.59	-1778.09	  405.26
     77.0700	  711.00	  702.12	-1762.62	  405.27
     77.1700	  677.00	  687.40	-1781.90	  405.27
     77.2700	  656.00	  668.71	-1784.21	  405.27
     77.3700	  656.00	  648.31	-1763.81	  405.27
     77.4700	  626.00	  628.03	-1773.53	  405.27
     77.5700	  579.00	  609.17	-1801.67	  405.26
     77.6700	  570.00	  592.56	-1794.06	  405.26
     77.7700	  516.00	  578.59	-1834.09	  405.25
     77.8700	  552.00	  567.33	-1786.83	  405.24
     77.9700	  550.00	  558.58	-1780.08	  405.24
     78.0700	  560.00	  552.01	-1763.51	  405.23
     78.1700	  539.00	  547.15	-1779.65	  405.21
     78.2700	  551.00	  543.71	-1764.21	  405.20
     78.3700	  557.00	  541.27	-1755.77	  405.18
     78.4700	  509.00	  539.34	-1801.84	  405.17
     78.5700	  515.00	  538.14	-1794.64	  405.15
     78.6700	  513.00	  537.28	-1795.78	  405.13
     78.7700	  555.00	  536.68	-1753.18	  405.11
     78.8700	  500.00	  536.27	-1807.77	  405.08
     78.9700	  544.00	  536.01	-1763.51	  405.06
     79.0700	  544.00	  535.91	-1763.41	  405.03
     79.1700	  565.00	  535.95	-1742.45	  405.00
     79.2700	  549.00	  536.15	-1758.65	  404.98
     79.3700	  483.00	  536.54	-1825.04	  404.94
     79.4700	  587.00	  537.13	-1721.63	  404.91
     79.5700	  534.00	  537.96	-1775.46	  404.88
     79.6700	  550.00	  539.08	-1760.58	  404.84
     79.7700	  527.00	  540.52	-1785.02	  404.80
     79.8700	  494.00	  542.35	-1819.85	  404.76
     79.9700	  517.00	  544.62	-1799.12	  404.72
     80.0700	  607.00	  547.41	-1711.91	  404.68
     80.1700	  538.00	  550.82	-1784.32	  404.63
     80.2700	  574.00	  554.93	-1752.43	  404.59
     80.3700	  577.00	  559.85	-1754.35	  404.54
     80.4700	  611.00	  565.72	-1726.22	  404.49
     80.5700	  570.00	  572.68	-1774.18	  404.44
     80.6700	  592.00	  580.91	-1760.41	  404.38
     80.7700	  609.00	  590.54	-1753.04	  404.33
     80.8700	  636.00	  601.60	-1737.10	  404.27
     80.9700	  596.00	  613.74	-1789.24	  404.21
     81.0700	  615.00	  627.01	-1783.51	  404.15
     81.1700	  622.00	  640.65	-1790.15	  404.09
     81.2700	  681.00	  653.95	-1744.45	  404.03
     81.3700	  711.00	  666.23	-1726.73	  403.96
     81.4700	  712.00	  676.93	-1736.43	  403.89
     81.5700	  687.00	  685.65	-1770.15	  403.82
     81.6700	  763.00	  692.11	-1700.61	  403.75
     81.7700	  737.00	  696.12	-1730.62	  403.68
     81.8700	  794.00	  697.56	-1675.06	  403.60
     81.9700	  788.00	  696.29	-1679.79	  403.53
     82.0700	  744.00	  692.20	-1719.70	  403.45
     82.1700	  700.00	  685.41	-1756.91	  403.37
     82.2700	  702.00	  676.31	-1745.81	  403.28
     82.3700	  760.00	  665.56	-1677.06	  403.20
     82.4700	  646.00	  653.81	-1779.31	  403.11
     82.5700	  634.00	  641.58	-1779.08	  403.02
     82.6700	  650.00	  629.19	-1750.69	  402.93
     82.7700	  615.00	  616.97	-1773.47	  402.84
     82.8700	  641.00	  605.27	-1735.77	  402.75
     82.9700	  579.00	  594.47	-1786.97	  402.65
     83.0700	  567.00	  584.94	-1789.44	  402.55
     83.1700	  598.00	  576.97	-1750.47	  402.45
     83.2700	  575.00	  570.73	-1767.23	  402.35
     83.3700	  523.00	  566.27	-1814.77	  402.25
     83.4700	  526.00	  563.60	-1809.10	  402.14
     83.5700	  543.00	  562.60	-1791.10	  402.03
     83.6700	  571.00	  563.11	-1763.61	  401.92
     83.7700	  544.00	  564.87	-1792.37	  401.81
     83.8700	  550.00	  567.56	-1789.06	  401.70
     83.9700	  581.00	  570.77	-1761.27	  401.58
     84.0700	  573.00	  574.04	-1772.54	  401.46
     84.1700	  590.00	  576.84	-1758.34	  401.34
     84.2700	  554.00	  578.66	-1796.16	  401.22
     84.3700	  536.00	  579.08	-1814.58	  401.10
     84.4700	  589.00	  577.83	-1760.33	  400.97
     84.5700	  551.00	  575.10	-1795.60	  400.84
     84.6700	  553.00	  571.21	-1789.71	  400.71
     84.7700	  576.00	  566.55	-1762.05	  400.58
     84.8700	  554.00	  561.53	-1779.03	  400.45
     84.9700	  567.00	  556.52	-1761.02	  400.31
     85.0700	  521.00	  551.78	-1802.28	  400.17
     85.1700	  497.00	  547.52	-1822.02	  400.03
     85.2700	  559.00	  543.84	-1756.34	  399.89
     85.3700	  558.00	  540.80	-1754.30	  399.75
     85.4700	  504.00	  538.39	-1805.89	  399.60
     85.5700	  526.00	  536.58	-1782.08	  399.45
     85.6700	  506.00	  535.32	-1800.82	  399.30
     85.7700	  533.00	  534.53	-1773.03	  399.15
     85.8700	  535.00	  534.15	-1770.65	  399.00
     85.9700	  557.00	  534.18	-1748.68	  398.84
     86.0700	  509.00	  534.59	-1797.09	  398.68
     86.1700	  539.00	  535.40	-1767.90	  398.52
     86.2700	  513.00	  536.67	-1795.17	  398.36
     86.3700	  535.00	  538.48	-1774.98	  398.19
     86.4700	  508.00	  540.94	-1804.44	  398.03
     86.5700	  531.00	  544.19	-1784.69	  397.86
     86.6700	  541.00	  548.35	-1778.85	  397.68
     86.7700	  545.00	  553.55	-1780.05	  397.51
     86.8700	  539.00	  559.92	-1792.42	  397.34
     86.9700	  542.00	  567.48	-1796.98	  397.16
     87.0700	  573.00	  576.22	-1774.72	  396.98
     87.1700	  577.00	  586.00	-1780.50	  396.80
     87.2700	  566.00	  596.56	-1802.06	  396.61
     87.3700	  547.00	  607.49	-1831.99	  396.43
     87.4700	  584.00	  618.24	-1805.74	  396.24
     87.5700	  636.00	  628.07	-1763.57	  396.05
     87.6700	  638.00	  636.16	-1769.66	  395.86
     87.7700	  643.00	  641.67	-1770.17	  395.66
     87.8700	  595.00	  643.96	-1820.46	  395.47
     87.9700	  655.00	  642.78	-1759.28	  395.27
     88.0700	  689.00	  638.40	-1720.90	  395.07
     88.1700	  619.00	  631.49	-1783.99	  394.87
     88.2700	  623.00	  622.97	-1771.47	  394.66
     88.3700	  636.00	  613.74	-1749.24	  394.45
     88.4700	  581.00	  604.64	-1795.14	  394.24
     88.5700	  565.00	  596.36	-1802.86	  394.03
     88.6700	  606.00	  589.43	-1754.93	  393.82
     88.7700	  556.00	  584.23	-1799.73	  393.60
     88.8700	  565.00	  580.95	-1787.45	  393.39
     88.9700	  540.00	  579.21	-1810.71	  393.17
     89.0700	  570.00	  579.75	-1781.25	  392.95
     89.1700	  563.00	  581.90	-1790.40	  392.72
     89.2700	  657.00	  585.29	-1699.79	  392.50
     89.3700	  613.00	  589.43	-1747.93	  392.27
     89.4700	  607.00	  593.77	-1758.27	  392.04
     89.5700	  630.00	  597.69	-1739.19	  391.81
     89.6700	  594.00	  600.56	-1778.06	  391.57
     89.7700	  619.00	  601.86	-1754.36	  391.34
     89.8700	  603.00	  601.24	-1769.74	  391.10
     89.9700	  573.00	  598.67	-1797.17	  390.86
     90.0700	  619.00	  594.38	-1746.88	  390.62
     90.1700	  600.00	  588.80	-1760.30	  390.37
     90.2700	  519.00	  582.41	-1834.91	  390.12
     90.3700	  604.00	  575.68	-1743.18	  389.88
     90.4700	  570.00	  568.99	-1770.49	  389.62
     90.5700	  529.00	  562.66	-1805.16	  389.37
     90.6700	  536.00	  556.91	-1792.41	  389.12
     90.7700	  516.00	  551.87	-1807.37	  388.86
     90.8700	  546.00	  547.63	-1773.13	  388.60
     90.9700	  515.00	  544.20	-1800.70	  388.34
     91.0700	  521.00	  541.54	-1792.04	  388.08
     91.1700	  509.00	  539.61	-1802.11	  387.81
     91.2700	  526.00	  538.33	-1783.83	  387.54
     91.3700	  520.00	  537.65	-1789.15	  387.28
     91.4700	  518.00	  537.52	-1791.02	  387.00
     91.5700	  504.00	  537.90	-1805.40	  386.73
     91.6700	  531.00	  538.82	-1779.32	  386.46
     91.7700	  512.00	  540.31	-1799.81	  386.18
     91.8700	  543.00	  542.45	-1770.95	  385.90
     91.9700	  468.00	  545.35	-1848.85	  385.62
     92.0700	  561.00	  549.15	-1759.65	  385.34
     92.1700	  520.00	  554.00	-1805.50	  385.05
     92.2700	  512.00	  560.08	-1819.58	  384.76
     92.3700	  530.00	  567.53	-1809.03	  384.47
     92.4700	  534.00	  576.49	-1813.99	  384.18
     92.5700	  566.00	  587.03	-1792.53	  383.89
     92.6700	  587.00	  599.18	-1783.68	  383.60
     92.7700	  604.00	  612.89	-1780.39	  383.30
     92.8700	  602.00	  628.00	-1797.50	  383.00
     92.9700	  635.00	  644.27	-1780.77	  382.70
     93.0700	  597.00	  661.32	-1835.82	  382.40
     93.1700	  696.00	  678.68	-1754.18	  382.09
     93.2700	  638.00	  695.77	-1829.27	  381.79
     93.3700	  651.00	  711.98	-1832.48	  381.48
     93.4700	  744.00	  726.82	-1754.32	  381.17
     93.5700	  712.00	  740.02	-1799.52	  380.85
     93.6700	  740.00	  751.69	-1783.19	  380.54
     93.7700	  758.00	  762.20	-1775.70	  380.22
     93.8700	  713.00	  772.11	-1830.61	  379.91
     93.9700	  782.00	  781.95	-1771.45	  379.59
     94.0700	  838.00	  792.11	-1725.61	  379.27
     94.1700	  843.00	  802.78	-1731.28	  378.94
     94.2700	  843.00	  814.03	-1742.53	  378.62
     94.3700	  832.00	  825.54	-1765.04	  378.29
     94.4700	  840.00	  837.97	-1769.47	  377.96
     94.5700	  885.00	  850.97	-1737.47	  377.63
     94.6700	  890.00	  864.43	-1745.93	  377.30
     94.7700	  911.00	  877.97	-1738.47	  376.97
     94.8700	  868.00	  890.89	-1794.39	  376.63
     94.9700	  936.00	  902.14	-1737.64	  376.29
     95.0700	  946.00	  910.40	-1735.90	  375.96
     95.1700	  958.00	  914.26	-1727.76	  375.61
     95.2700	  868.00	  912.54	-1816.04	  375.27
     95.3700	  906.00	  904.64	-1770.14	  374.93
     95.4700	  905.00	  890.74	-1757.24	  374.58
     95.5700	  902.00	  871.77	-1741.27	  374.23
     95.6700	  892.00	  849.23	-1728.73	  373.89
     95.7700	  767.00	  824.85	-1829.35	  373.53
     95.8700	  806.00	  800.43	-1765.93	  373.18
     95.9700	  786.00	  777.64	-1763.14	  372.83
     96.0700	  773.00	  758.04	-1756.54	  372.47
     96.1700	  736.00	  743.01	-1778.51	  372.12
     96.2700	  749.00	  733.80	-1756.30	  371.76
     96.3700	  710.00	  731.50	-1793.00	  371.40
     96.4700	  698.00	  737.01	-1810.51	  371.04
     96.5700	  718.00	  751.10	-1804.60	  370.67
     96.6700	  797.00	  774.32	-1748.82	  370.31
     96.7700	  795.00	  806.98	-1783.48	  369.94
     96.8700	  843.00	  849.12	-1777.62	  369.57
     96.9700	  911.00	  900.41	-1760.91	  369.20
     97.0700	  966.00	  960.16	-1765.66	  368.83
     97.1700	 1012.00	 1027.18	-1786.68	  368.46
     97.2700	 1094.00	 1099.76	-1777.26	  368.09
     97.3700	 1176.00	 1175.61	-1771.11	  367.71
     97.4700	 1229.00	 1251.84	-1794.34	  367.34
     97.5700	 1263.00	 1324.99	-1833.49	  366.96
     97.6700	 1346.00	 1391.10	-1816.60	  366.58
     97.7700	 1410.00	 1445.95	-1807.45	  366.20
     97.8700	 1464.00	 1485.52	-1793.02	  365.82
     97.9700	 1444.00	 1506.70	-1834.20	  365.43
     98.0700	 1484.00	 1507.95	-1795.45	  365.05
     98.1700	 1461.00	 1489.66	-1800.16	  364.66
     98.2700	 1383.00	 1453.99	-1842.49	  364.28
     98.3700	 1438.00	 1404.35	-1737.85	  363.89
     98.4700	 1291.00	 1344.75	-1825.25	  363.50
     98.5700	 1297.00	 1279.24	-1753.74	  363.11
     98.6700	 1221.00	 1211.65	-1762.15	  362.72
     98.7700	 1103.00	 1145.40	-1813.90	  362.32
     98.8700	 1100.00	 1083.43	-1754.93	  361.93
     98.9700	  988.00	 1028.19	-1811.69	  361.54
     99.0700	  994.00	  981.67	-1759.17	  361.14
     99.1700	  950.00	  945.43	-1766.93	  360.74
     99.2700	  943.00	  920.69	-1749.19	  360.34
     99.3700	  892.00	  908.31	-1787.81	  359.94
     99.4700	  943.00	  908.85	-1737.35	  359.54
     99.5700	  934.00	  922.59	-1760.09	  359.14
     99.6700	  984.00	  949.55	-1737.05	  358.74
     99.7700	  939.00	  989.47	-1821.97	  358.34
     99.8700	 1057.00	 1041.81	-1756.31	  357.93
     99.9700	 1095.00	 1105.72	-1782.22	  357.53
    100.0700	 1190.00	 1180.01	-1761.51	  357.12
    100.1700	 1232.00	 1263.08	-1802.58	  356.71
    100.2700	 1350.00	 1352.84	-1774.34	  356.31
    100.3700	 1533.00	 1446.70	-1685.20	  355.90
    100.4700	 1546.00	 1541.58	-1767.08	  355.49
    100.5700	 1665.00	 1634.01	-1740.51	  355.08
    100.6700	 1666.00	 1720.55	-1826.05	  354.67
    100.7700	 1832.00	 1797.89	-1737.39	  354.25
    100.8700	 1867.00	 1863.42	-1767.92	  353.84
    100.9700	 1902.00	 1915.32	-1784.82	  353.43
    101.0700	 1943.00	 1952.49	-1780.99	  353.02
    101.1700	 1965.00	 1974.21	-1780.71	  352.60
    101.2700	 2028.00	 1979.94	-1723.44	  352.19
    101.3700	 1980.00	 1969.29	-1760.79	  351.77
    101.4700	 1924.00	 1942.35	-1789.85	  351.35
    101.5700	 1984.00	 1900.05	-1687.55	  350.94
    101.6700	 1913.00	 1844.44	-1702.94	  350.52
    101.7700	 1780.00	 1778.66	-1770.16	  350.10
    101.8700	 1687.00	 1706.51	-1791.01	  349.68
    101.9700	 1616.00	 1631.93	-1787.43	  349.27
    102.0700	 1554.00	 1558.51	-1776.01	  348.85
    102.1700	 1513.00	 1489.14	-1747.64	  348.43
    102.2700	 1383.00	 1425.97	-1814.47	  348.01
    102.3700	 1403.00	 1370.29	-1738.79	  347.59
    102.4700	 1278.00	 1322.59	-1816.09	  347.17
    102.5700	 1286.00	 1282.62	-1768.12	  346.75
    102.6700	 1168.00	 1249.45	-1852.95	  346.32
    102.7700	 1138.00	 1221.60	-1855.10	  345.90
    102.8700	 1190.00	 1197.17	-1778.67	  345.48
    102.9700	 1154.00	 1174.03	-1791.53	  345.06
    103.0700	 1155.00	 1150.14	-1766.64	  344.64
    103.1700	 1119.00	 1123.81	-1776.31	  344.22
    103.2700	 1088.00	 1093.99	-1777.49	  343.79
    103.3700	 1007.00	 1060.34	-1824.84	  343.37
    103.4700	 1011.00	 1023.19	-1783.69	  342.95
    103.5700	 1015.00	  983.31	-1739.81	  342.53
    103.6700	  907.00	  941.72	-1806.22	  342.11
    103.7700	  928.00	  899.50	-1743.00	  341.68
    103.8700	  895.00	  857.67	-1734.17	  341.26
    103.9700	  862.00	  817.15	-1726.65	  340.84
    104.0700	  846.00	  778.69	-1704.19	  340.42
    104.1700	  816.00	  742.88	-1698.38	  340.00
    104.2700	  689.00	  710.17	-1792.67	  339.58
    104.3700	  739.00	  680.84	-1713.34	  339.16
    104.4700	  637.00	  655.01	-1789.51	  338.74
    104.5700	  645.00	  632.66	-1759.16	  338.32
    104.6700	  616.00	  613.65	-1769.15	  337.90
    104.7700	  644.00	  597.78	-1725.28	  337.48
    104.8700	  623.00	  584.77	-1733.27	  337.06
    104.9700	  599.00	  574.32	-1746.82	  336.64
    105.0700	  598.00	  566.11	-1739.61	  336.22
    105.1700	  583.00	  559.83	-1748.33	  335.80
    105.2700	  606.00	  555.21	-1720.71	  335.39
    105.3700	  566.00	  551.99	-1757.49	  334.97
    105.4700	  564.00	  549.98	-1757.48	  334.55
    105.5700	  517.00	  549.01	-1803.51	  334.14
    105.6700	  560.00	  548.94	-1760.44	  333.72
    105.7700	  548.00	  549.70	-1773.20	  333.31
    105.8700	  569.00	  551.22	-1753.72	  332.90
    105.9700	  576.00	  553.47	-1748.97	  332.49
    106.0700	  587.00	  556.44	-1740.94	  332.07
    106.1700	  523.00	  560.15	-1808.65	  331.66
    106.2700	  562.00	  564.64	-1774.14	  331.25
    106.3700	  566.00	  569.94	-1775.44	  330.85
    106.4700	  573.00	  576.10	-1774.60	  330.44
    106.5700	  583.00	  583.12	-1771.62	  330.03
    106.6700	  616.00	  591.00	-1746.50	  329.63
    106.7700	  576.00	  599.68	-1795.18	  329.22
    106.8700	  658.00	  609.07	-1722.57	  328.82
    106.9700	  645.00	  619.03	-1745.53	  328.42
    107.0700	  654.00	  629.34	-1746.84	  328.01
    107.1700	  684.00	  639.75	-1727.25	  327.61
    107.2700	  631.00	  649.96	-1790.46	  327.22
    107.3700	  673.00	  659.63	-1758.13	  326.82
    107.4700	  664.00	  668.38	-1775.88	  326.42
    107.5700	  652.00	  675.88	-1795.38	  326.03
    107.6700	  684.00	  681.81	-1769.31	  325.64
    107.7700	  700.00	  686.00	-1757.50	  325.24
    107.8700	  664.00	  688.37	-1795.87	  324.86
    107.9700	  648.00	  689.09	-1812.59	  324.47
    108.0700	  703.00	  688.40	-1756.90	  324.08
    108.1700	  697.00	  686.68	-1761.18	  323.70
    108.2700	  713.00	  684.34	-1742.84	  323.31
    108.3700	  677.00	  681.80	-1776.30	  322.93
    108.4700	  643.00	  679.39	-1807.89	  322.55
    108.5700	  667.00	  677.40	-1781.90	  322.17
    108.6700	  663.00	  676.03	-1784.53	  321.80
    108.7700	  671.00	  675.36	-1775.86	  321.42
    108.8700	  728.00	  675.40	-1718.90	  321.05
    108.9700	  697.00	  676.04	-1750.54	  320.68
    109.0700	  656.00	  677.10	-1792.60	  320.31
    109.1700	  732.00	  678.30	-1717.80	  319.95
    109.2700	  701.00	  679.31	-1749.81	  319.58
    109.3700	  695.00	  679.76	-1756.26	  319.22
    109.4700	  660.00	  679.27	-1790.77	  318.86
    109.5700	  694.00	  677.55	-1755.05	  318.50
    109.6700	  692.00	  674.39	-1753.89	  318.15
    109.7700	  673.00	  669.71	-1768.21	  317.80
    109.8700	  699.00	  663.58	-1736.08	  317.45
    109.9700	  666.00	  656.18	-1761.68	  317.10
    110.0700	  678.00	  647.75	-1741.25	  316.75
    110.1700	  656.00	  638.60	-1754.10	  316.41
    110.2700	  664.00	  629.04	-1736.54	  316.07
    110.3700	  605.00	  619.35	-1785.85	  315.73
    110.4700	  615.00	  609.81	-1766.31	  315.40
    110.5700	  661.00	  600.63	-1711.13	  315.07
    110.6700	  598.00	  592.03	-1765.53	  314.74
    110.7700	  566.00	  584.13	-1789.63	  314.41
    110.8700	  621.00	  577.08	-1727.58	  314.09
    110.9700	  621.00	  570.95	-1721.45	  313.77
    111.0700	  527.00	  565.79	-1810.29	  313.45
    111.1700	  558.00	  561.60	-1775.10	  313.14
    111.2700	  562.00	  558.37	-1767.87	  312.82
    111.3700	  558.00	  556.05	-1769.55	  312.52
    111.4700	  549.00	  554.60	-1777.10	  312.21
    111.5700	  592.00	  553.94	-1733.44	  311.91
    111.6700	  547.00	  553.97	-1778.47	  311.61
    111.7700	  559.00	  554.62	-1767.12	  311.32
    111.8700	  561.00	  555.80	-1766.30	  311.02
    111.9700	  575.00	  557.42	-1753.92	  310.74
    112.0700	  561.00	  559.40	-1769.90	  310.45
    112.1700	  533.00	  561.65	-1800.15	  310.17
    112.2700	  568.00	  564.12	-1767.62	  309.89
    112.3700	  558.00	  566.76	-1780.26	  309.62
    112.4700	  519.00	  569.52	-1822.02	  309.35
    112.5700	  572.00	  572.40	-1771.90	  309.08
    112.6700	  617.00	  575.39	-1729.89	  308.82
    112.7700	  576.00	  578.54	-1774.04	  308.56
    112.8700	  555.00	  581.88	-1798.38	  308.31
    112.9700	  580.00	  585.48	-1776.98	  308.06
    113.0700	  574.00	  589.42	-1786.92	  307.81
    113.1700	  608.00	  593.79	-1757.29	  307.57
    113.2700	  590.00	  598.71	-1780.21	  307.33
    113.3700	  574.00	  604.31	-1801.81	  307.09
    113.4700	  575.00	  610.77	-1807.27	  306.86
    113.5700	  595.00	  618.28	-1794.78	  306.64
    113.6700	  624.00	  627.10	-1774.60	  306.42
    113.7700	  634.00	  637.56	-1775.06	  306.20
    113.8700	  639.00	  650.06	-1782.56	  305.99
    113.9700	  680.00	  665.07	-1756.57	  305.78
    114.0700	  684.00	  683.20	-1770.70	  305.58
    114.1700	  713.00	  705.20	-1763.70	  305.38
    114.2700	  741.00	  731.95	-1762.45	  305.19
    114.3700	  752.00	  764.52	-1784.02	  305.00
    114.4700	  823.00	  804.13	-1752.63	  304.81
    114.5700	  853.00	  852.21	-1770.71	  304.64
    114.6700	  842.00	  910.39	-1839.89	  304.46
    114.7700	  933.00	  980.47	-1818.97	  304.29
    114.8700	 1029.00	 1064.39	-1806.89	  304.13
    114.9700	 1243.00	 1164.24	-1692.74	  303.97
    115.0700	 1334.00	 1282.10	-1719.60	  303.82
    115.1700	 1474.00	 1420.11	-1717.61	  303.67
    115.2700	 1684.00	 1580.27	-1667.77	  303.53
    115.3700	 1844.00	 1764.36	-1691.86	  303.39
    115.4700	 2027.00	 1973.80	-1718.30	  303.26
    115.5700	 2244.00	 2209.52	-1737.02	  303.13
    115.6700	 2559.00	 2471.91	-1684.41	  303.01
    115.7700	 2845.00	 2760.63	-1687.13	  302.90
    115.8700	 3093.00	 3074.42	-1752.92	  302.79
    115.9700	 3430.00	 3411.11	-1752.61	  302.68
    116.0700	 3851.00	 3767.43	-1687.93	  302.59
    116.1700	 4078.00	 4139.14	-1832.64	  302.50
    116.2700	 4454.00	 4520.89	-1838.39	  302.41
    116.3700	 4911.00	 4906.16	-1766.66	  302.33
    116.4700	 5318.00	 5287.35	-1740.85	  302.26
    116.5700	 5692.00	 5655.83	-1735.33	  302.19
    116.6700	 5943.00	 6002.24	-1830.74	  302.13
    116.7700	 6237.00	 6316.58	-1851.08	  302.08
    116.8700	 6464.00	 6588.53	-1896.03	  302.03
    116.9700	 6647.00	 6808.23	-1932.73	  301.99
    117.0700	 6895.00	 6966.92	-1843.42	  301.95
    117.1700	 7062.00	 7057.92	-1767.42	  301.93
    117.2700	 7080.00	 7077.32	-1768.82	  301.90
    117.3700	 7086.00	 7024.48	-1709.98	  301.89
    117.4700	 7031.00	 6902.18	-1642.68	  301.88
    117.5700	 6713.00	 6716.25	-1774.75	  301.88
    117.6700	 6406.00	 6474.77	-1840.27	  301.89
    117.7700	 6072.00	 6187.18	-1886.68	  301.90
    117.8700	 5715.00	 5863.65	-1920.15	  301.92
    117.9700	 5378.00	 5514.26	-1907.76	  301.95
    118.0700	 5094.00	 5148.62	-1826.12	  301.98
    118.1700	 4744.00	 4775.43	-1802.93	  302.03
    118.2700	 4399.00	 4402.42	-1774.92	  302.07
    118.3700	 4073.00	 4036.34	-1734.84	  302.13
    118.4700	 3764.00	 3682.79	-1690.29	  302.20
    118.5700	 3400.00	 3346.29	-1717.79	  302.27
    118.6700	 3030.00	 3030.18	-1771.68	  302.35
    118.7700	 2751.00	 2736.77	-1757.27	  302.44
    118.8700	 2619.00	 2467.58	-1620.08	  302.53
    118.9700	 2176.00	 2223.21	-1818.71	  302.64
    119.0700	 1990.00	 2003.61	-1785.11	  302.75
    119.1700	 1866.00	 1808.07	-1713.57	  302.87
    119.2700	 1651.00	 1635.44	-1755.94	  302.99
    119.3700	 1480.00	 1484.27	-1775.77	  303.13
    119.4700	 1458.00	 1352.87	-1666.37	  303.28
    119.5700	 1263.00	 1239.41	-1747.91	  303.43
    119.6700	 1195.00	 1141.98	-1718.48	  303.59
    119.7700	 1075.00	 1058.69	-1755.19	  303.76
    119.8700	 1005.00	  987.76	-1754.26	  303.94
    119.9700	  934.00	  927.51	-1765.01	  304.12
    120.0700	  882.00	  876.44	-1765.94	  304.32
    120.1700	  800.00	  833.17	-1804.67	  304.53
    120.2700	  775.00	  796.49	-1792.99	  304.74
    120.3700	  757.00	  765.40	-1779.90	  304.96
    120.4700	  759.00	  739.02	-1751.52	  305.19
    120.5700	  735.00	  716.60	-1753.10	  305.43
    120.6700	  678.00	  697.55	-1791.05	  305.69
    120.7700	  665.00	  681.35	-1787.85	  305.95
    120.8700	  638.00	  667.59	-1801.09	  306.21
    120.9700	  647.00	  655.95	-1780.45	  306.49
    121.0700	  614.00	  646.14	-1803.64	  306.78
    121.1700	  617.00	  637.94	-1792.44	  307.08
    121.2700	  678.00	  631.17	-1724.67	  307.39
    121.3700	  636.00	  625.68	-1761.18	  307.70
    121.4700	  586.00	  621.34	-1806.84	  308.03
    121.5700	  637.00	  618.06	-1752.56	  308.37
    121.6700	  582.00	  615.75	-1805.25	  308.72
    121.7700	  588.00	  614.32	-1797.82	  309.08
    121.8700	  560.00	  613.71	-1825.21	  309.44
    121.9700	  582.00	  613.84	-1803.34	  309.82
    122.0700	  613.00	  614.66	-1773.16	  310.21
    122.1700	  583.00	  616.09	-1804.59	  310.61
    122.2700	  614.00	  618.08	-1775.58	  311.02
    122.3700	  607.00	  620.54	-1785.04	  311.44
    122.4700	  612.00	  623.39	-1782.89	  311.87
    122.5700	  659.00	  626.56	-1739.06	  312.32
    122.6700	  616.00	  629.96	-1785.46	  312.77
    122.7700	  675.00	  633.49	-1729.99	  313.23
    122.8700	  605.00	  637.04	-1803.54	  313.71
    122.9700	  646.00	  640.51	-1766.01	  314.20
    123.0700	  671.00	  643.79	-1744.29	  314.70
    123.1700	  643.00	  646.78	-1775.28	  315.21
    123.2700	  693.00	  649.37	-1727.87	  315.73
    123.3700	  675.00	  651.47	-1747.97	  316.26
    123.4700	  684.00	  653.00	-1740.50	  316.81
    123.5700	  661.00	  653.93	-1764.43	  317.36
    123.6700	  616.00	  654.23	-1809.73	  317.93
    123.7700	  671.00	  653.90	-1754.40	  318.51
    123.8700	  657.00	  652.96	-1767.46	  319.10
    123.9700	  647.00	  651.48	-1775.98	  319.71
    124.0700	  675.00	  649.50	-1746.00	  320.32
    124.1700	  672.00	  647.11	-1746.61	  320.95
    124.2700	  635.00	  644.36	-1780.86	  321.60
    124.3700	  622.00	  641.35	-1790.85	  322.25
    124.4700	  655.00	  638.12	-1754.62	  322.92
    124.5700	  614.00	  634.79	-1792.29	  323.60
    124.6700	  620.00	  631.40	-1782.90	  324.29
    124.7700	  627.00	  628.01	-1772.51	  324.99
    124.8700	  585.00	  624.68	-1811.18	  325.71
    124.9700	  597.00	  427.07	-1601.57	  326.44
    125.0700	  594.00	  427.82	-1771.50	  327.19
    125.1700	  637.00	  428.57	-1771.50	  327.95
    125.2700	  592.00	  429.35	-1771.50	  328.72
    125.3700	  573.00	  430.13	-1771.50	  329.50
    125.4700	  627.00	  430.93	-1771.50	  330.30
    125.5700	  601.00	  431.74	-1771.50	  331.11
    125.6700	  545.00	  432.57	-1771.50	  331.94
    125.7700	  611.00	  433.41	-1771.50	  332.78
    125.8700	  599.00	  434.26	-1771.50	  333.64
    125.9700	  558.00	  435.13	-1771.50	  334.50
    126.0700	  642.00	  436.01	-1771.50	  335.39
    126.1700	  573.00	  436.91	-1771.50	  336.28
    126.2700	  561.00	  437.82	-1771.50	  337.19
    126.3700	  584.00	  438.75	-1771.50	  338.12
    126.4700	  570.00	  439.69	-1771.50	  339.06
    126.5700	  603.00	  440.64	-1771.50	  340.02
    126.6700	  570.00	  441.61	-1771.50	  340.99
    126.7700	  562.00	  442.60	-1771.50	  341.97
    126.8700	  566.00	  443.60	-1771.50	  342.97
    126.9700	  584.00	  444.61	-1771.50	  343.99
    127.0700	  561.00	  445.64	-1771.50	  345.02
    127.1700	  563.00	  446.69	-1771.50	  346.06
    127.2700	  547.00	  447.75	-1771.50	  347.12
    127.3700	  599.00	  448.83	-1771.50	  348.20
    127.4700	  582.00	  449.92	-1771.50	  349.29
    127.5700	  596.00	  451.03	-1771.50	  350.40
    127.6700	  597.00	  452.15	-1771.50	  351.53
    127.7700	  592.00	  453.29	-1771.50	  352.67
    127.8700	  650.00	  454.45	-1771.50	  353.82
    127.9700	  572.00	  455.62	-1771.50	  355.00
    128.0700	  608.00	  456.81	-1771.50	  356.19
    128.1700	  683.00	  458.02	-1771.50	  357.39
    128.2700	  654.00	  459.24	-1771.50	  358.61
    128.3700	  638.00	  460.48	-1771.50	  359.85
    128.4700	  660.00	  461.74	-1771.50	  361.11
    128.5700	    0.00	  463.01	-1771.50	  362.38
    128.6700	    0.00	  464.30	-1771.50	  363.67
     12.3648	        	        	        	        	       0	(  0  0  2)	  0  1
     24.9985	        	        	        	        	       0	(  0  0  4)	  0  1
     28.4306	        	        	        	        	       0	(  1  0  0)	  0  1
     29.1312	        	        	        	        	       0	(  1  0  1)	  0  1
     31.1472	        	        	        	        	       0	(  1  0  2)	  0  1
     34.2705	        	        	        	        	       0	(  1  0  3)	  0  1
     37.9521	        	        	        	        	       0	(  0  0  6)	  0  1
     38.2666	        	        	        	        	       0	(  1  0  4)	  0  1
     42.9389	        	        	        	        	       0	(  1  0  5)	  0  1
     48.1481	        	        	        	        	       0	(  1  0  6)	  0  1
     50.4441	        	        	        	        	       0	(  1  1  0)	  0  1
     51.4349	        	        	        	        	       0	(  0  0  8)	  0  1
     52.1765	        	        	        	        	       0	(  1  1  2)	  0  1
     53.8066	        	        	        	        	       0	(  1  0  7)	  0  1
     57.1514	        	        	        	        	       0	(  1  1  4)	  0  1
     58.9743	        	        	        	        	       0	(  2  0  0)	  0  1
     59.3681	        	        	        	        	       0	(  2  0  1)	  0  1
     59.8683	        	        	        	        	       0	(  1  0  8)	  0  1
     60.5402	        	        	        	        	       0	(  2  0  2)	  0  1
     62.4645	        	        	        	        	       0	(  2  0  3)	  0  1
     64.8894	        	        	        	        	       0	(  1  1  6)	  0  1
     65.1039	        	        	        	        	       0	(  2  0  4)	  0  1
     65.7367	        	        	        	        	       0	(  0  0 10)	  0  1
     66.3197	        	        	        	        	       0	(  1  0  9)	  0  1
     68.4178	        	        	        	        	       0	(  2  0  5)	  0  1
     72.3693	        	        	        	        	       0	(  2  0  6)	  0  1
     73.1756	        	        	        	        	       0	(  1  0 10)	  0  1
     74.9877	        	        	        	        	       0	(  1  1  8)	  0  1
     76.9324	        	        	        	        	       0	(  2  0  7)	  0  1
     80.4795	        	        	        	        	       0	(  1  0 11)	  0  1
     81.3109	        	        	        	        	       0	(  0  0 12)	  0  1
     81.3187	        	        	        	        	       0	(  2  1  0)	  0  1
     81.6610	        	        	        	        	       0	(  2  1  1)	  0  1
     82.0972	        	        	        	        	       0	(  2  0  8)	  0  1
     82.6860	        	        	        	        	       0	(  2  1  2)	  0  1
     84.3894	        	        	        	        	       0	(  2  1  3)	  0  1
     86.7664	        	        	        	        	       0	(  2  1  4)	  0  1
     87.3431	        	        	        	        	       0	(  1  1 10)	  0  1
     87.8767	        	        	        	        	       0	(  2  0  9)	  0  1
     88.3089	        	        	        	        	       0	(  1  0 12)	  0  1
     89.8152	        	        	        	        	       0	(  2  1  5)	  0  1
     93.5421	        	        	        	        	       0	(  2  1  6)	  0  1
     94.3146	        	        	        	        	       0	(  2  0 10)	  0  1
     95.2912	        	        	        	        	       0	(  3  0  0)	  0  1
     95.6314	        	        	        	        	       0	(  3  0  1)	  0  1
     96.6532	        	        	        	        	       0	(  3  0  2)	  0  1
     96.7904	        	        	        	        	       0	(  1  0 13)	  0  1
     97.9680	        	        	        	        	       0	(  2  1  7)	  0  1
     98.3613	        	        	        	        	       0	(  3  0  3)	  0  1
     98.9875	        	        	        	        	       0	(  0  0 14)	  0  1
    100.7658	        	        	        	        	       0	(  3  0  4)	  0  1
    101.4999	        	        	        	        	       0	(  2  0 11)	  0  1
    102.3396	        	        	        	        	       0	(  1  1 12)	  0  1
    103.1379	        	        	        	        	       0	(  2  1  8)	  0  1
    103.8868	        	        	        	        	       0	(  3  0  5)	  0  1
    106.1325	        	        	        	        	       0	(  1  0 14)	  0  1
    107.7609	        	        	        	        	       0	(  3  0  6)	  0  1
    109.1363	        	        	        	        	       0	(  2  1  9)	  0  1
    109.5945	        	        	        	        	       0	(  2  0 12)	  0  1
    112.4530	        	        	        	        	       0	(  3  0  7)	  0  1
    116.1161	        	        	        	        	       0	(  2  1 10)	  0  1
    116.7033	        	        	        	        	       0	(  1  0 15)	  0  1
    117.2059	        	        	        	        	       0	(  2  2  0)	  0  1
    118.0767	        	        	        	        	       0	(  3  0  8)	  0  1
    118.7412	        	        	        	        	       0	(  2  2  2)	  0  1
    118.8968	        	        	        	        	       0	(  2  0 13)	  0  1
    120.7337	        	        	        	        	       0	(  0  0 16)	  0  1
    121.4161	        	        	        	        	       0	(  1  1 14)	  0  1
    123.4943	        	        	        	        	       0	(  2  2  4)	  0  1
    124.3633	        	        	        	        	       0	(  2  1 11)	  0  1
    124.8367	        	        	        	        	       0	(  3  0  9)	  0  1
    125.3751	        	        	        	        	       0	(  3  1  0)	  0  1
    125.7920	        	        	        	        	       0	(  3  1  1)	  0  1
    127.0563	        	        	        	        	       0	(  3  1  2)	  0  1
    129.2122	        	        	        	        	       0	(  3  1  3)	  0  1
    129.2576	        	        	        	        	       0	(  1  0 16)	  0  1
    130.0169	        	        	        	        	       0	(  2  0 14)	  0  1
    132.0849	        	        	        	        	       0	(  2  2  6)	  0  1
    132.3482	        	        	        	        	       0	(  3  1  4)	  0  1
    133.1340	        	        	        	        	       0	(  3  0 10)	  0  1
    134.4740	        	        	        	        	       0	(  2  1 12)	  0  1
    136.6294	        	        	        	        	       0	(  3  1  5)	  0  1
    142.3810	        	        	        	        	       0	(  3  1  6)	  0  1
    143.9101	        	        	        	        	       0	(  3  0 11)	  0  1
    144.5645	        	        	        	        	       0	(  2  0 15)	  0  1
    145.9202	        	        	        	        	       0	(  1  0 17)	  0  1
    146.7299	        	        	        	        	       0	(  2  2  8)	  0  1
    148.0705	        	        	        	        	       0	(  2  1 13)	  0  1
    150.3597	        	        	        	        	       0	(  3  1  7)	  0  1
    151.2324	        	        	        	        	       0	(  1  1 16)	  0  1
    156.0387	        	        	        	        	       0	(  0  0 18)	  0  1
    160.8295	        	        	        	        	       0	(  3  0 12)	  0  1
    160.8533	        	        	        	        	       0	(  4  0  0)	  0  1
    161.9206	        	        	        	        	       0	(  4  0  1)	  0  1
    163.3789	        	        	        	        	       0	(  3  1  8)	  0  1
    165.5766	        	        	        	        	       0	(  4  0  2)	  0  1
    176.7839	        	        	        	        	       0	(  4  0  3)	  0  1
    177.5197	        	        	        	        	       0	(  2  0 16)	  0  1
