MSG Master    CELL:    5.91925   5.91925  23.27181   90.0000   90.0000  120.0000   SPGR: P 63/m m c             TEMP:   1074.95
  1   1280     2.52000     0.00000    -0.12601     0.00000     0.00000    0
    99     0     2
       0.00000      10.00000
     125.00000     130.00000
 2Theta	Yobs	Ycal	Yobs-Ycal	Backg	Posr	(hkl)	K
      0.7700	    0.00	  536.07	-1746.00	  417.25
      0.8700	    0.00	  536.98	-1746.00	  418.16
      0.9700	   36.00	  537.88	-1746.00	  419.05
      1.0700	   52.00	  538.76	-1746.00	  419.94
      1.1700	   48.00	  539.63	-1746.00	  420.81
      1.2700	   50.00	  540.49	-1746.00	  421.67
      1.3700	   52.00	  541.34	-1746.00	  422.51
      1.4700	   92.00	  542.17	-1746.00	  423.35
      1.5700	  275.00	  542.99	-1746.00	  424.17
      1.6700	  464.00	  543.80	-1746.00	  424.98
      1.7700	  586.00	  544.60	-1746.00	  425.78
      1.8700	  681.00	  545.38	-1746.00	  426.56
      1.9700	  738.00	  546.16	-1746.00	  427.33
      2.0700	  757.00	  546.92	-1746.00	  428.10
      2.1700	  807.00	  547.67	-1746.00	  428.84
      2.2700	  797.00	  548.41	-1746.00	  429.58
      2.3700	  724.00	  549.13	-1746.00	  430.31
      2.4700	  719.00	  549.85	-1746.00	  431.02
      2.5700	  702.00	  550.55	-1746.00	  431.73
      2.6700	  674.00	  551.24	-1746.00	  432.42
      2.7700	  662.00	  551.92	-1746.00	  433.10
      2.8700	  635.00	  552.59	-1746.00	  433.77
      2.9700	  677.00	  553.25	-1746.00	  434.43
      3.0700	  617.00	  553.90	-1746.00	  435.08
      3.1700	  618.00	  554.54	-1746.00	  435.71
      3.2700	  611.00	  555.16	-1746.00	  436.34
      3.3700	  659.00	  555.77	-1746.00	  436.95
      3.4700	  785.00	  556.38	-1746.00	  437.56
      3.5700	  810.00	  556.97	-1746.00	  438.15
      3.6700	  868.00	  557.55	-1746.00	  438.73
      3.7700	  964.00	  558.13	-1746.00	  439.30
      3.8700	  980.00	  558.69	-1746.00	  439.86
      3.9700	 1054.00	  559.24	-1746.00	  440.41
      4.0700	 1040.00	  559.78	-1746.00	  440.96
      4.1700	 1055.00	  560.31	-1746.00	  441.49
      4.2700	 1102.00	  560.83	-1746.00	  442.01
      4.3700	 1090.00	  561.34	-1746.00	  442.52
      4.4700	 1098.00	  561.84	-1746.00	  443.02
      4.5700	 1035.00	  562.33	-1746.00	  443.51
      4.6700	  987.00	  562.81	-1746.00	  443.99
      4.7700	  992.00	  563.28	-1746.00	  444.46
      4.8700	  963.00	  563.74	-1746.00	  444.92
      4.9700	  957.00	  564.19	-1746.00	  445.37
      5.0700	  976.00	  564.64	-1746.00	  445.81
      5.1700	  882.00	  565.07	-1746.00	  446.25
      5.2700	  925.00	  565.49	-1746.00	  446.67
      5.3700	  912.00	  565.91	-1746.00	  447.08
      5.4700	  899.00	  566.31	-1746.00	  447.49
      5.5700	  820.00	  566.70	-1746.00	  447.88
      5.6700	  850.00	  567.09	-1746.00	  448.27
      5.7700	  848.00	  567.47	-1746.00	  448.64
      5.8700	  862.00	  567.84	-1746.00	  449.01
      5.9700	  810.00	  568.19	-1746.00	  449.37
      6.0700	  790.00	  568.54	-1746.00	  449.72
      6.1700	  786.00	  568.89	-1746.00	  450.06
      6.2700	  807.00	  569.22	-1746.00	  450.40
      6.3700	  793.00	  569.54	-1746.00	  450.72
      6.4700	  766.00	  569.86	-1746.00	  451.03
      6.5700	  786.00	  570.17	-1746.00	  451.34
      6.6700	  775.00	  570.46	-1746.00	  451.64
      6.7700	  675.00	  570.75	-1746.00	  451.93
      6.8700	  722.00	  571.04	-1746.00	  452.21
      6.9700	  682.00	  571.31	-1746.00	  452.49
      7.0700	  678.00	  571.58	-1746.00	  452.75
      7.1700	  701.00	  571.83	-1746.00	  453.01
      7.2700	  715.00	  572.08	-1746.00	  453.26
      7.3700	  717.00	  572.32	-1746.00	  453.50
      7.4700	  707.00	  572.56	-1746.00	  453.73
      7.5700	  647.00	  572.78	-1746.00	  453.96
      7.6700	  661.00	  573.00	-1746.00	  454.18
      7.7700	  668.00	  573.21	-1746.00	  454.39
      7.8700	  649.00	  573.41	-1746.00	  454.59
      7.9700	  628.00	  573.61	-1746.00	  454.78
      8.0700	  680.00	  573.80	-1746.00	  454.97
      8.1700	  681.00	  573.98	-1746.00	  455.15
      8.2700	  638.00	  574.15	-1746.00	  455.32
      8.3700	  620.00	  574.31	-1746.00	  455.49
      8.4700	  652.00	  574.47	-1746.00	  455.65
      8.5700	  605.00	  574.62	-1746.00	  455.80
      8.6700	  598.00	  574.77	-1746.00	  455.94
      8.7700	  605.00	  574.90	-1746.00	  456.08
      8.8700	  620.00	  575.03	-1746.00	  456.21
      8.9700	  636.00	  575.16	-1746.00	  456.33
      9.0700	  617.00	  575.27	-1746.00	  456.45
      9.1700	  649.00	  575.38	-1746.00	  456.56
      9.2700	  645.00	  575.48	-1746.00	  456.66
      9.3700	  580.00	  575.58	-1746.00	  456.76
      9.4700	  572.00	  575.67	-1746.00	  456.84
      9.5700	  576.00	  575.75	-1746.00	  456.93
      9.6700	  582.00	  575.83	-1746.00	  457.00
      9.7700	  643.00	  575.90	-1746.00	  457.07
      9.8700	  610.00	  575.96	-1746.00	  457.14
      9.9700	  603.00	  576.02	-1746.00	  457.19
     10.0700	  649.00	  576.90	-1673.90	  457.24
     10.1700	  598.00	  577.03	-1725.03	  457.29
     10.2700	  642.00	  577.18	-1681.18	  457.33
     10.3700	  617.00	  577.35	-1706.35	  457.36
     10.4700	  588.00	  577.58	-1735.58	  457.38
     10.5700	  583.00	  577.92	-1740.92	  457.40
     10.6700	  579.00	  578.46	-1745.46	  457.42
     10.7700	  593.00	  579.32	-1732.32	  457.43
     10.8700	  612.00	  580.55	-1714.55	  457.43
     10.9700	  586.00	  582.16	-1742.16	  457.43
     11.0700	  603.00	  584.12	-1727.12	  457.42
     11.1700	  570.00	  586.41	-1762.41	  457.40
     11.2700	  589.00	  589.08	-1746.08	  457.38
     11.3700	  568.00	  592.20	-1770.20	  457.36
     11.4700	  614.00	  595.90	-1727.90	  457.33
     11.5700	  588.00	  600.38	-1758.38	  457.29
     11.6700	  579.00	  605.99	-1772.99	  457.25
     11.7700	  590.00	  613.33	-1769.33	  457.20
     11.8700	  671.00	  623.27	-1698.27	  457.15
     11.9700	  676.00	  636.40	-1706.40	  457.09
     12.0700	  705.00	  651.11	-1692.11	  457.03
     12.1700	  713.00	  661.45	-1694.45	  456.96
     12.2700	  684.00	  658.12	-1720.12	  456.89
     12.3700	  659.00	  638.31	-1725.31	  456.81
     12.4700	  683.00	  614.00	-1677.00	  456.73
     12.5700	  577.00	  596.06	-1765.06	  456.64
     12.6700	  570.00	  586.17	-1762.17	  456.55
     12.7700	  532.00	  581.61	-1795.61	  456.45
     12.8700	  525.00	  579.53	-1800.53	  456.35
     12.9700	  543.00	  578.40	-1781.40	  456.24
     13.0700	  544.00	  577.63	-1779.63	  456.13
     13.1700	  574.00	  577.05	-1749.05	  456.01
     13.2700	  581.00	  576.59	-1741.59	  455.89
     13.3700	  515.00	  576.20	-1807.20	  455.77
     13.4700	  564.00	  575.86	-1757.86	  455.64
     13.5700	  606.00	  575.56	-1715.56	  455.50
     13.6700	  543.00	  575.29	-1778.29	  455.37
     13.7700	  546.00	  575.04	-1775.04	  455.23
     13.8700	  548.00	  574.80	-1772.80	  455.08
     13.9700	  584.00	  574.57	-1736.57	  454.93
     14.0700	  508.00	  574.35	-1812.35	  454.77
     14.1700	  546.00	  574.14	-1774.14	  454.62
     14.2700	  567.00	  573.93	-1752.93	  454.45
     14.3700	  555.00	  573.72	-1764.72	  454.29
     14.4700	  578.00	  573.51	-1741.51	  454.12
     14.5700	  549.00	  573.30	-1770.30	  453.94
     14.6700	  584.00	  573.10	-1735.10	  453.76
     14.7700	  566.00	  572.89	-1752.89	  453.58
     14.8700	  543.00	  572.68	-1775.68	  453.40
     14.9700	  562.00	  572.47	-1756.47	  453.21
     15.0700	  532.00	  572.26	-1786.26	  453.01
     15.1700	  561.00	  572.05	-1757.05	  452.82
     15.2700	  594.00	  571.83	-1723.83	  452.62
     15.3700	  562.00	  571.62	-1755.62	  452.41
     15.4700	  550.00	  571.40	-1767.40	  452.21
     15.5700	  571.00	  571.17	-1746.17	  452.00
     15.6700	  594.00	  570.95	-1722.95	  451.78
     15.7700	  585.00	  570.72	-1731.72	  451.57
     15.8700	  586.00	  570.49	-1730.49	  451.35
     15.9700	  534.00	  570.26	-1782.26	  451.12
     16.0700	  553.00	  570.05	-1763.05	  450.90
     16.1700	  560.00	  569.82	-1755.82	  450.67
     16.2700	  575.00	  569.58	-1740.58	  450.43
     16.3700	  549.00	  569.34	-1766.34	  450.20
     16.4700	  531.00	  569.09	-1784.09	  449.96
     16.5700	  514.00	  568.85	-1800.85	  449.72
     16.6700	  551.00	  568.60	-1763.60	  449.47
     16.7700	  562.00	  568.35	-1752.35	  449.22
     16.8700	  574.00	  568.09	-1740.09	  448.97
     16.9700	  564.00	  567.84	-1749.84	  448.72
     17.0700	  573.00	  567.58	-1740.58	  448.46
     17.1700	  543.00	  567.32	-1770.32	  448.21
     17.2700	  540.00	  567.05	-1773.05	  447.94
     17.3700	  567.00	  566.79	-1745.79	  447.68
     17.4700	  558.00	  566.52	-1754.52	  447.41
     17.5700	  564.00	  566.25	-1748.25	  447.15
     17.6700	  577.00	  565.98	-1734.98	  446.87
     17.7700	  620.00	  565.70	-1691.70	  446.60
     17.8700	  552.00	  565.42	-1759.42	  446.32
     17.9700	  568.00	  565.24	-1743.24	  446.05
     18.0700	  592.00	  564.96	-1718.96	  445.76
     18.1700	  563.00	  564.68	-1747.68	  445.48
     18.2700	  567.00	  564.40	-1743.40	  445.20
     18.3700	  558.00	  564.11	-1752.11	  444.91
     18.4700	  568.00	  563.82	-1741.82	  444.62
     18.5700	  538.00	  563.53	-1771.53	  444.33
     18.6700	  571.00	  563.24	-1738.24	  444.03
     18.7700	  580.00	  562.95	-1728.95	  443.74
     18.8700	  529.00	  562.74	-1779.74	  443.44
     18.9700	  546.00	  562.44	-1762.44	  443.14
     19.0700	  555.00	  562.14	-1753.14	  442.84
     19.1700	  588.00	  561.85	-1719.85	  442.53
     19.2700	  584.00	  561.55	-1723.55	  442.23
     19.3700	  560.00	  561.24	-1747.24	  441.92
     19.4700	  602.00	  560.94	-1704.94	  441.61
     19.5700	  549.00	  560.64	-1757.64	  441.30
     19.6700	  550.00	  560.33	-1756.33	  440.98
     19.7700	  534.00	  560.02	-1772.02	  440.67
     19.8700	  585.00	  559.72	-1720.72	  440.35
     19.9700	  517.00	  559.41	-1788.41	  440.04
     20.0700	  558.00	  559.10	-1747.10	  439.72
     20.1700	  571.00	  558.78	-1733.78	  439.39
     20.2700	  549.00	  558.47	-1755.47	  439.07
     20.3700	  590.00	  558.16	-1714.16	  438.75
     20.4700	  567.00	  557.84	-1736.84	  438.42
     20.5700	  550.00	  557.50	-1753.50	  438.10
     20.6700	  545.00	  557.18	-1758.18	  437.77
     20.7700	  517.00	  556.87	-1785.87	  437.44
     20.8700	  574.00	  556.58	-1728.58	  437.11
     20.9700	  574.00	  556.27	-1728.27	  436.78
     21.0700	  558.00	  555.95	-1743.95	  436.44
     21.1700	  534.00	  555.64	-1767.64	  436.11
     21.2700	  538.00	  555.32	-1763.32	  435.77
     21.3700	  594.00	  555.00	-1707.00	  435.44
     21.4700	  551.00	  554.69	-1749.69	  435.10
     21.5700	  586.00	  554.37	-1714.37	  434.76
     21.6700	  548.00	  554.06	-1752.06	  434.42
     21.7700	  604.00	  553.74	-1695.74	  434.08
     21.8700	  525.00	  553.43	-1774.43	  433.74
     21.9700	  536.00	  553.12	-1763.12	  433.39
     22.0700	  579.00	  552.80	-1719.80	  433.05
     22.1700	  581.00	  552.50	-1717.50	  432.71
     22.2700	  608.00	  552.19	-1690.19	  432.36
     22.3700	  526.00	  551.89	-1771.89	  432.01
     22.4700	  594.00	  551.59	-1703.59	  431.67
     22.5700	  519.00	  551.29	-1778.29	  431.32
     22.6700	  545.00	  551.00	-1752.00	  430.97
     22.7700	  552.00	  550.72	-1744.72	  430.62
     22.8700	  553.00	  550.44	-1743.44	  430.27
     22.9700	  585.00	  550.17	-1711.17	  429.92
     23.0700	  547.00	  549.92	-1748.92	  429.57
     23.1700	  573.00	  549.68	-1722.68	  429.22
     23.2700	  532.00	  549.46	-1763.46	  428.87
     23.3700	  558.00	  549.26	-1737.26	  428.51
     23.4700	  571.00	  549.09	-1724.09	  428.16
     23.5700	  517.00	  548.97	-1777.97	  427.81
     23.6700	  515.00	  549.05	-1780.05	  427.45
     23.7700	  600.00	  549.11	-1695.11	  427.10
     23.8700	  562.00	  549.36	-1733.36	  426.74
     23.9700	  548.00	  550.01	-1748.01	  426.39
     24.0700	  570.00	  551.45	-1727.45	  426.03
     24.1700	  546.00	  554.26	-1754.26	  425.68
     24.2700	  564.00	  559.21	-1741.21	  425.32
     24.3700	  561.00	  567.15	-1752.15	  424.97
     24.4700	  654.00	  578.97	-1670.97	  424.61
     24.5700	  603.00	  594.81	-1737.81	  424.25
     24.6700	  558.00	  612.16	-1800.16	  423.90
     24.7700	  655.00	  624.16	-1715.16	  423.54
     24.8700	  608.00	  621.55	-1759.55	  423.18
     24.9700	  612.00	  603.05	-1737.05	  422.83
     25.0700	  522.00	  580.40	-1804.40	  422.47
     25.1700	  579.00	  563.23	-1730.23	  422.11
     25.2700	  565.00	  553.34	-1734.34	  421.76
     25.3700	  578.00	  548.56	-1716.56	  421.40
     25.4700	  561.00	  546.33	-1731.33	  421.04
     25.5700	  545.00	  545.12	-1746.12	  420.68
     25.6700	  567.00	  544.33	-1723.33	  420.33
     25.7700	  571.00	  543.74	-1718.74	  419.97
     25.8700	  556.00	  543.28	-1733.28	  419.61
     25.9700	  530.00	  542.93	-1758.93	  419.26
     26.0700	  557.00	  542.65	-1731.65	  418.90
     26.1700	  573.00	  542.46	-1715.46	  418.55
     26.2700	  522.00	  542.34	-1766.34	  418.19
     26.3700	  558.00	  542.29	-1730.29	  417.84
     26.4700	  537.00	  542.33	-1751.33	  417.48
     26.5700	  535.00	  542.46	-1753.46	  417.13
     26.6700	  558.00	  542.70	-1730.70	  416.77
     26.7700	  555.00	  543.07	-1734.07	  416.42
     26.8700	  581.00	  543.62	-1708.62	  416.06
     26.9700	  537.00	  544.38	-1753.38	  415.71
     27.0700	  543.00	  545.44	-1748.44	  415.36
     27.1700	  540.00	  546.93	-1752.93	  415.01
     27.2700	  541.00	  549.09	-1754.09	  414.65
     27.3700	  540.00	  552.42	-1758.42	  414.30
     27.4700	  550.00	  557.88	-1753.88	  413.95
     27.5700	  564.00	  567.20	-1749.20	  413.60
     27.6700	  589.00	  583.08	-1740.08	  413.25
     27.7700	  566.00	  609.03	-1789.03	  412.90
     27.8700	  606.00	  648.07	-1788.07	  412.55
     27.9700	  697.00	  700.29	-1749.29	  412.20
     28.0700	  832.00	  759.68	-1673.68	  411.86
     28.1700	  863.00	  811.33	-1694.33	  411.51
     28.2700	  940.00	  832.93	-1638.93	  411.16
     28.3700	  932.00	  811.44	-1625.44	  410.82
     28.4700	  737.00	  768.05	-1777.05	  410.47
     28.5700	  731.00	  737.40	-1752.40	  410.13
     28.6700	  668.00	  735.24	-1813.24	  409.79
     28.7700	  764.00	  756.99	-1738.99	  409.45
     28.8700	  774.00	  783.42	-1755.42	  409.10
     28.9700	  795.00	  787.54	-1738.54	  408.76
     29.0700	  771.00	  752.27	-1727.27	  408.42
     29.1700	  670.00	  692.44	-1768.44	  408.08
     29.2700	  649.00	  635.35	-1732.35	  407.75
     29.3700	  599.00	  594.06	-1741.06	  407.41
     29.4700	  623.00	  569.00	-1692.00	  407.07
     29.5700	  573.00	  555.39	-1728.39	  406.74
     29.6700	  585.00	  548.16	-1709.16	  406.40
     29.7700	  591.00	  544.04	-1699.04	  406.07
     29.8700	  566.00	  541.46	-1721.46	  405.74
     29.9700	  635.00	  539.81	-1650.81	  405.40
     30.0700	  566.00	  538.95	-1718.95	  405.07
     30.1700	  568.00	  539.03	-1717.03	  404.74
     30.2700	  569.00	  540.55	-1717.55	  404.41
     30.3700	  568.00	  544.53	-1722.53	  404.09
     30.4700	  584.00	  552.47	-1714.47	  403.76
     30.5700	  555.00	  565.96	-1756.96	  403.44
     30.6700	  582.00	  585.39	-1749.39	  403.11
     30.7700	  608.00	  608.36	-1746.36	  402.79
     30.8700	  596.00	  628.33	-1778.33	  402.47
     30.9700	  612.00	  635.40	-1769.40	  402.14
     31.0700	  589.00	  622.73	-1779.73	  401.83
     31.1700	  572.00	  596.91	-1770.91	  401.51
     31.2700	  532.00	  570.91	-1784.91	  401.19
     31.3700	  563.00	  551.62	-1734.62	  400.87
     31.4700	  530.00	  539.80	-1755.80	  400.56
     31.5700	  542.00	  533.42	-1737.42	  400.24
     31.6700	  544.00	  530.11	-1732.11	  399.93
     31.7700	  528.00	  528.27	-1746.27	  399.62
     31.8700	  527.00	  527.10	-1746.10	  399.31
     31.9700	  490.00	  526.28	-1782.28	  399.00
     32.0700	  532.00	  525.70	-1739.70	  398.70
     32.1700	  571.00	  525.31	-1700.31	  398.39
     32.2700	  540.00	  525.07	-1731.07	  398.08
     32.3700	  510.00	  524.99	-1760.99	  397.78
     32.4700	  539.00	  525.06	-1732.06	  397.48
     32.5700	  543.00	  525.31	-1728.31	  397.18
     32.6700	  575.00	  525.77	-1696.77	  396.88
     32.7700	  553.00	  526.48	-1719.48	  396.58
     32.8700	  556.00	  527.51	-1717.51	  396.29
     32.9700	  520.00	  529.00	-1755.00	  395.99
     33.0700	  543.00	  531.15	-1734.15	  395.70
     33.1700	  549.00	  534.46	-1731.46	  395.41
     33.2700	  558.00	  540.02	-1728.02	  395.12
     33.3700	  540.00	  550.19	-1756.19	  394.83
     33.4700	  586.00	  569.45	-1729.45	  394.54
     33.5700	  613.00	  604.84	-1737.84	  394.25
     33.6700	  652.00	  664.49	-1758.49	  393.97
     33.7700	  740.00	  751.87	-1757.87	  393.68
     33.8700	  915.00	  857.48	-1688.48	  393.40
     33.9700	 1069.00	  953.26	-1630.26	  393.12
     34.0700	 1076.00	  996.03	-1666.03	  392.84
     34.1700	 1027.00	  953.70	-1672.70	  392.57
     34.2700	  916.00	  847.91	-1677.91	  392.29
     34.3700	  790.00	  733.28	-1689.28	  392.02
     34.4700	  666.00	  643.88	-1723.88	  391.75
     34.5700	  571.00	  587.15	-1762.15	  391.48
     34.6700	  588.00	  556.09	-1714.09	  391.21
     34.7700	  544.00	  540.34	-1742.34	  390.94
     34.8700	  541.00	  532.08	-1737.08	  390.67
     34.9700	  516.00	  527.15	-1757.15	  390.41
     35.0700	  541.00	  523.75	-1728.75	  390.15
     35.1700	  512.00	  521.21	-1755.21	  389.89
     35.2700	  503.00	  519.18	-1762.18	  389.63
     35.3700	  525.00	  517.53	-1738.53	  389.37
     35.4700	  472.00	  516.15	-1790.15	  389.11
     35.5700	  509.00	  514.99	-1751.99	  388.86
     35.6700	  532.00	  513.99	-1727.99	  388.61
     35.7700	  511.00	  513.11	-1748.11	  388.36
     35.8700	  532.00	  512.34	-1726.34	  388.11
     35.9700	  520.00	  512.14	-1738.14	  387.86
     36.0700	  526.00	  511.53	-1731.53	  387.62
     36.1700	  513.00	  510.98	-1743.98	  387.37
     36.2700	  516.00	  510.47	-1740.47	  387.13
     36.3700	  542.00	  510.02	-1714.02	  386.89
     36.4700	  534.00	  509.60	-1721.60	  386.65
     36.5700	  492.00	  509.22	-1763.22	  386.41
     36.6700	  508.00	  508.89	-1746.89	  386.18
     36.7700	  516.00	  508.60	-1738.60	  385.95
     36.8700	  503.00	  508.37	-1751.37	  385.71
     36.9700	  548.00	  508.26	-1706.26	  385.49
     37.0700	  540.00	  508.36	-1714.36	  385.26
     37.1700	  560.00	  508.90	-1694.90	  385.03
     37.2700	  507.00	  510.16	-1749.16	  384.81
     37.3700	  531.00	  512.44	-1727.44	  384.59
     37.4700	  518.00	  515.76	-1743.76	  384.36
     37.5700	  503.00	  519.56	-1762.56	  384.15
     37.6700	  530.00	  522.64	-1738.64	  383.93
     37.7700	  523.00	  523.60	-1746.60	  383.71
     37.8700	  496.00	  522.06	-1772.06	  383.50
     37.9700	  497.00	  519.08	-1768.08	  383.29
     38.0700	  463.00	  515.71	-1798.71	  383.08
     38.1700	  479.00	  512.40	-1779.40	  382.87
     38.2700	  554.00	  509.47	-1701.47	  382.67
     38.3700	  476.00	  507.20	-1777.20	  382.46
     38.4700	  521.00	  505.60	-1730.60	  382.26
     38.5700	  493.00	  504.55	-1757.55	  382.06
     38.6700	  501.00	  503.87	-1748.87	  381.86
     38.7700	  488.00	  503.31	-1761.31	  381.67
     38.8700	  519.00	  502.96	-1729.96	  381.47
     38.9700	  509.00	  502.68	-1739.68	  381.28
     39.0700	  494.00	  502.43	-1754.43	  381.09
     39.1700	  519.00	  502.19	-1729.19	  380.90
     39.2700	  546.00	  501.90	-1701.90	  380.71
     39.3700	  496.00	  501.70	-1751.70	  380.53
     39.4700	  522.00	  501.65	-1725.65	  380.34
     39.5700	  505.00	  501.47	-1742.47	  380.16
     39.6700	  499.00	  501.31	-1748.31	  379.98
     39.7700	  482.00	  501.15	-1765.15	  379.81
     39.8700	  486.00	  501.01	-1761.01	  379.63
     39.9700	  474.00	  500.87	-1772.87	  379.46
     40.0700	  503.00	  500.74	-1743.74	  379.29
     40.1700	  465.00	  500.63	-1781.63	  379.12
     40.2700	  507.00	  500.53	-1739.53	  378.95
     40.3700	  501.00	  500.43	-1745.43	  378.78
     40.4700	  489.00	  500.35	-1757.35	  378.62
     40.5700	  467.00	  500.29	-1779.29	  378.46
     40.6700	  470.00	  500.25	-1776.25	  378.30
     40.7700	  469.00	  500.22	-1777.22	  378.14
     40.8700	  487.00	  500.22	-1759.22	  377.99
     40.9700	  486.00	  500.24	-1760.24	  377.83
     41.0700	  497.00	  500.30	-1749.30	  377.68
     41.1700	  460.00	  500.36	-1786.36	  377.53
     41.2700	  515.00	  500.51	-1731.51	  377.38
     41.3700	  521.00	  500.73	-1725.73	  377.24
     41.4700	  449.00	  501.03	-1798.03	  377.09
     41.5700	  544.00	  501.88	-1703.88	  376.95
     41.6700	  512.00	  502.49	-1736.49	  376.81
     41.7700	  477.00	  503.40	-1772.40	  376.67
     41.8700	  486.00	  504.93	-1764.93	  376.53
     41.9700	  448.00	  507.77	-1805.77	  376.40
     42.0700	  485.00	  513.23	-1774.23	  376.27
     42.1700	  519.00	  523.40	-1750.40	  376.14
     42.2700	  544.00	  540.67	-1742.67	  376.01
     42.3700	  585.00	  566.46	-1727.46	  375.88
     42.4700	  562.00	  598.78	-1782.78	  375.76
     42.5700	  578.00	  630.77	-1798.77	  375.63
     42.6700	  590.00	  651.02	-1807.02	  375.51
     42.7700	  558.00	  649.11	-1837.11	  375.40
     42.8700	  601.00	  625.15	-1770.15	  375.28
     42.9700	  552.00	  591.18	-1785.18	  375.16
     43.0700	  551.00	  559.07	-1754.07	  375.05
     43.1700	  510.00	  534.80	-1770.80	  374.94
     43.2700	  484.00	  519.23	-1781.23	  374.83
     43.3700	  508.00	  510.44	-1748.44	  374.72
     43.4700	  515.00	  505.86	-1736.86	  374.62
     43.5700	  502.00	  503.46	-1747.46	  374.52
     43.6700	  485.00	  502.28	-1763.28	  374.42
     43.7700	  505.00	  501.39	-1742.39	  374.32
     43.8700	  489.00	  500.75	-1757.75	  374.22
     43.9700	  463.00	  500.30	-1783.30	  374.12
     44.0700	  533.00	  499.92	-1712.92	  374.03
     44.1700	  545.00	  499.63	-1700.63	  373.94
     44.2700	  497.00	  499.40	-1748.40	  373.85
     44.3700	  470.00	  499.22	-1775.22	  373.76
     44.4700	  503.00	  499.09	-1742.09	  373.68
     44.5700	  477.00	  498.86	-1767.86	  373.59
     44.6700	  482.00	  498.79	-1762.79	  373.51
     44.7700	  535.00	  498.76	-1709.76	  373.43
     44.8700	  510.00	  498.75	-1734.75	  373.36
     44.9700	  529.00	  498.77	-1715.77	  373.28
     45.0700	  515.00	  498.81	-1729.81	  373.21
     45.1700	  503.00	  499.06	-1742.06	  373.13
     45.2700	  486.00	  499.15	-1759.15	  373.06
     45.3700	  503.00	  499.26	-1742.26	  373.00
     45.4700	  498.00	  499.40	-1747.40	  372.93
     45.5700	  467.00	  499.55	-1778.55	  372.87
     45.6700	  470.00	  499.74	-1775.74	  372.80
     45.7700	  524.00	  499.95	-1721.95	  372.74
     45.8700	  479.00	  500.19	-1767.19	  372.68
     45.9700	  488.00	  500.46	-1758.46	  372.63
     46.0700	  497.00	  500.76	-1749.76	  372.57
     46.1700	  499.00	  501.11	-1748.11	  372.52
     46.2700	  540.00	  501.49	-1707.49	  372.47
     46.3700	  461.00	  501.93	-1786.93	  372.42
     46.4700	  515.00	  502.43	-1733.43	  372.37
     46.5700	  526.00	  503.00	-1723.00	  372.33
     46.6700	  534.00	  503.66	-1715.66	  372.28
     46.7700	  546.00	  504.43	-1704.43	  372.24
     46.8700	  469.00	  505.38	-1782.38	  372.20
     46.9700	  460.00	  506.61	-1792.61	  372.16
     47.0700	  531.00	  508.39	-1723.39	  372.13
     47.1700	  507.00	  511.32	-1750.32	  372.09
     47.2700	  499.00	  516.10	-1763.10	  372.06
     47.3700	  492.00	  523.94	-1777.94	  372.03
     47.4700	  537.00	  535.89	-1744.89	  372.00
     47.5700	  567.00	  552.13	-1731.13	  371.98
     47.6700	  558.00	  571.07	-1759.07	  371.95
     47.7700	  622.00	  588.81	-1712.81	  371.93
     47.8700	  569.00	  599.68	-1776.68	  371.91
     47.9700	  583.00	  599.27	-1762.27	  371.89
     48.0700	  535.00	  588.39	-1799.39	  371.87
     48.1700	  544.00	  572.67	-1774.67	  371.85
     48.2700	  557.00	  557.68	-1746.68	  371.84
     48.3700	  572.00	  546.59	-1720.59	  371.83
     48.4700	  559.00	  540.33	-1727.33	  371.81
     48.5700	  550.00	  538.38	-1734.38	  371.81
     48.6700	  555.00	  539.70	-1730.70	  371.80
     48.7700	  552.00	  543.41	-1737.41	  371.79
     48.8700	  555.00	  549.05	-1740.05	  371.79
     48.9700	  530.00	  556.71	-1772.71	  371.79
     49.0700	  517.00	  567.07	-1796.07	  371.79
     49.1700	  605.00	  581.86	-1722.86	  371.79
     49.2700	  600.00	  604.64	-1750.64	  371.79
     49.3700	  684.00	  642.20	-1704.20	  371.80
     49.4700	  733.00	  706.29	-1719.29	  371.81
     49.5700	  789.00	  812.58	-1769.58	  371.81
     49.6700	  928.00	  979.85	-1797.85	  371.82
     49.7700	 1158.00	 1221.78	-1809.78	  371.84
     49.8700	 1449.00	 1536.32	-1833.32	  371.85
     49.9700	 1869.00	 1893.76	-1770.76	  371.87
     50.0700	 2272.00	 2227.60	-1701.60	  371.88
     50.1700	 2436.00	 2439.34	-1749.34	  371.90
     50.2700	 2529.00	 2441.84	-1658.84	  371.92
     50.3700	 2359.00	 2231.73	-1618.73	  371.94
     50.4700	 1890.00	 1896.79	-1752.79	  371.97
     50.5700	 1422.00	 1540.09	-1864.09	  371.99
     50.6700	 1065.00	 1229.68	-1910.68	  372.02
     50.7700	  774.00	  994.99	-1966.99	  372.05
     50.8700	  687.00	  837.34	-1896.34	  372.08
     50.9700	  636.00	  741.38	-1851.38	  372.11
     51.0700	  611.00	  686.00	-1821.00	  372.14
     51.1700	  631.00	  652.16	-1767.16	  372.18
     51.2700	  608.00	  627.25	-1765.25	  372.22
     51.3700	  562.00	  605.96	-1789.96	  372.25
     51.4700	  566.00	  587.47	-1767.47	  372.29
     51.5700	  571.00	  572.26	-1747.26	  372.34
     51.6700	  554.00	  560.61	-1752.61	  372.38
     51.7700	  528.00	  552.30	-1770.30	  372.42
     51.8700	  545.00	  546.68	-1747.68	  372.47
     51.9700	  551.00	  543.00	-1738.00	  372.52
     52.0700	  547.00	  540.69	-1739.69	  372.57
     52.1700	  565.00	  539.63	-1720.63	  372.62
     52.2700	  549.00	  539.30	-1736.30	  372.67
     52.3700	  548.00	  540.01	-1738.01	  372.72
     52.4700	  530.00	  542.22	-1758.22	  372.78
     52.5700	  570.00	  546.98	-1722.98	  372.83
     52.6700	  583.00	  556.45	-1719.45	  372.89
     52.7700	  559.00	  574.63	-1761.63	  372.95
     52.8700	  630.00	  607.59	-1723.59	  373.01
     52.9700	  699.00	  662.77	-1709.77	  373.08
     53.0700	  814.00	  746.37	-1678.37	  373.14
     53.1700	  944.00	  859.02	-1661.02	  373.21
     53.2700	 1067.00	  991.01	-1670.01	  373.27
     53.3700	 1163.00	 1119.26	-1702.26	  373.34
     53.4700	 1194.00	 1208.95	-1760.95	  373.41
     53.5700	 1153.00	 1226.45	-1819.45	  373.48
     53.6700	 1081.00	 1163.58	-1828.58	  373.56
     53.7700	 1003.00	 1046.12	-1789.12	  373.63
     53.8700	  856.00	  911.75	-1801.75	  373.70
     53.9700	  738.00	  789.33	-1797.33	  373.78
     54.0700	  640.00	  693.78	-1799.78	  373.86
     54.1700	  636.00	  628.08	-1738.08	  373.94
     54.2700	  592.00	  587.60	-1741.60	  374.02
     54.3700	  567.00	  564.85	-1743.85	  374.10
     54.4700	  568.00	  552.92	-1730.92	  374.18
     54.5700	  560.00	  547.00	-1733.00	  374.27
     54.6700	  570.00	  544.23	-1720.23	  374.36
     54.7700	  592.00	  543.18	-1697.18	  374.44
     54.8700	  568.00	  543.22	-1721.22	  374.53
     54.9700	  594.00	  544.09	-1696.09	  374.62
     55.0700	  586.00	  545.71	-1705.71	  374.71
     55.1700	  558.00	  548.12	-1736.12	  374.80
     55.2700	  548.00	  551.33	-1749.33	  374.90
     55.3700	  579.00	  555.48	-1722.48	  374.99
     55.4700	  567.00	  560.79	-1739.79	  375.09
     55.5700	  566.00	  567.68	-1747.68	  375.19
     55.6700	  578.00	  576.96	-1744.96	  375.29
     55.7700	  603.00	  590.29	-1733.29	  375.38
     55.8700	  614.00	  611.02	-1743.02	  375.49
     55.9700	  639.00	  645.37	-1752.37	  375.59
     56.0700	  653.00	  703.74	-1796.74	  375.69
     56.1700	  740.00	  801.07	-1807.07	  375.80
     56.2700	  899.00	  955.18	-1802.18	  375.90
     56.3700	 1074.00	 1181.47	-1853.47	  376.01
     56.4700	 1466.00	 1484.49	-1764.49	  376.12
     56.5700	 1728.00	 1848.23	-1866.23	  376.22
     56.6700	 2192.00	 2228.29	-1782.29	  376.33
     56.7700	 2424.00	 2549.79	-1871.79	  376.45
     56.8700	 2610.00	 2720.73	-1856.73	  376.56
     56.9700	 2662.00	 2677.98	-1761.98	  376.67
     57.0700	 2456.00	 2438.05	-1728.05	  376.78
     57.1700	 2081.00	 2083.70	-1748.70	  376.90
     57.2700	 1634.00	 1704.78	-1816.78	  377.02
     57.3700	 1280.00	 1364.70	-1830.70	  377.13
     57.4700	 1075.00	 1095.72	-1766.72	  377.25
     57.5700	  860.00	  904.60	-1790.60	  377.37
     57.6700	  774.00	  781.70	-1753.70	  377.49
     57.7700	  681.00	  710.47	-1775.47	  377.61
     57.8700	  679.00	  675.19	-1742.19	  377.74
     57.9700	  708.00	  664.68	-1702.68	  377.86
     58.0700	  687.00	  673.00	-1732.00	  377.98
     58.1700	  655.00	  698.19	-1789.19	  378.11
     58.2700	  754.00	  740.37	-1732.37	  378.23
     58.3700	  870.00	  799.80	-1675.80	  378.36
     58.4700	  885.00	  875.18	-1736.18	  378.49
     58.5700	 1133.00	  961.98	-1574.98	  378.62
     58.6700	 1258.00	 1051.81	-1539.81	  378.75
     58.7700	 1424.00	 1134.75	-1456.75	  378.88
     58.8700	 1583.00	 1203.69	-1366.69	  379.01
     58.9700	 1538.00	 1254.35	-1462.35	  379.14
     59.0700	 1632.00	 1281.15	-1395.15	  379.28
     59.1700	 1537.00	 1279.16	-1488.16	  379.41
     59.2700	 1458.00	 1252.27	-1540.27	  379.54
     59.3700	 1342.00	 1213.67	-1617.67	  379.68
     59.4700	 1303.00	 1177.24	-1620.24	  379.82
     59.5700	 1214.00	 1152.40	-1684.40	  379.95
     59.6700	 1192.00	 1146.63	-1700.63	  380.09
     59.7700	 1146.00	 1168.12	-1768.12	  380.23
     59.8700	 1281.00	 1221.92	-1686.92	  380.37
     59.9700	 1284.00	 1303.90	-1765.90	  380.51
     60.0700	 1440.00	 1397.65	-1703.65	  380.65
     60.1700	 1463.00	 1475.12	-1758.12	  380.79
     60.2700	 1542.00	 1503.52	-1707.52	  380.94
     60.3700	 1547.00	 1462.25	-1661.25	  381.08
     60.4700	 1520.00	 1357.65	-1583.65	  381.22
     60.5700	 1317.00	 1216.43	-1645.43	  381.37
     60.6700	 1085.00	 1067.47	-1728.47	  381.51
     60.7700	  891.00	  932.00	-1787.00	  381.66
     60.8700	  814.00	  822.03	-1754.03	  381.80
     60.9700	  669.00	  741.75	-1818.75	  381.95
     61.0700	  645.00	  690.20	-1791.20	  382.10
     61.1700	  651.00	  664.18	-1759.18	  382.25
     61.2700	  679.00	  661.10	-1728.10	  382.40
     61.3700	  653.00	  680.60	-1773.60	  382.54
     61.4700	  669.00	  724.76	-1801.76	  382.69
     61.5700	  771.00	  796.85	-1771.85	  382.84
     61.6700	  838.00	  898.83	-1806.83	  383.00
     61.7700	  936.00	 1028.39	-1838.39	  383.15
     61.8700	 1092.00	 1176.17	-1830.17	  383.30
     61.9700	 1195.00	 1323.97	-1874.97	  383.45
     62.0700	 1353.00	 1444.73	-1837.73	  383.60
     62.1700	 1443.00	 1507.63	-1810.63	  383.76
     62.2700	 1421.00	 1492.23	-1817.23	  383.91
     62.3700	 1337.00	 1403.13	-1812.13	  384.07
     62.4700	 1147.00	 1266.44	-1865.44	  384.22
     62.5700	 1076.00	 1112.88	-1782.88	  384.38
     62.6700	  949.00	  966.51	-1763.51	  384.53
     62.7700	  765.00	  842.01	-1823.01	  384.69
     62.8700	  677.00	  745.49	-1814.49	  384.85
     62.9700	  621.00	  676.51	-1801.51	  385.00
     63.0700	  565.00	  630.61	-1811.61	  385.16
     63.1700	  600.00	  601.93	-1747.93	  385.32
     63.2700	  636.00	  585.02	-1695.02	  385.48
     63.3700	  596.00	  575.81	-1725.81	  385.63
     63.4700	  596.00	  571.86	-1721.86	  385.79
     63.5700	  611.00	  572.26	-1707.26	  385.95
     63.6700	  582.00	  577.34	-1741.34	  386.11
     63.7700	  593.00	  588.48	-1741.48	  386.27
     63.8700	  573.00	  607.70	-1780.70	  386.43
     63.9700	  629.00	  637.16	-1754.16	  386.59
     64.0700	  746.00	  678.34	-1678.34	  386.75
     64.1700	  759.00	  731.06	-1718.06	  386.91
     64.2700	  878.00	  792.56	-1660.56	  387.07
     64.3700	  892.00	  856.88	-1710.88	  387.23
     64.4700	 1015.00	  914.70	-1645.70	  387.39
     64.5700	 1034.00	  954.98	-1666.98	  387.56
     64.6700	  971.00	  968.53	-1743.53	  387.72
     64.7700	 1018.00	  954.09	-1682.09	  387.88
     64.8700	 1007.00	  916.15	-1655.15	  388.04
     64.9700	  839.00	  863.64	-1770.65	  388.20
     65.0700	  813.00	  806.29	-1739.29	  388.36
     65.1700	  770.00	  751.98	-1727.98	  388.53
     65.2700	  778.00	  705.24	-1673.24	  388.69
     65.3700	  710.00	  667.38	-1703.38	  388.85
     65.4700	  676.00	  637.65	-1707.65	  389.01
     65.5700	  625.00	  614.66	-1735.66	  389.18
     65.6700	  571.00	  597.11	-1772.11	  389.34
     65.7700	  652.00	  583.99	-1677.99	  389.50
     65.8700	  623.00	  574.50	-1697.50	  389.67
     65.9700	  554.00	  567.99	-1759.99	  389.83
     66.0700	  582.00	  563.98	-1727.98	  389.99
     66.1700	  556.00	  562.04	-1752.04	  390.15
     66.2700	  559.00	  561.80	-1748.80	  390.32
     66.3700	  515.00	  563.01	-1794.01	  390.48
     66.4700	  584.00	  565.52	-1727.52	  390.64
     66.5700	  511.00	  569.49	-1804.49	  390.80
     66.6700	  543.00	  575.11	-1778.11	  390.97
     66.7700	  564.00	  583.35	-1765.35	  391.13
     66.8700	  582.00	  595.91	-1759.91	  391.29
     66.9700	  576.00	  615.71	-1785.71	  391.46
     67.0700	  653.00	  647.39	-1740.39	  391.62
     67.1700	  622.00	  697.56	-1821.56	  391.78
     67.2700	  711.00	  774.55	-1809.55	  391.94
     67.3700	  880.00	  887.38	-1753.38	  392.10
     67.4700	 1048.00	 1043.53	-1741.53	  392.26
     67.5700	 1216.00	 1245.44	-1775.44	  392.43
     67.6700	 1547.00	 1488.09	-1687.09	  392.59
     67.7700	 1796.00	 1755.14	-1705.14	  392.75
     67.8700	 1928.00	 2018.32	-1836.32	  392.91
     67.9700	 2357.00	 2237.86	-1626.86	  393.07
     68.0700	 2403.00	 2369.03	-1712.03	  393.23
     68.1700	 2395.00	 2378.34	-1729.34	  393.39
     68.2700	 2258.00	 2263.21	-1751.21	  393.55
     68.3700	 2022.00	 2053.71	-1777.71	  393.71
     68.4700	 1837.00	 1794.50	-1703.50	  393.87
     68.5700	 1523.00	 1526.35	-1749.35	  394.03
     68.6700	 1331.00	 1279.47	-1694.47	  394.19
     68.7700	 1023.00	 1071.76	-1794.76	  394.35
     68.8700	  884.00	  909.77	-1771.77	  394.51
     68.9700	  774.00	  791.81	-1763.81	  394.66
     69.0700	  693.00	  710.88	-1763.88	  394.82
     69.1700	  678.00	  658.06	-1726.06	  394.98
     69.2700	  669.00	  624.79	-1701.79	  395.13
     69.3700	  598.00	  604.20	-1752.20	  395.29
     69.4700	  595.00	  591.39	-1742.39	  395.45
     69.5700	  594.00	  583.19	-1735.19	  395.60
     69.6700	  576.00	  577.74	-1747.74	  395.76
     69.7700	  590.00	  574.00	-1730.00	  395.91
     69.8700	  565.00	  571.44	-1752.44	  396.07
     69.9700	  603.00	  569.75	-1712.75	  396.22
     70.0700	  627.00	  568.83	-1687.83	  396.37
     70.1700	  584.00	  568.62	-1730.62	  396.53
     70.2700	  549.00	  569.13	-1766.13	  396.68
     70.3700	  551.00	  570.45	-1765.45	  396.83
     70.4700	  577.00	  572.84	-1741.84	  396.98
     70.5700	  570.00	  576.76	-1752.76	  397.13
     70.6700	  551.00	  583.06	-1778.06	  397.28
     70.7700	  599.00	  593.25	-1740.25	  397.43
     70.8700	  588.00	  609.70	-1767.70	  397.58
     70.9700	  593.00	  635.90	-1788.90	  397.73
     71.0700	  679.00	  676.56	-1743.56	  397.88
     71.1700	  713.00	  737.28	-1770.28	  398.03
     71.2700	  803.00	  823.76	-1766.76	  398.18
     71.3700	  928.00	  940.27	-1758.27	  398.32
     71.4700	 1051.00	 1088.72	-1783.72	  398.47
     71.5700	 1295.00	 1263.47	-1714.47	  398.61
     71.6700	 1275.00	 1454.83	-1925.83	  398.76
     71.7700	 1579.00	 1644.99	-1811.99	  398.90
     71.8700	 1750.00	 1809.48	-1805.48	  399.04
     71.9700	 1884.00	 1920.17	-1782.17	  399.19
     72.0700	 1946.00	 1953.42	-1753.42	  399.33
     72.1700	 1890.00	 1901.21	-1757.21	  399.47
     72.2700	 1719.00	 1775.80	-1802.80	  399.61
     72.3700	 1688.00	 1603.89	-1661.89	  399.75
     72.4700	 1583.00	 1412.79	-1575.79	  399.89
     72.5700	 1429.00	 1225.29	-1542.29	  400.03
     72.6700	 1195.00	 1057.21	-1608.21	  400.16
     72.7700	 1087.00	  917.24	-1576.24	  400.30
     72.8700	  992.00	  807.83	-1561.83	  400.44
     72.9700	  900.00	  726.92	-1572.92	  400.57
     73.0700	  808.00	  669.85	-1607.85	  400.71
     73.1700	  756.00	  631.05	-1621.05	  400.84
     73.2700	  733.00	  605.32	-1618.32	  400.97
     73.3700	  707.00	  588.41	-1627.41	  401.10
     73.4700	  619.00	  577.23	-1704.23	  401.23
     73.5700	  567.00	  569.72	-1748.72	  401.36
     73.6700	  590.00	  564.60	-1720.60	  401.49
     73.7700	  593.00	  561.12	-1714.12	  401.62
     73.8700	  578.00	  558.85	-1726.85	  401.75
     73.9700	  614.00	  557.53	-1689.53	  401.88
     74.0700	  561.00	  556.99	-1741.99	  402.00
     74.1700	  604.00	  557.04	-1699.04	  402.13
     74.2700	  633.00	  557.50	-1670.50	  402.25
     74.3700	  602.00	  558.13	-1702.13	  402.37
     74.4700	  656.00	  558.67	-1648.67	  402.50
     74.5700	  615.00	  558.83	-1689.83	  402.62
     74.6700	  614.00	  558.41	-1690.41	  402.74
     74.7700	  623.00	  557.34	-1680.34	  402.86
     74.8700	  615.00	  555.76	-1686.76	  402.97
     74.9700	  619.00	  553.94	-1680.94	  403.09
     75.0700	  568.00	  552.19	-1730.19	  403.21
     75.1700	  592.00	  550.87	-1704.87	  403.32
     75.2700	  560.00	  550.27	-1736.27	  403.44
     75.3700	  530.00	  550.85	-1766.85	  403.55
     75.4700	  596.00	  553.07	-1703.07	  403.66
     75.5700	  576.00	  557.40	-1727.40	  403.77
     75.6700	  590.00	  564.27	-1720.27	  403.88
     75.7700	  596.00	  574.37	-1724.37	  403.99
     75.8700	  556.00	  587.91	-1777.91	  404.10
     75.9700	  621.00	  604.86	-1729.86	  404.21
     76.0700	  658.00	  624.73	-1712.73	  404.31
     76.1700	  660.00	  646.41	-1732.41	  404.42
     76.2700	  703.00	  668.12	-1711.12	  404.52
     76.3700	  634.00	  687.50	-1799.50	  404.62
     76.4700	  697.00	  701.82	-1750.82	  404.72
     76.5700	  702.00	  708.53	-1752.53	  404.82
     76.6700	  671.00	  706.25	-1781.25	  404.92
     76.7700	  706.00	  695.43	-1735.43	  405.02
     76.8700	  633.00	  678.14	-1791.14	  405.12
     76.9700	  656.00	  656.92	-1746.92	  405.21
     77.0700	  652.00	  634.73	-1728.73	  405.31
     77.1700	  632.00	  613.48	-1727.48	  405.40
     77.2700	  578.00	  594.59	-1762.59	  405.49
     77.3700	  537.00	  578.84	-1787.84	  405.58
     77.4700	  540.00	  566.44	-1772.44	  405.67
     77.5700	  515.00	  557.17	-1788.17	  405.76
     77.6700	  511.00	  550.56	-1785.56	  405.85
     77.7700	  490.00	  546.05	-1802.05	  405.93
     77.8700	  534.00	  543.07	-1755.07	  406.02
     77.9700	  493.00	  541.16	-1794.16	  406.10
     78.0700	  507.00	  539.95	-1778.95	  406.18
     78.1700	  505.00	  539.19	-1780.19	  406.26
     78.2700	  520.00	  538.73	-1764.73	  406.34
     78.3700	  521.00	  538.45	-1763.45	  406.42
     78.4700	  524.00	  538.30	-1760.30	  406.50
     78.5700	  577.00	  538.26	-1707.26	  406.57
     78.6700	  470.00	  538.33	-1814.33	  406.64
     78.7700	  554.00	  538.50	-1730.50	  406.72
     78.8700	  539.00	  538.81	-1745.81	  406.79
     78.9700	  518.00	  539.28	-1767.28	  406.86
     79.0700	  524.00	  539.97	-1761.97	  406.93
     79.1700	  560.00	  540.91	-1726.91	  407.00
     79.2700	  492.00	  541.99	-1795.99	  407.06
     79.3700	  497.00	  543.65	-1792.65	  407.13
     79.4700	  492.00	  545.76	-1799.76	  407.19
     79.5700	  539.00	  548.40	-1755.40	  407.25
     79.6700	  570.00	  551.66	-1727.66	  407.31
     79.7700	  516.00	  555.63	-1785.63	  407.37
     79.8700	  493.00	  560.48	-1813.48	  407.43
     79.9700	  529.00	  566.35	-1783.35	  407.48
     80.0700	  550.00	  573.50	-1769.50	  407.54
     80.1700	  629.00	  582.20	-1699.20	  407.59
     80.2700	  568.00	  592.78	-1770.78	  407.65
     80.3700	  595.00	  605.52	-1756.52	  407.70
     80.4700	  614.00	  620.51	-1752.51	  407.74
     80.5700	  575.00	  637.57	-1808.57	  407.79
     80.6700	  637.00	  656.16	-1765.16	  407.84
     80.7700	  628.00	  675.32	-1793.32	  407.88
     80.8700	  692.00	  693.74	-1747.74	  407.93
     80.9700	  646.00	  709.93	-1809.93	  407.97
     81.0700	  683.00	  722.49	-1785.49	  408.01
     81.1700	  704.00	  730.42	-1772.42	  408.05
     81.2700	  769.00	  733.10	-1710.10	  408.09
     81.3700	  736.00	  730.37	-1740.37	  408.12
     81.4700	  783.00	  722.58	-1685.58	  408.16
     81.5700	  740.00	  710.52	-1716.52	  408.19
     81.6700	  763.00	  695.22	-1678.22	  408.22
     81.7700	  722.00	  677.76	-1701.76	  408.25
     81.8700	  732.00	  659.26	-1673.26	  408.28
     81.9700	  751.00	  640.73	-1635.73	  408.30
     82.0700	  638.00	  623.22	-1731.22	  408.33
     82.1700	  686.00	  607.36	-1667.36	  408.35
     82.2700	  636.00	  593.56	-1703.56	  408.38
     82.3700	  643.00	  581.97	-1684.97	  408.40
     82.4700	  585.00	  572.59	-1733.59	  408.42
     82.5700	  598.00	  565.28	-1713.28	  408.43
     82.6700	  520.00	  559.94	-1785.94	  408.45
     82.7700	  583.00	  556.37	-1719.37	  408.46
     82.8700	  558.00	  554.42	-1742.42	  408.48
     82.9700	  533.00	  553.95	-1766.95	  408.49
     83.0700	  540.00	  554.86	-1760.86	  408.50
     83.1700	  543.00	  557.06	-1760.06	  408.50
     83.2700	  554.00	  560.44	-1752.44	  408.51
     83.3700	  557.00	  564.85	-1753.85	  408.52
     83.4700	  550.00	  570.04	-1766.04	  408.52
     83.5700	  550.00	  575.70	-1771.70	  408.52
     83.6700	  577.00	  581.38	-1750.38	  408.52
     83.7700	  519.00	  586.55	-1813.55	  408.52
     83.8700	  554.00	  590.63	-1782.63	  408.52
     83.9700	  543.00	  593.04	-1796.04	  408.51
     84.0700	  562.00	  593.37	-1777.37	  408.50
     84.1700	  553.00	  591.55	-1784.55	  408.50
     84.2700	  520.00	  587.83	-1813.83	  408.49
     84.3700	  599.00	  582.72	-1729.72	  408.48
     84.4700	  530.00	  576.81	-1792.81	  408.46
     84.5700	  577.00	  570.63	-1739.63	  408.45
     84.6700	  539.00	  564.63	-1771.63	  408.43
     84.7700	  588.00	  559.15	-1717.15	  408.41
     84.8700	  543.00	  554.39	-1757.39	  408.39
     84.9700	  572.00	  550.47	-1724.47	  408.37
     85.0700	  525.00	  547.40	-1768.40	  408.35
     85.1700	  536.00	  545.15	-1755.15	  408.32
     85.2700	  534.00	  543.62	-1755.62	  408.30
     85.3700	  552.00	  542.73	-1736.73	  408.27
     85.4700	  504.00	  542.37	-1784.37	  408.24
     85.5700	  531.00	  542.48	-1757.48	  408.21
     85.6700	  541.00	  542.99	-1747.99	  408.18
     85.7700	  511.00	  543.87	-1778.87	  408.14
     85.8700	  505.00	  545.11	-1786.11	  408.11
     85.9700	  544.00	  546.75	-1748.75	  408.07
     86.0700	  492.00	  548.84	-1802.84	  408.03
     86.1700	  537.00	  551.45	-1760.45	  407.99
     86.2700	  501.00	  554.69	-1799.69	  407.94
     86.3700	  533.00	  558.68	-1771.68	  407.90
     86.4700	  591.00	  563.57	-1718.57	  407.85
     86.5700	  610.00	  569.46	-1705.46	  407.80
     86.6700	  517.00	  576.44	-1805.44	  407.76
     86.7700	  623.00	  584.14	-1707.14	  407.70
     86.8700	  558.00	  593.02	-1781.02	  407.65
     86.9700	  646.00	  602.38	-1702.38	  407.60
     87.0700	  625.00	  611.68	-1732.68	  407.54
     87.1700	  596.00	  620.23	-1770.23	  407.48
     87.2700	  631.00	  627.23	-1742.23	  407.42
     87.3700	  637.00	  631.86	-1740.86	  407.36
     87.4700	  689.00	  633.49	-1690.49	  407.30
     87.5700	  678.00	  631.88	-1699.88	  407.23
     87.6700	  665.00	  627.25	-1708.25	  407.16
     87.7700	  677.00	  620.28	-1689.28	  407.10
     87.8700	  627.00	  611.82	-1730.82	  407.03
     87.9700	  562.00	  602.81	-1786.81	  406.95
     88.0700	  642.00	  594.09	-1698.09	  406.88
     88.1700	  584.00	  586.37	-1748.37	  406.81
     88.2700	  617.00	  580.21	-1709.21	  406.73
     88.3700	  590.00	  575.97	-1731.97	  406.65
     88.4700	  584.00	  573.85	-1735.85	  406.57
     88.5700	  587.00	  573.85	-1732.85	  406.49
     88.6700	  582.00	  575.81	-1739.81	  406.41
     88.7700	  577.00	  579.45	-1748.45	  406.32
     88.8700	  620.00	  584.34	-1710.34	  406.23
     88.9700	  606.00	  589.96	-1729.96	  406.14
     89.0700	  615.00	  595.72	-1726.72	  406.05
     89.1700	  596.00	  600.97	-1750.97	  405.96
     89.2700	  636.00	  605.05	-1715.05	  405.87
     89.3700	  580.00	  607.38	-1773.38	  405.77
     89.4700	  612.00	  607.59	-1741.59	  405.68
     89.5700	  615.00	  605.59	-1736.59	  405.58
     89.6700	  596.00	  601.61	-1751.61	  405.48
     89.7700	  568.00	  596.10	-1774.10	  405.38
     89.8700	  529.00	  589.59	-1806.59	  405.27
     89.9700	  558.00	  582.64	-1770.64	  405.17
     90.0700	  558.00	  575.70	-1763.70	  405.06
     90.1700	  556.00	  569.13	-1759.13	  404.95
     90.2700	  544.00	  563.22	-1765.22	  404.84
     90.3700	  562.00	  558.11	-1742.11	  404.73
     90.4700	  509.00	  553.88	-1790.88	  404.61
     90.5700	  547.00	  550.53	-1749.53	  404.50
     90.6700	  517.00	  547.98	-1776.98	  404.38
     90.7700	  520.00	  546.16	-1772.16	  404.26
     90.8700	  527.00	  544.96	-1763.96	  404.14
     90.9700	  524.00	  544.28	-1766.28	  404.02
     91.0700	  539.00	  544.05	-1751.05	  403.90
     91.1700	  534.00	  544.23	-1756.23	  403.77
     91.2700	  545.00	  544.81	-1745.81	  403.65
     91.3700	  542.00	  545.82	-1749.82	  403.52
     91.4700	  539.00	  547.35	-1754.35	  403.39
     91.5700	  542.00	  549.50	-1753.50	  403.26
     91.6700	  504.00	  552.44	-1794.44	  403.12
     91.7700	  534.00	  556.33	-1768.33	  402.99
     91.8700	  525.00	  561.16	-1782.16	  402.85
     91.9700	  549.00	  567.57	-1764.57	  402.72
     92.0700	  564.00	  575.52	-1757.52	  402.58
     92.1700	  578.00	  585.11	-1753.11	  402.43
     92.2700	  558.00	  596.40	-1784.40	  402.29
     92.3700	  622.00	  609.33	-1733.33	  402.15
     92.4700	  627.00	  623.73	-1742.73	  402.00
     92.5700	  636.00	  639.28	-1749.28	  401.85
     92.6700	  682.00	  655.56	-1719.56	  401.71
     92.7700	  715.00	  671.99	-1702.99	  401.56
     92.8700	  761.00	  687.92	-1672.92	  401.40
     92.9700	  708.00	  702.69	-1740.69	  401.25
     93.0700	  770.00	  715.75	-1691.75	  401.10
     93.1700	  764.00	  726.80	-1708.80	  400.94
     93.2700	  797.00	  735.96	-1684.96	  400.78
     93.3700	  791.00	  743.70	-1698.70	  400.62
     93.4700	  860.00	  750.67	-1636.67	  400.46
     93.5700	  843.00	  757.61	-1660.61	  400.30
     93.6700	  856.00	  765.16	-1655.16	  400.13
     93.7700	  838.00	  773.89	-1681.89	  399.97
     93.8700	  833.00	  784.27	-1697.27	  399.80
     93.9700	  857.00	  796.71	-1685.71	  399.63
     94.0700	  854.00	  811.48	-1703.48	  399.46
     94.1700	  868.00	  828.60	-1706.60	  399.29
     94.2700	  823.00	  847.73	-1770.73	  399.12
     94.3700	  869.00	  868.11	-1745.11	  398.94
     94.4700	  902.00	  888.50	-1732.50	  398.77
     94.5700	  946.00	  907.24	-1707.24	  398.59
     94.6700	  884.00	  922.40	-1784.40	  398.41
     94.7700	  917.00	  932.02	-1761.02	  398.23
     94.8700	  996.00	  934.43	-1684.43	  398.05
     94.9700	  935.00	  928.72	-1739.72	  397.87
     95.0700	  929.00	  914.97	-1731.97	  397.69
     95.1700	  826.00	  894.28	-1814.28	  397.50
     95.2700	  864.00	  868.43	-1750.43	  397.31
     95.3700	  797.00	  839.51	-1788.51	  397.13
     95.4700	  747.00	  809.66	-1808.66	  396.94
     95.5700	  746.00	  780.92	-1780.92	  396.75
     95.6700	  775.00	  755.14	-1726.14	  396.55
     95.7700	  739.00	  733.97	-1740.97	  396.36
     95.8700	  690.00	  718.85	-1774.85	  396.17
     95.9700	  708.00	  711.06	-1749.06	  395.97
     96.0700	  662.00	  711.69	-1795.69	  395.77
     96.1700	  676.00	  721.64	-1791.64	  395.58
     96.2700	  723.00	  741.59	-1764.59	  395.38
     96.3700	  800.00	  771.97	-1717.97	  395.18
     96.4700	  831.00	  812.87	-1727.87	  394.97
     96.5700	  838.00	  863.98	-1771.98	  394.77
     96.6700	  898.00	  924.44	-1772.44	  394.57
     96.7700	 1033.00	  992.79	-1705.79	  394.36
     96.8700	 1045.00	 1066.87	-1767.87	  394.15
     96.9700	 1156.00	 1143.85	-1733.85	  393.94
     97.0700	 1219.00	 1220.21	-1747.21	  393.74
     97.1700	 1232.00	 1291.89	-1805.89	  393.53
     97.2700	 1367.00	 1354.38	-1733.38	  393.31
     97.3700	 1387.00	 1403.21	-1762.21	  393.10
     97.4700	 1397.00	 1434.45	-1783.45	  392.89
     97.5700	 1467.00	 1445.55	-1724.55	  392.67
     97.6700	 1401.00	 1435.81	-1780.81	  392.46
     97.7700	 1368.00	 1406.64	-1784.64	  392.24
     97.8700	 1361.00	 1361.05	-1746.05	  392.02
     97.9700	 1312.00	 1303.03	-1737.03	  391.80
     98.0700	 1239.00	 1236.97	-1743.97	  391.58
     98.1700	 1150.00	 1167.12	-1763.12	  391.36
     98.2700	 1010.00	 1097.42	-1833.42	  391.14
     98.3700	 1067.00	 1031.29	-1710.29	  390.92
     98.4700	  948.00	  971.65	-1769.65	  390.69
     98.5700	  926.00	  920.81	-1740.81	  390.47
     98.6700	  842.00	  880.60	-1784.60	  390.24
     98.7700	  806.00	  852.41	-1792.41	  390.02
     98.8700	  780.00	  837.23	-1803.23	  389.79
     98.9700	  782.00	  835.76	-1799.76	  389.56
     99.0700	  746.00	  848.44	-1848.44	  389.33
     99.1700	  852.00	  875.50	-1769.50	  389.10
     99.2700	  844.00	  916.98	-1818.98	  388.87
     99.3700	  932.00	  972.62	-1786.62	  388.64
     99.4700	  988.00	 1041.88	-1799.88	  388.40
     99.5700	 1141.00	 1123.83	-1728.83	  388.17
     99.6700	 1175.00	 1217.05	-1788.05	  387.93
     99.7700	 1344.00	 1319.49	-1721.49	  387.70
     99.8700	 1473.00	 1428.47	-1701.47	  387.46
     99.9700	 1548.00	 1540.53	-1738.53	  387.23
    100.0700	 1614.00	 1651.64	-1783.64	  386.99
    100.1700	 1797.00	 1757.27	-1706.27	  386.75
    100.2700	 1841.00	 1852.87	-1757.87	  386.51
    100.3700	 2007.00	 1934.35	-1673.35	  386.27
    100.4700	 1974.00	 1998.50	-1770.50	  386.03
    100.5700	 2125.00	 2043.18	-1664.18	  385.79
    100.6700	 2037.00	 2067.09	-1776.09	  385.55
    100.7700	 2084.00	 2069.54	-1731.54	  385.31
    100.8700	 2129.00	 2050.41	-1667.41	  385.07
    100.9700	 2016.00	 2010.38	-1740.38	  384.82
    101.0700	 2027.00	 1951.27	-1670.27	  384.58
    101.1700	 1852.00	 1876.25	-1770.25	  384.33
    101.2700	 1850.00	 1789.65	-1685.65	  384.09
    101.3700	 1748.00	 1696.49	-1694.49	  383.84
    101.4700	 1616.00	 1601.79	-1731.79	  383.60
    101.5700	 1533.00	 1510.04	-1723.04	  383.35
    101.6700	 1480.00	 1424.92	-1690.92	  383.11
    101.7700	 1352.00	 1349.11	-1743.11	  382.86
    101.8700	 1294.00	 1284.20	-1736.20	  382.61
    101.9700	 1211.00	 1230.75	-1765.75	  382.36
    102.0700	 1215.00	 1188.32	-1719.32	  382.12
    102.1700	 1134.00	 1155.58	-1767.58	  381.87
    102.2700	 1094.00	 1130.53	-1782.53	  381.62
    102.3700	 1091.00	 1110.67	-1765.67	  381.37
    102.4700	 1058.00	 1093.24	-1781.24	  381.12
    102.5700	 1134.00	 1075.62	-1687.62	  380.87
    102.6700	 1055.00	 1055.60	-1746.60	  380.62
    102.7700	 1026.00	 1031.76	-1751.76	  380.37
    102.8700	 1017.00	 1003.48	-1732.48	  380.12
    102.9700	  932.00	  970.97	-1784.97	  379.87
    103.0700	  878.00	  934.98	-1802.98	  379.62
    103.1700	  886.00	  896.60	-1756.60	  379.37
    103.2700	  901.00	  857.09	-1702.09	  379.12
    103.3700	  834.00	  817.65	-1729.65	  378.87
    103.4700	  801.00	  779.41	-1724.41	  378.62
    103.5700	  810.00	  743.31	-1679.31	  378.37
    103.6700	  685.00	  710.09	-1771.09	  378.11
    103.7700	  659.00	  680.27	-1767.27	  377.86
    103.8700	  674.00	  654.15	-1726.15	  377.61
    103.9700	  606.00	  631.81	-1771.81	  377.36
    104.0700	  616.00	  613.19	-1743.19	  377.11
    104.1700	  584.00	  598.05	-1760.05	  376.86
    104.2700	  595.00	  586.09	-1737.09	  376.61
    104.3700	  546.00	  576.93	-1776.93	  376.36
    104.4700	  577.00	  570.20	-1739.20	  376.11
    104.5700	  575.00	  565.51	-1736.51	  375.86
    104.6700	  563.00	  562.50	-1745.50	  375.61
    104.7700	  556.00	  560.86	-1750.86	  375.36
    104.8700	  543.00	  560.30	-1763.30	  375.11
    104.9700	  550.00	  560.59	-1756.59	  374.86
    105.0700	  559.00	  561.55	-1748.55	  374.62
    105.1700	  593.00	  563.03	-1716.03	  374.37
    105.2700	  514.00	  564.94	-1796.94	  374.12
    105.3700	  537.00	  567.19	-1776.19	  373.87
    105.4700	  523.00	  569.79	-1792.79	  373.63
    105.5700	  602.00	  572.76	-1716.76	  373.38
    105.6700	  507.00	  576.14	-1815.14	  373.13
    105.7700	  536.00	  580.06	-1790.06	  372.89
    105.8700	  600.00	  584.61	-1730.61	  372.64
    105.9700	  555.00	  589.93	-1780.93	  372.40
    106.0700	  593.00	  596.11	-1749.11	  372.16
    106.1700	  591.00	  603.19	-1758.19	  371.91
    106.2700	  592.00	  611.16	-1765.16	  371.67
    106.3700	  623.00	  619.95	-1742.95	  371.43
    106.4700	  606.00	  629.41	-1769.41	  371.19
    106.5700	  647.00	  639.32	-1738.32	  370.95
    106.6700	  626.00	  649.40	-1769.40	  370.71
    106.7700	  652.00	  659.30	-1753.30	  370.47
    106.8700	  643.00	  668.63	-1771.63	  370.23
    106.9700	  653.00	  676.99	-1769.99	  370.00
    107.0700	  655.00	  684.00	-1775.00	  369.76
    107.1700	  701.00	  689.35	-1734.35	  369.52
    107.2700	  705.00	  692.86	-1733.86	  369.29
    107.3700	  657.00	  694.53	-1783.53	  369.06
    107.4700	  674.00	  694.51	-1766.51	  368.83
    107.5700	  713.00	  693.13	-1726.13	  368.59
    107.6700	  691.00	  690.81	-1745.81	  368.36
    107.7700	  708.00	  688.00	-1726.00	  368.14
    107.8700	  704.00	  685.15	-1727.15	  367.91
    107.9700	  704.00	  682.60	-1724.60	  367.68
    108.0700	  699.00	  680.64	-1727.64	  367.46
    108.1700	  701.00	  679.42	-1724.42	  367.23
    108.2700	  671.00	  678.99	-1753.99	  367.01
    108.3700	  695.00	  679.28	-1730.28	  366.79
    108.4700	  683.00	  680.09	-1743.09	  366.57
    108.5700	  655.00	  681.14	-1772.14	  366.35
    108.6700	  687.00	  682.08	-1741.08	  366.13
    108.7700	  689.00	  682.50	-1739.50	  365.91
    108.8700	  705.00	  682.00	-1723.00	  365.70
    108.9700	  690.00	  680.25	-1736.25	  365.49
    109.0700	  664.00	  677.00	-1759.00	  365.27
    109.1700	  675.00	  672.17	-1743.17	  365.06
    109.2700	  641.00	  665.80	-1770.80	  364.86
    109.3700	  655.00	  658.06	-1749.06	  364.65
    109.4700	  652.00	  649.22	-1743.22	  364.44
    109.5700	  619.00	  639.60	-1766.60	  364.24
    109.6700	  644.00	  629.51	-1731.51	  364.04
    109.7700	  616.00	  619.29	-1749.29	  363.84
    109.8700	  619.00	  609.24	-1736.24	  363.64
    109.9700	  578.00	  599.60	-1767.60	  363.44
    110.0700	  640.00	  590.60	-1696.60	  363.25
    110.1700	  579.00	  582.39	-1749.39	  363.06
    110.2700	  587.00	  575.11	-1734.11	  362.87
    110.3700	  548.00	  568.79	-1766.79	  362.68
    110.4700	  576.00	  563.48	-1733.48	  362.49
    110.5700	  539.00	  559.15	-1766.15	  362.31
    110.6700	  525.00	  555.74	-1776.74	  362.12
    110.7700	  553.00	  553.20	-1746.20	  361.94
    110.8700	  542.00	  551.44	-1755.44	  361.76
    110.9700	  530.00	  550.38	-1766.38	  361.59
    111.0700	  542.00	  549.92	-1753.92	  361.41
    111.1700	  537.00	  549.98	-1758.98	  361.24
    111.2700	  541.00	  550.49	-1755.49	  361.07
    111.3700	  543.00	  551.39	-1754.39	  360.91
    111.4700	  553.00	  552.62	-1745.62	  360.74
    111.5700	  529.00	  554.15	-1771.15	  360.58
    111.6700	  557.00	  555.93	-1744.93	  360.42
    111.7700	  560.00	  557.95	-1743.95	  360.26
    111.8700	  506.00	  560.20	-1800.20	  360.11
    111.9700	  618.00	  562.67	-1690.67	  359.96
    112.0700	  542.00	  565.37	-1769.37	  359.81
    112.1700	  525.00	  568.30	-1789.30	  359.66
    112.2700	  540.00	  571.49	-1777.49	  359.52
    112.3700	  571.00	  574.97	-1749.97	  359.38
    112.4700	  594.00	  578.77	-1730.77	  359.24
    112.5700	  571.00	  582.93	-1757.93	  359.10
    112.6700	  628.00	  587.53	-1705.53	  358.97
    112.7700	  635.00	  592.66	-1703.66	  358.84
    112.8700	  617.00	  598.41	-1727.41	  358.71
    112.9700	  670.00	  604.95	-1680.95	  358.59
    113.0700	  723.00	  612.43	-1635.43	  358.47
    113.1700	  727.00	  621.15	-1640.15	  358.35
    113.2700	  738.00	  631.41	-1639.41	  358.23
    113.3700	  844.00	  643.61	-1545.61	  358.12
    113.4700	  797.00	  658.27	-1607.27	  358.02
    113.5700	  845.00	  676.03	-1577.03	  357.91
    113.6700	  906.00	  697.70	-1537.70	  357.81
    113.7700	  899.00	  724.24	-1571.24	  357.71
    113.8700	  933.00	  756.81	-1569.81	  357.62
    113.9700	 1025.00	  796.79	-1517.79	  357.52
    114.0700	  996.00	  845.76	-1595.76	  357.44
    114.1700	 1114.00	  905.52	-1537.52	  357.35
    114.2700	 1189.00	  978.09	-1535.09	  357.27
    114.3700	 1258.00	 1065.63	-1553.63	  357.19
    114.4700	 1449.00	 1170.44	-1467.44	  357.12
    114.5700	 1499.00	 1294.84	-1541.84	  357.05
    114.6700	 1628.00	 1441.14	-1559.14	  356.98
    114.7700	 1780.00	 1611.48	-1577.48	  356.92
    114.8700	 1956.00	 1807.68	-1597.68	  356.86
    114.9700	 2129.00	 2031.14	-1648.14	  356.81
    115.0700	 2359.00	 2282.58	-1669.58	  356.76
    115.1700	 2535.00	 2562.06	-1773.06	  356.71
    115.2700	 2868.00	 2868.76	-1746.76	  356.67
    115.3700	 3089.00	 3200.70	-1857.70	  356.63
    115.4700	 3314.00	 3554.85	-1986.85	  356.59
    115.5700	 3818.00	 3926.90	-1854.90	  356.56
    115.6700	 4120.00	 4311.41	-1937.41	  356.54
    115.7700	 4390.00	 4701.75	-2057.75	  356.51
    115.8700	 4742.00	 5089.97	-2093.97	  356.50
    115.9700	 5162.00	 5467.11	-2051.11	  356.48
    116.0700	 5638.00	 5823.22	-1931.22	  356.48
    116.1700	 6065.00	 6147.82	-1828.82	  356.47
    116.2700	 6287.00	 6430.13	-1889.13	  356.47
    116.3700	 6578.00	 6659.65	-1827.65	  356.48
    116.4700	 6651.00	 6827.02	-1922.02	  356.49
    116.5700	 6949.00	 6924.96	-1721.96	  356.50
    116.6700	 6984.00	 6949.08	-1711.08	  356.52
    116.7700	 6954.00	 6898.40	-1690.40	  356.54
    116.8700	 6927.00	 6775.58	-1594.58	  356.57
    116.9700	 6780.00	 6586.48	-1552.48	  356.60
    117.0700	 6644.00	 6339.52	-1441.52	  356.64
    117.1700	 6191.00	 6044.60	-1599.60	  356.68
    117.2700	 5658.00	 5712.34	-1800.34	  356.73
    117.3700	 5341.00	 5353.46	-1758.46	  356.78
    117.4700	 5016.00	 4978.14	-1708.14	  356.84
    117.5700	 4692.00	 4595.81	-1649.81	  356.91
    117.6700	 4243.00	 4214.75	-1717.75	  356.98
    117.7700	 3904.00	 3842.08	-1684.08	  357.05
    117.8700	 3662.00	 3483.82	-1567.82	  357.13
    117.9700	 3252.00	 3144.70	-1638.70	  357.21
    118.0700	 2961.00	 2828.29	-1613.29	  357.30
    118.1700	 2557.00	 2536.90	-1725.90	  357.40
    118.2700	 2304.00	 2271.83	-1713.83	  357.50
    118.3700	 1945.00	 2033.57	-1834.57	  357.61
    118.4700	 1783.00	 1821.73	-1784.73	  357.72
    118.5700	 1551.00	 1635.38	-1830.38	  357.84
    118.6700	 1338.00	 1473.00	-1881.00	  357.96
    118.7700	 1202.00	 1332.75	-1876.75	  358.09
    118.8700	 1080.00	 1212.62	-1878.62	  358.23
    118.9700	 1052.00	 1110.48	-1804.48	  358.37
    119.0700	  953.00	 1024.19	-1817.19	  358.52
    119.1700	  869.00	  951.68	-1828.68	  358.67
    119.2700	  777.00	  890.99	-1859.99	  358.83
    119.3700	  771.00	  840.38	-1815.38	  359.00
    119.4700	  703.00	  798.25	-1841.25	  359.17
    119.5700	  699.00	  763.23	-1810.23	  359.35
    119.6700	  663.00	  734.11	-1817.11	  359.53
    119.7700	  617.00	  709.89	-1838.89	  359.72
    119.8700	  641.00	  689.72	-1794.72	  359.92
    119.9700	  655.00	  672.90	-1763.90	  360.13
    120.0700	  625.00	  658.85	-1779.85	  360.34
    120.1700	  588.00	  647.10	-1805.10	  360.55
    120.2700	  601.00	  637.27	-1782.27	  360.78
    120.3700	  584.00	  629.05	-1791.05	  361.01
    120.4700	  540.00	  622.21	-1828.21	  361.25
    120.5700	  605.00	  616.55	-1757.55	  361.49
    120.6700	  575.00	  611.92	-1782.92	  361.74
    120.7700	  590.00	  608.20	-1764.20	  362.00
    120.8700	  595.00	  605.31	-1756.31	  362.27
    120.9700	  582.00	  603.16	-1767.16	  362.54
    121.0700	  546.00	  601.69	-1801.69	  362.82
    121.1700	  552.00	  600.88	-1794.88	  363.11
    121.2700	  574.00	  600.66	-1772.66	  363.40
    121.3700	  569.00	  600.99	-1777.99	  363.71
    121.4700	  572.00	  601.85	-1775.85	  364.02
    121.5700	  610.00	  603.19	-1739.19	  364.33
    121.6700	  602.00	  604.95	-1748.95	  364.66
    121.7700	  622.00	  607.06	-1731.06	  364.99
    121.8700	  614.00	  609.50	-1741.50	  365.33
    121.9700	  643.00	  612.18	-1715.18	  365.68
    122.0700	  618.00	  615.02	-1743.02	  366.03
    122.1700	  610.00	  617.93	-1753.93	  366.40
    122.2700	  646.00	  620.82	-1720.82	  366.77
    122.3700	  597.00	  623.59	-1772.59	  367.15
    122.4700	  606.00	  626.17	-1766.17	  367.53
    122.5700	  620.00	  628.44	-1754.44	  367.93
    122.6700	  642.00	  630.32	-1734.32	  368.33
    122.7700	  628.00	  631.74	-1749.74	  368.75
    122.8700	  621.00	  632.65	-1757.65	  369.17
    122.9700	  679.00	  633.01	-1700.01	  369.59
    123.0700	  654.00	  632.83	-1724.83	  370.03
    123.1700	  623.00	  632.11	-1755.11	  370.48
    123.2700	  675.00	  630.88	-1701.88	  370.93
    123.3700	  664.00	  629.20	-1711.20	  371.40
    123.4700	  670.00	  627.11	-1703.11	  371.87
    123.5700	  604.00	  624.69	-1766.69	  372.35
    123.6700	  636.00	  621.99	-1731.99	  372.84
    123.7700	  582.00	  619.09	-1783.09	  373.34
    123.8700	  638.00	  616.04	-1724.04	  373.84
    123.9700	  637.00	  612.92	-1721.92	  374.36
    124.0700	  665.00	  609.77	-1690.77	  374.89
    124.1700	  650.00	  606.65	-1702.65	  375.42
    124.2700	  643.00	  603.60	-1706.60	  375.97
    124.3700	  590.00	  600.67	-1756.67	  376.52
    124.4700	  634.00	  597.87	-1709.87	  377.08
    124.5700	  581.00	  595.24	-1760.24	  377.66
    124.6700	  647.00	  592.79	-1691.79	  378.24
    124.7700	  599.00	  590.54	-1737.54	  378.83
    124.8700	  617.00	  588.50	-1717.50	  379.43
    124.9700	  587.00	  498.87	-1657.87	  380.05
    125.0700	  619.00	  499.49	-1746.00	  380.67
    125.1700	  504.00	  500.12	-1746.00	  381.30
    125.2700	  581.00	  500.76	-1746.00	  381.94
    125.3700	  597.00	  501.42	-1746.00	  382.59
    125.4700	  592.00	  502.08	-1746.00	  383.25
    125.5700	  559.00	  502.75	-1746.00	  383.93
    125.6700	  615.00	  503.43	-1746.00	  384.61
    125.7700	  616.00	  504.13	-1746.00	  385.30
    125.8700	  539.00	  504.83	-1746.00	  386.01
    125.9700	  570.00	  505.54	-1746.00	  386.72
    126.0700	  600.00	  506.27	-1746.00	  387.44
    126.1700	  581.00	  507.00	-1746.00	  388.18
    126.2700	  554.00	  507.75	-1746.00	  388.93
    126.3700	  587.00	  508.51	-1746.00	  389.68
    126.4700	  571.00	  509.27	-1746.00	  390.45
    126.5700	  616.00	  510.05	-1746.00	  391.23
    126.6700	  580.00	  510.84	-1746.00	  392.02
    126.7700	  612.00	  511.64	-1746.00	  392.82
    126.8700	  616.00	  512.46	-1746.00	  393.63
    126.9700	  622.00	  513.28	-1746.00	  394.46
    127.0700	  568.00	  514.12	-1746.00	  395.29
    127.1700	  631.00	  514.96	-1746.00	  396.14
    127.2700	  655.00	  515.82	-1746.00	  397.00
    127.3700	  639.00	  516.69	-1746.00	  397.87
    127.4700	  683.00	  517.57	-1746.00	  398.75
    127.5700	  658.00	  518.47	-1746.00	  399.64
    127.6700	  655.00	  519.37	-1746.00	  400.55
    127.7700	  707.00	  520.29	-1746.00	  401.46
    127.8700	  741.00	  521.22	-1746.00	  402.39
    127.9700	  736.00	  522.16	-1746.00	  403.34
    128.0700	  749.00	  523.11	-1746.00	  404.29
    128.1700	  789.00	  524.08	-1746.00	  405.25
    128.2700	  812.00	  525.06	-1746.00	  406.23
    128.3700	  823.00	  526.05	-1746.00	  407.22
    128.4700	  781.00	  527.05	-1746.00	  408.23
    128.5700	    0.00	  528.07	-1746.00	  409.24
    128.6700	    0.00	  529.10	-1746.00	  410.27
     12.3070	        	        	        	        	       0	(  0  0  2)	  0  1
     24.8894	        	        	        	        	       0	(  0  0  4)	  0  1
     28.3317	        	        	        	        	       0	(  1  0  0)	  0  1
     29.0288	        	        	        	        	       0	(  1  0  1)	  0  1
     31.0349	        	        	        	        	       0	(  1  0  2)	  0  1
     34.1430	        	        	        	        	       0	(  1  0  3)	  0  1
     37.7878	        	        	        	        	       0	(  0  0  6)	  0  1
     38.1197	        	        	        	        	       0	(  1  0  4)	  0  1
     42.7694	        	        	        	        	       0	(  1  0  5)	  0  1
     47.9530	        	        	        	        	       0	(  1  0  6)	  0  1
     50.2677	        	        	        	        	       0	(  1  1  0)	  0  1
     51.2083	        	        	        	        	       0	(  0  0  8)	  0  1
     51.9906	        	        	        	        	       0	(  1  1  2)	  0  1
     53.5829	        	        	        	        	       0	(  1  0  7)	  0  1
     56.9380	        	        	        	        	       0	(  1  1  4)	  0  1
     58.7643	        	        	        	        	       0	(  2  0  0)	  0  1
     59.1559	        	        	        	        	       0	(  2  0  1)	  0  1
     59.6127	        	        	        	        	       0	(  1  0  8)	  0  1
     60.3211	        	        	        	        	       0	(  2  0  2)	  0  1
     62.2342	        	        	        	        	       0	(  2  0  3)	  0  1
     64.6319	        	        	        	        	       0	(  1  1  6)	  0  1
     64.8580	        	        	        	        	       0	(  2  0  4)	  0  1
     65.4358	        	        	        	        	       0	(  0  0 10)	  0  1
     66.0283	        	        	        	        	       0	(  1  0  9)	  0  1
     68.1519	        	        	        	        	       0	(  2  0  5)	  0  1
     72.0789	        	        	        	        	       0	(  2  0  6)	  0  1
     72.8435	        	        	        	        	       0	(  1  0 10)	  0  1
     74.6684	        	        	        	        	       0	(  1  1  8)	  0  1
     76.6125	        	        	        	        	       0	(  2  0  7)	  0  1
     80.1001	        	        	        	        	       0	(  1  0 11)	  0  1
     80.9141	        	        	        	        	       0	(  0  0 12)	  0  1
     81.0044	        	        	        	        	       0	(  2  1  0)	  0  1
     81.3442	        	        	        	        	       0	(  2  1  1)	  0  1
     81.7421	        	        	        	        	       0	(  2  0  8)	  0  1
     82.3620	        	        	        	        	       0	(  2  1  2)	  0  1
     84.0530	        	        	        	        	       0	(  2  1  3)	  0  1
     86.4124	        	        	        	        	       0	(  2  1  4)	  0  1
     86.9381	        	        	        	        	       0	(  1  1 10)	  0  1
     87.4793	        	        	        	        	       0	(  2  0  9)	  0  1
     87.8732	        	        	        	        	       0	(  1  0 12)	  0  1
     89.4378	        	        	        	        	       0	(  2  1  5)	  0  1
     93.1346	        	        	        	        	       0	(  2  1  6)	  0  1
     93.8657	        	        	        	        	       0	(  2  0 10)	  0  1
     94.8924	        	        	        	        	       0	(  3  0  0)	  0  1
     95.2297	        	        	        	        	       0	(  3  0  1)	  0  1
     96.2427	        	        	        	        	       0	(  3  0  2)	  0  1
     96.2850	        	        	        	        	       0	(  1  0 13)	  0  1
     97.5225	        	        	        	        	       0	(  2  1  7)	  0  1
     97.9358	        	        	        	        	       0	(  3  0  3)	  0  1
     98.4503	        	        	        	        	       0	(  0  0 14)	  0  1
    100.3184	        	        	        	        	       0	(  3  0  4)	  0  1
    100.9863	        	        	        	        	       0	(  2  0 11)	  0  1
    101.8058	        	        	        	        	       0	(  1  1 12)	  0  1
    102.6441	        	        	        	        	       0	(  2  1  8)	  0  1
    103.4095	        	        	        	        	       0	(  3  0  5)	  0  1
    105.5357	        	        	        	        	       0	(  1  0 14)	  0  1
    107.2439	        	        	        	        	       0	(  3  0  6)	  0  1
    108.5798	        	        	        	        	       0	(  2  1  9)	  0  1
    108.9959	        	        	        	        	       0	(  2  0 12)	  0  1
    111.8833	        	        	        	        	       0	(  3  0  7)	  0  1
    115.4751	        	        	        	        	       0	(  2  1 10)	  0  1
    115.9767	        	        	        	        	       0	(  1  0 15)	  0  1
    116.6156	        	        	        	        	       0	(  2  2  0)	  0  1
    117.4355	        	        	        	        	       0	(  3  0  8)	  0  1
    118.1304	        	        	        	        	       0	(  2  2  2)	  0  1
    118.1781	        	        	        	        	       0	(  2  0 13)	  0  1
    119.9336	        	        	        	        	       0	(  0  0 16)	  0  1
    120.6457	        	        	        	        	       0	(  1  1 14)	  0  1
    122.8149	        	        	        	        	       0	(  2  2  4)	  0  1
    123.6001	        	        	        	        	       0	(  2  1 11)	  0  1
    124.0938	        	        	        	        	       0	(  3  0  9)	  0  1
    124.6799	        	        	        	        	       0	(  3  1  0)	  0  1
    125.0900	        	        	        	        	       0	(  3  1  1)	  0  1
    126.3331	        	        	        	        	       0	(  3  1  2)	  0  1
    128.3166	        	        	        	        	       0	(  1  0 16)	  0  1
    128.4509	        	        	        	        	       0	(  3  1  3)	  0  1
    129.1050	        	        	        	        	       0	(  2  0 14)	  0  1
    131.2526	        	        	        	        	       0	(  2  2  6)	  0  1
    131.5260	        	        	        	        	       0	(  3  1  4)	  0  1
    132.2323	        	        	        	        	       0	(  3  0 10)	  0  1
    133.5097	        	        	        	        	       0	(  2  1 12)	  0  1
    135.7118	        	        	        	        	       0	(  3  1  5)	  0  1
    141.3054	        	        	        	        	       0	(  3  1  6)	  0  1
    142.7077	        	        	        	        	       0	(  3  0 11)	  0  1
    143.2409	        	        	        	        	       0	(  2  0 15)	  0  1
    144.4817	        	        	        	        	       0	(  1  0 17)	  0  1
    145.4820	        	        	        	        	       0	(  2  2  8)	  0  1
    146.6613	        	        	        	        	       0	(  2  1 13)	  0  1
    148.9756	        	        	        	        	       0	(  3  1  7)	  0  1
    149.5736	        	        	        	        	       0	(  1  1 16)	  0  1
    153.9765	        	        	        	        	       0	(  0  0 18)	  0  1
    158.5804	        	        	        	        	       0	(  3  0 12)	  0  1
    158.8276	        	        	        	        	       0	(  4  0  0)	  0  1
    159.7837	        	        	        	        	       0	(  4  0  1)	  0  1
    160.9630	        	        	        	        	       0	(  3  1  8)	  0  1
    162.9597	        	        	        	        	       0	(  4  0  2)	  0  1
    169.6827	        	        	        	        	       0	(  2  0 16)	  0  1
    170.2946	        	        	        	        	       0	(  4  0  3)	  0  1
    174.1082	        	        	        	        	       0	(  2  1 14)	  0  1
