MSG Master    CELL:    5.89787   5.89787  23.17338   90.0000   90.0000  120.0000   SPGR: P 63/m m c             TEMP:    752.15
  1   1280     2.52000     0.00000    -0.12152     0.00000     0.00000    0
    96     0     2
       0.00000      10.00000
     125.00000     130.00000
 2Theta	Yobs	Ycal	Yobs-Ycal	Backg	Posr	(hkl)	K
      0.7700	    0.00	  469.37	-1784.50	  354.32
      0.8700	    0.00	  471.88	-1784.50	  356.83
      0.9700	   41.00	  474.36	-1784.50	  359.31
      1.0700	   39.00	  476.82	-1784.50	  361.77
      1.1700	   32.00	  479.26	-1784.50	  364.21
      1.2700	   38.00	  481.67	-1784.50	  366.61
      1.3700	   47.00	  484.05	-1784.50	  369.00
      1.4700	  103.00	  486.41	-1784.50	  371.36
      1.5700	  316.00	  488.75	-1784.50	  373.70
      1.6700	  443.00	  491.06	-1784.50	  376.01
      1.7700	  571.00	  493.35	-1784.50	  378.30
      1.8700	  676.00	  495.61	-1784.50	  380.56
      1.9700	  739.00	  497.85	-1784.50	  382.80
      2.0700	  790.00	  500.07	-1784.50	  385.01
      2.1700	  789.00	  502.26	-1784.50	  387.21
      2.2700	  784.00	  504.43	-1784.50	  389.38
      2.3700	  765.00	  506.57	-1784.50	  391.52
      2.4700	  723.00	  508.70	-1784.50	  393.64
      2.5700	  693.00	  510.80	-1784.50	  395.74
      2.6700	  686.00	  512.87	-1784.50	  397.82
      2.7700	  685.00	  514.93	-1784.50	  399.87
      2.8700	  670.00	  516.96	-1784.50	  401.91
      2.9700	  631.00	  518.97	-1784.50	  403.91
      3.0700	  573.00	  520.95	-1784.50	  405.90
      3.1700	  609.00	  522.92	-1784.50	  407.87
      3.2700	  707.00	  524.86	-1784.50	  409.81
      3.3700	  900.00	  526.78	-1784.50	  411.73
      3.4700	  941.00	  528.68	-1784.50	  413.63
      3.5700	 1094.00	  530.55	-1784.50	  415.50
      3.6700	 1250.00	  532.41	-1784.50	  417.36
      3.7700	 1331.00	  534.24	-1784.50	  419.19
      3.8700	 1391.00	  536.06	-1784.50	  421.00
      3.9700	 1519.00	  537.85	-1784.50	  422.80
      4.0700	 1535.00	  539.62	-1784.50	  424.57
      4.1700	 1563.00	  541.37	-1784.50	  426.32
      4.2700	 1555.00	  543.10	-1784.50	  428.04
      4.3700	 1538.00	  544.80	-1784.50	  429.75
      4.4700	 1457.00	  546.49	-1784.50	  431.44
      4.5700	 1516.00	  548.16	-1784.50	  433.11
      4.6700	 1376.00	  549.81	-1784.50	  434.76
      4.7700	 1414.00	  551.43	-1784.50	  436.38
      4.8700	 1249.00	  553.04	-1784.50	  437.99
      4.9700	 1285.00	  554.63	-1784.50	  439.58
      5.0700	 1226.00	  556.20	-1784.50	  441.14
      5.1700	 1241.00	  557.74	-1784.50	  442.69
      5.2700	 1133.00	  559.27	-1784.50	  444.22
      5.3700	 1145.00	  560.78	-1784.50	  445.73
      5.4700	 1145.00	  562.27	-1784.50	  447.22
      5.5700	 1084.00	  563.74	-1784.50	  448.69
      5.6700	 1030.00	  565.19	-1784.50	  450.14
      5.7700	 1073.00	  566.63	-1784.50	  451.58
      5.8700	 1055.00	  568.04	-1784.50	  452.99
      5.9700	  979.00	  569.44	-1784.50	  454.39
      6.0700	  927.00	  570.81	-1784.50	  455.76
      6.1700	  899.00	  572.17	-1784.50	  457.12
      6.2700	  961.00	  573.51	-1784.50	  458.46
      6.3700	  957.00	  574.84	-1784.50	  459.78
      6.4700	  869.00	  576.14	-1784.50	  461.09
      6.5700	  910.00	  577.43	-1784.50	  462.38
      6.6700	  850.00	  578.70	-1784.50	  463.64
      6.7700	  858.00	  579.95	-1784.50	  464.90
      6.8700	  879.00	  581.18	-1784.50	  466.13
      6.9700	  847.00	  582.40	-1784.50	  467.35
      7.0700	  843.00	  583.60	-1784.50	  468.54
      7.1700	  794.00	  584.78	-1784.50	  469.73
      7.2700	  818.00	  585.94	-1784.50	  470.89
      7.3700	  777.00	  587.09	-1784.50	  472.04
      7.4700	  818.00	  588.22	-1784.50	  473.17
      7.5700	  768.00	  589.34	-1784.50	  474.28
      7.6700	  680.00	  590.43	-1784.50	  475.38
      7.7700	  759.00	  591.52	-1784.50	  476.46
      7.8700	  705.00	  592.58	-1784.50	  477.53
      7.9700	  736.00	  593.63	-1784.50	  478.58
      8.0700	  716.00	  594.66	-1784.50	  479.61
      8.1700	  687.00	  595.68	-1784.50	  480.63
      8.2700	  691.00	  596.68	-1784.50	  481.63
      8.3700	  693.00	  597.66	-1784.50	  482.61
      8.4700	  726.00	  598.63	-1784.50	  483.58
      8.5700	  691.00	  599.59	-1784.50	  484.53
      8.6700	  698.00	  600.52	-1784.50	  485.47
      8.7700	  711.00	  601.45	-1784.50	  486.40
      8.8700	  728.00	  602.35	-1784.50	  487.30
      8.9700	  679.00	  603.25	-1784.50	  488.20
      9.0700	  671.00	  604.12	-1784.50	  489.07
      9.1700	  669.00	  604.99	-1784.50	  489.94
      9.2700	  685.00	  605.83	-1784.50	  490.78
      9.3700	  728.00	  606.67	-1784.50	  491.62
      9.4700	  651.00	  607.49	-1784.50	  492.43
      9.5700	  718.00	  608.29	-1784.50	  493.24
      9.6700	  638.00	  609.08	-1784.50	  494.03
      9.7700	  670.00	  609.86	-1784.50	  494.80
      9.8700	  640.00	  610.62	-1784.50	  495.56
      9.9700	  658.00	  611.36	-1784.50	  496.31
     10.0700	  702.00	  614.03	-1696.53	  497.04
     10.1700	  659.00	  614.97	-1740.47	  497.76
     10.2700	  697.00	  615.95	-1703.45	  498.47
     10.3700	  634.00	  616.98	-1767.48	  499.16
     10.4700	  665.00	  618.10	-1737.60	  499.84
     10.5700	  687.00	  619.36	-1716.86	  500.50
     10.6700	  623.00	  620.85	-1782.35	  501.16
     10.7700	  637.00	  622.65	-1770.15	  501.79
     10.8700	  641.00	  624.85	-1768.35	  502.42
     10.9700	  639.00	  627.52	-1773.02	  503.03
     11.0700	  682.00	  630.66	-1733.16	  503.63
     11.1700	  659.00	  634.29	-1759.79	  504.22
     11.2700	  674.00	  638.45	-1748.95	  504.79
     11.3700	  627.00	  643.19	-1800.69	  505.35
     11.4700	  633.00	  648.65	-1800.15	  505.90
     11.5700	  703.00	  655.05	-1736.55	  506.44
     11.6700	  716.00	  662.66	-1731.16	  506.96
     11.7700	  721.00	  671.87	-1735.37	  507.47
     11.8700	  731.00	  682.95	-1736.45	  507.97
     11.9700	  721.00	  695.71	-1759.21	  508.46
     12.0700	  723.00	  708.89	-1770.39	  508.93
     12.1700	  757.00	  719.39	-1746.89	  509.40
     12.2700	  769.00	  722.16	-1737.66	  509.85
     12.3700	  751.00	  712.79	-1746.29	  510.29
     12.4700	  710.00	  694.04	-1768.54	  510.72
     12.5700	  705.00	  674.34	-1753.84	  511.14
     12.6700	  677.00	  658.87	-1766.37	  511.54
     12.7700	  658.00	  648.48	-1774.98	  511.94
     12.8700	  606.00	  642.15	-1820.65	  512.32
     12.9700	  568.00	  638.50	-1855.00	  512.69
     13.0700	  617.00	  636.39	-1803.89	  513.05
     13.1700	  601.00	  635.12	-1818.62	  513.40
     13.2700	  634.00	  634.31	-1784.81	  513.74
     13.3700	  605.00	  633.82	-1813.32	  514.07
     13.4700	  620.00	  633.47	-1797.97	  514.39
     13.5700	  594.00	  633.25	-1823.75	  514.70
     13.6700	  651.00	  633.11	-1766.61	  514.99
     13.7700	  630.00	  633.05	-1787.55	  515.28
     13.8700	  590.00	  633.03	-1827.53	  515.56
     13.9700	  649.00	  633.05	-1768.55	  515.82
     14.0700	  617.00	  633.10	-1800.60	  516.08
     14.1700	  599.00	  633.17	-1818.67	  516.32
     14.2700	  618.00	  633.26	-1799.76	  516.56
     14.3700	  623.00	  633.35	-1794.85	  516.79
     14.4700	  609.00	  633.45	-1808.95	  517.00
     14.5700	  628.00	  633.56	-1790.06	  517.21
     14.6700	  636.00	  633.67	-1782.17	  517.41
     14.7700	  616.00	  633.77	-1802.27	  517.60
     14.8700	  622.00	  633.88	-1796.38	  517.77
     14.9700	  599.00	  633.99	-1819.49	  517.94
     15.0700	  661.00	  634.09	-1757.59	  518.10
     15.1700	  628.00	  634.19	-1790.69	  518.25
     15.2700	  623.00	  634.29	-1795.79	  518.40
     15.3700	  595.00	  634.38	-1823.88	  518.53
     15.4700	  620.00	  634.47	-1798.97	  518.65
     15.5700	  613.00	  634.55	-1806.05	  518.77
     15.6700	  638.00	  634.62	-1781.12	  518.87
     15.7700	  601.00	  634.69	-1818.19	  518.97
     15.8700	  612.00	  634.75	-1807.25	  519.06
     15.9700	  621.00	  634.81	-1798.31	  519.14
     16.0700	  617.00	  634.86	-1802.36	  519.21
     16.1700	  602.00	  634.90	-1817.40	  519.28
     16.2700	  556.00	  634.94	-1863.44	  519.33
     16.3700	  604.00	  634.97	-1815.47	  519.38
     16.4700	  610.00	  634.99	-1809.49	  519.42
     16.5700	  599.00	  635.01	-1820.51	  519.45
     16.6700	  609.00	  635.02	-1810.52	  519.48
     16.7700	  602.00	  635.02	-1817.52	  519.49
     16.8700	  602.00	  635.02	-1817.52	  519.50
     16.9700	  647.00	  635.01	-1772.51	  519.50
     17.0700	  587.00	  634.99	-1832.49	  519.49
     17.1700	  595.00	  634.97	-1824.47	  519.48
     17.2700	  584.00	  634.94	-1835.44	  519.45
     17.3700	  591.00	  635.03	-1828.53	  519.42
     17.4700	  609.00	  634.99	-1810.49	  519.39
     17.5700	  653.00	  634.94	-1766.44	  519.34
     17.6700	  606.00	  634.88	-1813.38	  519.29
     17.7700	  620.00	  634.97	-1799.47	  519.23
     17.8700	  596.00	  634.91	-1823.41	  519.17
     17.9700	  623.00	  634.84	-1796.34	  519.09
     18.0700	  647.00	  634.76	-1772.26	  519.02
     18.1700	  605.00	  634.68	-1814.18	  518.93
     18.2700	  606.00	  634.59	-1813.09	  518.84
     18.3700	  626.00	  634.49	-1792.99	  518.74
     18.4700	  623.00	  634.39	-1795.89	  518.63
     18.5700	  608.00	  634.28	-1810.78	  518.52
     18.6700	  569.00	  634.17	-1849.67	  518.40
     18.7700	  578.00	  634.05	-1840.55	  518.27
     18.8700	  606.00	  633.92	-1812.42	  518.14
     18.9700	  653.00	  633.79	-1765.29	  518.00
     19.0700	  643.00	  633.66	-1775.16	  517.86
     19.1700	  621.00	  633.52	-1797.02	  517.71
     19.2700	  587.00	  633.37	-1830.87	  517.55
     19.3700	  569.00	  633.26	-1848.76	  517.39
     19.4700	  569.00	  633.11	-1848.61	  517.22
     19.5700	  632.00	  632.95	-1785.45	  517.05
     19.6700	  605.00	  632.78	-1812.28	  516.87
     19.7700	  615.00	  632.61	-1802.11	  516.69
     19.8700	  567.00	  632.43	-1849.93	  516.49
     19.9700	  626.00	  632.25	-1790.75	  516.30
     20.0700	  600.00	  632.07	-1816.57	  516.10
     20.1700	  574.00	  631.88	-1842.38	  515.89
     20.2700	  602.00	  631.69	-1814.19	  515.68
     20.3700	  626.00	  631.49	-1789.99	  515.46
     20.4700	  600.00	  631.29	-1815.79	  515.24
     20.5700	  623.00	  631.08	-1792.58	  515.01
     20.6700	  621.00	  630.87	-1794.37	  514.78
     20.7700	  649.00	  630.66	-1766.16	  514.54
     20.8700	  604.00	  630.44	-1810.94	  514.29
     20.9700	  615.00	  630.22	-1799.72	  514.05
     21.0700	  607.00	  630.00	-1807.50	  513.79
     21.1700	  603.00	  629.78	-1811.28	  513.54
     21.2700	  660.00	  629.55	-1754.05	  513.27
     21.3700	  609.00	  629.32	-1804.82	  513.01
     21.4700	  631.00	  629.09	-1782.59	  512.74
     21.5700	  614.00	  628.85	-1799.35	  512.46
     21.6700	  598.00	  628.62	-1815.12	  512.18
     21.7700	  559.00	  628.38	-1853.88	  511.90
     21.8700	  602.00	  628.15	-1810.65	  511.61
     21.9700	  610.00	  628.07	-1802.57	  511.31
     22.0700	  602.00	  627.84	-1810.34	  511.02
     22.1700	  582.00	  627.60	-1830.10	  510.71
     22.2700	  640.00	  627.38	-1771.88	  510.41
     22.3700	  613.00	  627.15	-1798.65	  510.10
     22.4700	  625.00	  626.93	-1786.43	  509.79
     22.5700	  614.00	  626.71	-1797.21	  509.47
     22.6700	  556.00	  626.50	-1855.00	  509.15
     22.7700	  639.00	  626.30	-1771.80	  508.82
     22.8700	  614.00	  626.12	-1796.62	  508.49
     22.9700	  618.00	  625.94	-1792.44	  508.16
     23.0700	  600.00	  625.79	-1810.29	  507.82
     23.1700	  633.00	  625.66	-1777.16	  507.48
     23.2700	  646.00	  625.56	-1764.06	  507.14
     23.3700	  611.00	  625.50	-1799.00	  506.79
     23.4700	  657.00	  625.43	-1752.93	  506.44
     23.5700	  610.00	  625.49	-1799.99	  506.09
     23.6700	  608.00	  625.64	-1802.14	  505.73
     23.7700	  670.00	  625.94	-1740.44	  505.37
     23.8700	  611.00	  626.45	-1799.95	  505.01
     23.9700	  637.00	  627.31	-1774.81	  504.65
     24.0700	  631.00	  628.75	-1782.25	  504.28
     24.1700	  635.00	  631.12	-1780.62	  503.90
     24.2700	  628.00	  634.91	-1791.41	  503.53
     24.3700	  637.00	  640.68	-1788.18	  503.15
     24.4700	  676.00	  648.84	-1757.34	  502.77
     24.5700	  689.00	  659.43	-1754.93	  502.39
     24.6700	  634.00	  671.68	-1822.18	  502.00
     24.7700	  700.00	  683.54	-1768.04	  501.61
     24.8700	  711.00	  691.25	-1764.75	  501.22
     24.9700	  737.00	  690.18	-1737.68	  500.82
     25.0700	  696.00	  679.28	-1767.78	  500.43
     25.1700	  751.00	  663.83	-1697.33	  500.03
     25.2700	  646.00	  649.61	-1788.11	  499.62
     25.3700	  689.00	  638.94	-1734.44	  499.22
     25.4700	  647.00	  631.80	-1769.30	  498.81
     25.5700	  672.00	  627.35	-1739.85	  498.40
     25.6700	  659.00	  624.64	-1750.14	  497.99
     25.7700	  627.00	  622.92	-1780.42	  497.58
     25.8700	  721.00	  621.77	-1685.27	  497.16
     25.9700	  631.00	  620.96	-1774.46	  496.74
     26.0700	  669.00	  620.37	-1735.87	  496.33
     26.1700	  678.00	  619.96	-1726.46	  495.90
     26.2700	  676.00	  619.69	-1728.19	  495.48
     26.3700	  635.00	  619.56	-1769.06	  495.05
     26.4700	  661.00	  619.57	-1743.07	  494.63
     26.5700	  717.00	  619.72	-1687.22	  494.20
     26.6700	  687.00	  620.02	-1717.52	  493.76
     26.7700	  726.00	  620.50	-1679.00	  493.33
     26.8700	  645.00	  621.19	-1760.69	  492.90
     26.9700	  703.00	  622.15	-1703.65	  492.46
     27.0700	  715.00	  623.45	-1692.95	  492.02
     27.1700	  670.00	  625.19	-1739.69	  491.58
     27.2700	  716.00	  627.57	-1696.07	  491.14
     27.3700	  704.00	  630.93	-1711.43	  490.70
     27.4700	  757.00	  635.90	-1663.40	  490.26
     27.5700	  727.00	  643.67	-1701.17	  489.81
     27.6700	  745.00	  656.26	-1695.76	  489.36
     27.7700	  745.00	  676.70	-1716.20	  488.92
     27.8700	  744.00	  708.74	-1749.24	  488.47
     27.9700	  832.00	  755.36	-1707.86	  488.02
     28.0700	  841.00	  816.28	-1759.78	  487.56
     28.1700	  910.00	  885.16	-1759.66	  487.11
     28.2700	 1053.00	  947.26	-1678.76	  486.66
     28.3700	 1047.00	  980.44	-1717.94	  486.20
     28.4700	 1060.00	  970.46	-1694.96	  485.75
     28.5700	 1009.00	  936.53	-1712.03	  485.29
     28.6700	  899.00	  915.08	-1800.58	  484.83
     28.7700	  930.00	  924.16	-1778.66	  484.37
     28.8700	  986.00	  959.00	-1757.50	  483.91
     28.9700	  946.00	  997.75	-1836.25	  483.45
     29.0700	  978.00	 1008.01	-1814.51	  482.99
     29.1700	  988.00	  966.09	-1762.59	  482.53
     29.2700	  930.00	  885.39	-1739.89	  482.07
     29.3700	  873.00	  800.93	-1712.43	  481.60
     29.4700	  775.00	  733.66	-1743.16	  481.14
     29.5700	  793.00	  687.81	-1679.31	  480.67
     29.6700	  706.00	  659.61	-1738.11	  480.21
     29.7700	  789.00	  643.17	-1638.67	  479.74
     29.8700	  776.00	  633.53	-1642.03	  479.28
     29.9700	  723.00	  627.60	-1689.10	  478.81
     30.0700	  768.00	  623.87	-1640.37	  478.34
     30.1700	  726.00	  621.75	-1680.25	  477.88
     30.2700	  721.00	  621.23	-1684.73	  477.41
     30.3700	  691.00	  622.77	-1716.27	  476.94
     30.4700	  708.00	  627.26	-1703.76	  476.47
     30.5700	  644.00	  635.93	-1776.43	  476.00
     30.6700	  723.00	  649.86	-1711.36	  475.53
     30.7700	  727.00	  669.00	-1726.50	  475.07
     30.8700	  690.00	  691.09	-1785.59	  474.60
     30.9700	  749.00	  710.86	-1746.36	  474.13
     31.0700	  719.00	  720.20	-1785.70	  473.66
     31.1700	  724.00	  712.16	-1772.66	  473.19
     31.2700	  674.00	  689.50	-1800.00	  472.72
     31.3700	  684.00	  662.90	-1763.40	  472.25
     31.4700	  654.00	  640.20	-1770.70	  471.78
     31.5700	  634.00	  623.82	-1774.32	  471.31
     31.6700	  604.00	  613.22	-1793.72	  470.84
     31.7700	  655.00	  606.77	-1736.27	  470.37
     31.8700	  579.00	  602.88	-1808.38	  469.91
     31.9700	  607.00	  600.42	-1777.92	  469.44
     32.0700	  620.00	  598.76	-1763.26	  468.97
     32.1700	  622.00	  597.59	-1760.09	  468.50
     32.2700	  620.00	  596.75	-1761.25	  468.03
     32.3700	  632.00	  596.19	-1748.69	  467.57
     32.4700	  588.00	  595.89	-1792.39	  467.10
     32.5700	  607.00	  595.84	-1773.34	  466.63
     32.6700	  595.00	  596.06	-1785.56	  466.17
     32.7700	  606.00	  596.57	-1775.07	  465.70
     32.8700	  655.00	  597.48	-1726.98	  465.24
     32.9700	  589.00	  598.82	-1794.32	  464.77
     33.0700	  612.00	  600.77	-1773.27	  464.31
     33.1700	  609.00	  603.65	-1779.15	  463.84
     33.2700	  624.00	  608.00	-1768.50	  463.38
     33.3700	  587.00	  614.91	-1812.41	  462.92
     33.4700	  591.00	  626.31	-1819.81	  462.46
     33.5700	  620.00	  645.32	-1809.82	  462.00
     33.6700	  605.00	  676.09	-1855.59	  461.54
     33.7700	  706.00	  722.73	-1801.23	  461.08
     33.8700	  807.00	  786.57	-1764.07	  460.62
     33.9700	  905.00	  862.37	-1741.87	  460.16
     34.0700	  966.00	  935.34	-1753.84	  459.70
     34.1700	 1015.00	  981.03	-1750.53	  459.25
     34.2700	 1068.00	  974.63	-1691.13	  458.79
     34.3700	 1012.00	  915.39	-1687.89	  458.34
     34.4700	  851.00	  832.37	-1765.87	  457.88
     34.5700	  744.00	  754.32	-1794.82	  457.43
     34.6700	  740.00	  693.93	-1738.43	  456.98
     34.7700	  661.00	  652.60	-1776.10	  456.53
     34.8700	  633.00	  626.59	-1778.09	  456.08
     34.9700	  573.00	  610.86	-1822.36	  455.63
     35.0700	  568.00	  601.19	-1817.69	  455.18
     35.1700	  627.00	  594.85	-1752.35	  454.74
     35.2700	  596.00	  590.30	-1778.80	  454.29
     35.3700	  563.00	  586.81	-1808.31	  453.85
     35.4700	  552.00	  584.49	-1816.99	  453.40
     35.5700	  551.00	  582.16	-1815.66	  452.96
     35.6700	  546.00	  580.20	-1818.70	  452.52
     35.7700	  531.00	  578.51	-1832.01	  452.08
     35.8700	  599.00	  577.04	-1762.54	  451.64
     35.9700	  535.00	  575.74	-1825.24	  451.20
     36.0700	  574.00	  574.59	-1785.09	  450.77
     36.1700	  566.00	  573.55	-1792.05	  450.33
     36.2700	  534.00	  572.61	-1823.11	  449.90
     36.3700	  552.00	  571.76	-1804.26	  449.47
     36.4700	  549.00	  570.98	-1806.48	  449.04
     36.5700	  529.00	  570.24	-1825.74	  448.61
     36.6700	  558.00	  569.61	-1796.11	  448.18
     36.7700	  551.00	  569.05	-1802.55	  447.75
     36.8700	  578.00	  568.57	-1775.07	  447.33
     36.9700	  541.00	  568.22	-1811.72	  446.90
     37.0700	  588.00	  568.05	-1764.55	  446.48
     37.1700	  516.00	  568.34	-1836.84	  446.06
     37.2700	  524.00	  568.89	-1829.39	  445.64
     37.3700	  535.00	  570.05	-1819.55	  445.22
     37.4700	  548.00	  571.97	-1808.47	  444.81
     37.5700	  545.00	  574.66	-1814.16	  444.39
     37.6700	  573.00	  577.84	-1789.34	  443.98
     37.7700	  564.00	  580.79	-1801.29	  443.57
     37.8700	  620.00	  582.45	-1746.95	  443.16
     37.9700	  565.00	  581.89	-1801.39	  442.75
     38.0700	  579.00	  579.24	-1784.74	  442.34
     38.1700	  528.00	  575.54	-1832.04	  441.94
     38.2700	  549.00	  571.68	-1807.18	  441.54
     38.3700	  561.00	  568.14	-1791.64	  441.13
     38.4700	  531.00	  565.20	-1818.70	  440.73
     38.5700	  561.00	  562.93	-1786.43	  440.34
     38.6700	  600.00	  561.25	-1745.75	  439.94
     38.7700	  567.00	  560.06	-1777.56	  439.54
     38.8700	  541.00	  559.11	-1802.61	  439.15
     38.9700	  560.00	  558.35	-1782.85	  438.76
     39.0700	  567.00	  557.71	-1775.21	  438.37
     39.1700	  519.00	  557.15	-1822.65	  437.98
     39.2700	  506.00	  556.63	-1835.13	  437.60
     39.3700	  506.00	  556.14	-1834.64	  437.21
     39.4700	  544.00	  555.69	-1796.19	  436.83
     39.5700	  529.00	  555.13	-1810.63	  436.45
     39.6700	  549.00	  554.71	-1790.21	  436.07
     39.7700	  559.00	  554.31	-1779.81	  435.70
     39.8700	  536.00	  553.93	-1802.43	  435.32
     39.9700	  528.00	  553.56	-1810.06	  434.95
     40.0700	  484.00	  553.76	-1854.26	  434.58
     40.1700	  548.00	  553.42	-1789.92	  434.21
     40.2700	  542.00	  553.10	-1795.60	  433.84
     40.3700	  534.00	  552.79	-1803.29	  433.48
     40.4700	  553.00	  552.35	-1783.85	  433.11
     40.5700	  535.00	  552.08	-1801.58	  432.75
     40.6700	  527.00	  551.82	-1809.32	  432.39
     40.7700	  514.00	  551.58	-1822.08	  432.04
     40.8700	  539.00	  551.36	-1796.86	  431.68
     40.9700	  552.00	  551.16	-1783.66	  431.33
     41.0700	  523.00	  551.00	-1812.50	  430.98
     41.1700	  577.00	  550.86	-1758.36	  430.63
     41.2700	  537.00	  550.77	-1798.27	  430.28
     41.3700	  491.00	  550.73	-1844.23	  429.94
     41.4700	  536.00	  550.75	-1799.25	  429.59
     41.5700	  526.00	  550.90	-1809.40	  429.25
     41.6700	  540.00	  551.10	-1795.60	  428.92
     41.7700	  558.00	  551.52	-1778.02	  428.58
     41.8700	  557.00	  552.13	-1779.63	  428.24
     41.9700	  516.00	  553.27	-1821.77	  427.91
     42.0700	  514.00	  555.05	-1825.55	  427.58
     42.1700	  530.00	  558.06	-1812.56	  427.25
     42.2700	  511.00	  562.98	-1836.48	  426.93
     42.3700	  524.00	  570.54	-1831.04	  426.60
     42.4700	  550.00	  581.25	-1815.75	  426.28
     42.5700	  607.00	  594.94	-1772.44	  425.96
     42.6700	  600.00	  610.34	-1794.84	  425.65
     42.7700	  606.00	  623.78	-1802.28	  425.33
     42.8700	  634.00	  630.84	-1781.34	  425.02
     42.9700	  603.00	  627.95	-1809.45	  424.71
     43.0700	  627.00	  616.23	-1773.73	  424.40
     43.1700	  606.00	  600.49	-1778.99	  424.09
     43.2700	  602.00	  585.15	-1767.65	  423.79
     43.3700	  529.00	  572.47	-1827.97	  423.49
     43.4700	  577.00	  563.09	-1770.59	  423.19
     43.5700	  553.00	  556.68	-1788.18	  422.89
     43.6700	  548.00	  552.53	-1789.03	  422.59
     43.7700	  501.00	  549.89	-1833.39	  422.30
     43.8700	  527.00	  548.16	-1805.66	  422.01
     43.9700	  531.00	  547.18	-1800.68	  421.72
     44.0700	  560.00	  546.29	-1770.79	  421.44
     44.1700	  539.00	  545.58	-1791.08	  421.15
     44.2700	  516.00	  545.01	-1813.51	  420.87
     44.3700	  539.00	  544.52	-1790.02	  420.59
     44.4700	  538.00	  544.11	-1790.61	  420.31
     44.5700	  541.00	  543.76	-1787.26	  420.04
     44.6700	  567.00	  543.46	-1760.96	  419.77
     44.7700	  541.00	  543.20	-1786.70	  419.50
     44.8700	  573.00	  542.98	-1754.48	  419.23
     44.9700	  520.00	  542.80	-1807.30	  418.96
     45.0700	  552.00	  542.65	-1775.15	  418.70
     45.1700	  565.00	  542.52	-1762.02	  418.44
     45.2700	  543.00	  542.43	-1783.93	  418.18
     45.3700	  580.00	  542.45	-1746.95	  417.92
     45.4700	  533.00	  542.42	-1793.92	  417.67
     45.5700	  521.00	  542.43	-1805.93	  417.42
     45.6700	  561.00	  542.46	-1765.96	  417.17
     45.7700	  530.00	  542.56	-1797.06	  416.92
     45.8700	  553.00	  542.66	-1774.16	  416.67
     45.9700	  553.00	  542.80	-1774.30	  416.43
     46.0700	  521.00	  542.97	-1806.47	  416.19
     46.1700	  524.00	  543.20	-1803.70	  415.95
     46.2700	  566.00	  543.48	-1761.98	  415.72
     46.3700	  568.00	  543.81	-1760.31	  415.48
     46.4700	  561.00	  544.22	-1767.72	  415.25
     46.5700	  555.00	  544.55	-1774.05	  415.02
     46.6700	  529.00	  545.14	-1800.64	  414.80
     46.7700	  489.00	  545.85	-1841.35	  414.57
     46.8700	  551.00	  546.72	-1780.22	  414.35
     46.9700	  557.00	  547.82	-1775.32	  414.13
     47.0700	  524.00	  549.26	-1809.76	  413.91
     47.1700	  583.00	  551.26	-1752.76	  413.70
     47.2700	  541.00	  554.17	-1797.67	  413.48
     47.3700	  579.00	  558.50	-1764.00	  413.27
     47.4700	  575.00	  564.88	-1774.38	  413.07
     47.5700	  567.00	  573.96	-1791.46	  412.86
     47.6700	  564.00	  586.09	-1806.59	  412.66
     47.7700	  597.00	  601.03	-1788.53	  412.46
     47.8700	  597.00	  617.89	-1805.39	  412.26
     47.9700	  666.00	  633.02	-1751.52	  412.06
     48.0700	  613.00	  642.79	-1814.29	  411.87
     48.1700	  583.00	  643.84	-1845.34	  411.68
     48.2700	  618.00	  636.32	-1802.82	  411.49
     48.3700	  579.00	  624.05	-1829.55	  411.30
     48.4700	  616.00	  611.24	-1779.74	  411.11
     48.5700	  550.00	  600.59	-1835.09	  410.93
     48.6700	  569.00	  593.28	-1808.78	  410.75
     48.7700	  610.00	  589.57	-1764.07	  410.57
     48.8700	  600.00	  589.16	-1773.66	  410.40
     48.9700	  616.00	  591.64	-1760.14	  410.22
     49.0700	  613.00	  596.70	-1768.20	  410.05
     49.1700	  581.00	  604.44	-1807.94	  409.88
     49.2700	  601.00	  615.58	-1799.08	  409.72
     49.3700	  578.00	  631.97	-1838.47	  409.55
     49.4700	  609.00	  657.29	-1832.79	  409.39
     49.5700	  627.00	  698.06	-1855.56	  409.23
     49.6700	  707.00	  764.32	-1841.82	  409.07
     49.7700	  776.00	  869.27	-1877.77	  408.92
     49.8700	  923.00	 1026.50	-1888.00	  408.76
     49.9700	 1136.00	 1244.51	-1893.01	  408.61
     50.0700	 1484.00	 1519.03	-1819.53	  408.47
     50.1700	 1869.00	 1824.20	-1739.70	  408.32
     50.2700	 2206.00	 2105.47	-1683.97	  408.18
     50.3700	 2398.00	 2282.81	-1669.31	  408.03
     50.4700	 2405.00	 2286.31	-1665.81	  407.89
     50.5700	 2138.00	 2112.53	-1759.03	  407.76
     50.6700	 1924.00	 1832.17	-1692.67	  407.62
     50.7700	 1486.00	 1528.80	-1827.30	  407.49
     50.8700	 1057.00	 1258.44	-1985.94	  407.36
     50.9700	  976.00	 1046.66	-1855.16	  407.23
     51.0700	  830.00	  897.25	-1851.75	  407.10
     51.1700	  724.00	  800.77	-1861.27	  406.98
     51.2700	  730.00	  741.94	-1796.44	  406.86
     51.3700	  686.00	  705.63	-1804.13	  406.74
     51.4700	  685.00	  680.33	-1779.83	  406.62
     51.5700	  656.00	  659.81	-1788.31	  406.51
     51.6700	  607.00	  642.04	-1819.54	  406.39
     51.7700	  629.00	  626.85	-1782.35	  406.28
     51.8700	  648.00	  614.42	-1750.92	  406.17
     51.9700	  652.00	  604.77	-1737.27	  406.07
     52.0700	  609.00	  597.74	-1773.24	  405.96
     52.1700	  623.00	  593.02	-1754.52	  405.86
     52.2700	  643.00	  590.28	-1731.78	  405.76
     52.3700	  591.00	  589.27	-1782.77	  405.66
     52.4700	  628.00	  589.92	-1746.42	  405.57
     52.5700	  607.00	  592.40	-1769.90	  405.47
     52.6700	  580.00	  597.33	-1801.83	  405.38
     52.7700	  582.00	  605.88	-1808.38	  405.29
     52.8700	  652.00	  620.01	-1752.51	  405.20
     52.9700	  689.00	  642.56	-1738.06	  405.12
     53.0700	  684.00	  677.04	-1777.54	  405.03
     53.1700	  725.00	  726.95	-1786.45	  404.95
     53.2700	  835.00	  794.65	-1744.15	  404.87
     53.3700	  822.00	  879.57	-1842.07	  404.80
     53.4700	 1026.00	  976.57	-1735.07	  404.72
     53.5700	 1126.00	 1073.70	-1732.20	  404.65
     53.6700	 1192.00	 1151.17	-1743.67	  404.58
     53.7700	 1198.00	 1185.72	-1772.22	  404.51
     53.8700	 1228.00	 1164.12	-1720.62	  404.44
     53.9700	 1127.00	 1094.60	-1752.10	  404.37
     54.0700	 1040.00	  999.95	-1744.45	  404.31
     54.1700	  921.00	  901.89	-1765.39	  404.25
     54.2700	  803.00	  814.15	-1795.65	  404.19
     54.3700	  738.00	  743.18	-1789.68	  404.13
     54.4700	  709.00	  690.25	-1765.75	  404.08
     54.5700	  651.00	  653.49	-1786.99	  404.02
     54.6700	  642.00	  629.50	-1772.00	  403.97
     54.7700	  652.00	  614.66	-1747.16	  403.92
     54.8700	  604.00	  605.97	-1786.47	  403.88
     54.9700	  606.00	  601.24	-1779.74	  403.83
     55.0700	  661.00	  599.11	-1722.61	  403.79
     55.1700	  577.00	  598.81	-1806.31	  403.74
     55.2700	  567.00	  599.94	-1817.44	  403.70
     55.3700	  637.00	  602.37	-1749.87	  403.67
     55.4700	  623.00	  606.11	-1767.61	  403.63
     55.5700	  634.00	  611.30	-1761.80	  403.60
     55.6700	  631.00	  618.24	-1771.74	  403.56
     55.7700	  657.00	  627.52	-1755.02	  403.53
     55.8700	  621.00	  640.21	-1803.71	  403.50
     55.9700	  657.00	  658.29	-1785.79	  403.48
     56.0700	  684.00	  685.18	-1785.68	  403.45
     56.1700	  693.00	  726.38	-1817.88	  403.43
     56.2700	  800.00	  789.94	-1774.44	  403.40
     56.3700	  868.00	  886.11	-1802.61	  403.38
     56.4700	  981.00	 1025.95	-1829.45	  403.37
     56.5700	 1125.00	 1218.27	-1877.77	  403.35
     56.6700	 1371.00	 1465.22	-1878.72	  403.33
     56.7700	 1651.00	 1757.39	-1890.89	  403.32
     56.8700	 2058.00	 2068.57	-1795.07	  403.31
     56.9700	 2312.00	 2351.16	-1823.66	  403.30
     57.0700	 2555.00	 2539.31	-1768.81	  403.29
     57.1700	 2555.00	 2573.10	-1802.60	  403.29
     57.2700	 2390.00	 2439.94	-1834.44	  403.28
     57.3700	 2251.00	 2186.10	-1719.60	  403.28
     57.4700	 1812.00	 1880.66	-1853.16	  403.28
     57.5700	 1474.00	 1579.80	-1890.30	  403.28
     57.6700	 1246.00	 1317.39	-1855.89	  403.28
     57.7700	 1007.00	 1108.61	-1886.11	  403.28
     57.8700	  936.00	  955.29	-1803.79	  403.29
     57.9700	  838.00	  851.14	-1797.64	  403.29
     58.0700	  740.00	  786.44	-1830.94	  403.30
     58.1700	  732.00	  751.71	-1804.21	  403.31
     58.2700	  748.00	  739.81	-1776.31	  403.32
     58.3700	  774.00	  746.33	-1756.83	  403.34
     58.4700	  807.00	  769.09	-1746.59	  403.35
     58.5700	  797.00	  806.95	-1794.45	  403.37
     58.6700	  897.00	  858.51	-1746.01	  403.38
     58.7700	  993.00	  920.75	-1712.25	  403.40
     58.8700	 1068.00	  988.10	-1704.60	  403.42
     58.9700	 1075.00	 1053.15	-1762.65	  403.44
     59.0700	 1186.00	 1109.65	-1708.15	  403.47
     59.1700	 1233.00	 1154.10	-1705.60	  403.49
     59.2700	 1230.00	 1183.32	-1737.82	  403.52
     59.3700	 1214.00	 1193.57	-1764.07	  403.54
     59.4700	 1311.00	 1185.40	-1658.90	  403.57
     59.5700	 1284.00	 1167.14	-1667.64	  403.60
     59.6700	 1217.00	 1150.77	-1718.27	  403.63
     59.7700	 1198.00	 1145.53	-1732.03	  403.67
     59.8700	 1114.00	 1156.80	-1827.30	  403.70
     59.9700	 1224.00	 1188.33	-1748.83	  403.74
     60.0700	 1282.00	 1242.84	-1745.34	  403.77
     60.1700	 1367.00	 1318.90	-1736.40	  403.81
     60.2700	 1445.00	 1407.05	-1746.55	  403.85
     60.3700	 1617.00	 1488.15	-1655.65	  403.89
     60.4700	 1576.00	 1535.74	-1744.24	  403.93
     60.5700	 1592.00	 1526.42	-1718.92	  403.98
     60.6700	 1510.00	 1455.10	-1729.60	  404.02
     60.7700	 1340.00	 1338.60	-1783.10	  404.07
     60.8700	 1243.00	 1202.65	-1744.15	  404.11
     60.9700	 1081.00	 1069.06	-1772.56	  404.16
     61.0700	  947.00	  952.01	-1789.51	  404.21
     61.1700	  872.00	  858.78	-1771.28	  404.26
     61.2700	  811.00	  791.74	-1765.24	  404.31
     61.3700	  808.00	  750.22	-1726.72	  404.37
     61.4700	  723.00	  732.46	-1793.96	  404.42
     61.5700	  773.00	  737.13	-1748.63	  404.47
     61.6700	  760.00	  763.99	-1788.49	  404.53
     61.7700	  833.00	  813.71	-1765.21	  404.59
     61.8700	  858.00	  886.72	-1813.22	  404.65
     61.9700	 1019.00	  981.64	-1747.14	  404.70
     62.0700	 1016.00	 1093.58	-1862.08	  404.76
     62.1700	 1145.00	 1212.51	-1852.01	  404.83
     62.2700	 1302.00	 1322.04	-1804.54	  404.89
     62.3700	 1323.00	 1400.03	-1861.53	  404.95
     62.4700	 1358.00	 1425.06	-1851.56	  405.02
     62.5700	 1344.00	 1388.57	-1829.07	  405.08
     62.6700	 1266.00	 1301.36	-1819.86	  405.15
     62.7700	 1122.00	 1185.52	-1848.02	  405.21
     62.8700	  966.00	 1062.60	-1881.10	  405.28
     62.9700	  908.00	  947.80	-1824.30	  405.35
     63.0700	  811.00	  849.92	-1823.42	  405.42
     63.1700	  694.00	  772.44	-1862.94	  405.49
     63.2700	  710.00	  715.06	-1789.56	  405.56
     63.3700	  673.00	  675.10	-1786.60	  405.63
     63.4700	  645.00	  648.98	-1788.48	  405.71
     63.5700	  679.00	  633.22	-1738.72	  405.78
     63.6700	  628.00	  625.15	-1781.65	  405.86
     63.7700	  629.00	  623.17	-1778.67	  405.93
     63.8700	  662.00	  626.82	-1749.32	  406.01
     63.9700	  611.00	  636.56	-1810.06	  406.09
     64.0700	  693.00	  653.40	-1744.90	  406.16
     64.1700	  684.00	  678.79	-1779.29	  406.24
     64.2700	  743.00	  713.95	-1755.45	  406.32
     64.3700	  778.00	  759.38	-1765.88	  406.40
     64.4700	  824.00	  814.21	-1774.71	  406.48
     64.5700	  878.00	  875.75	-1782.25	  406.56
     64.6700	  959.00	  938.28	-1763.78	  406.64
     64.7700	 1025.00	  993.86	-1753.36	  406.73
     64.8700	 1112.00	 1033.00	-1705.50	  406.81
     64.9700	 1102.00	 1048.26	-1730.76	  406.89
     65.0700	 1104.00	 1037.57	-1718.07	  406.98
     65.1700	 1025.00	 1004.54	-1764.04	  407.06
     65.2700	  954.00	  956.67	-1787.17	  407.15
     65.3700	  966.00	  902.54	-1721.04	  407.23
     65.4700	  800.00	  849.25	-1833.75	  407.32
     65.5700	  775.00	  800.61	-1810.11	  407.41
     65.6700	  763.00	  759.41	-1780.91	  407.50
     65.7700	  726.00	  724.73	-1783.23	  407.58
     65.8700	  664.00	  696.10	-1816.60	  407.67
     65.9700	  650.00	  673.05	-1807.55	  407.76
     66.0700	  652.00	  654.85	-1787.35	  407.85
     66.1700	  644.00	  641.01	-1781.51	  407.94
     66.2700	  650.00	  630.94	-1765.44	  408.03
     66.3700	  601.00	  624.08	-1807.58	  408.12
     66.4700	  621.00	  620.02	-1783.52	  408.21
     66.5700	  665.00	  618.53	-1738.03	  408.30
     66.6700	  623.00	  619.30	-1780.80	  408.40
     66.7700	  629.00	  622.43	-1777.93	  408.49
     66.8700	  591.00	  628.21	-1821.71	  408.58
     66.9700	  642.00	  637.39	-1779.89	  408.67
     67.0700	  632.00	  651.18	-1803.68	  408.77
     67.1700	  637.00	  671.85	-1819.35	  408.86
     67.2700	  748.00	  702.72	-1739.22	  408.95
     67.3700	  733.00	  748.35	-1799.85	  409.05
     67.4700	  779.00	  814.41	-1819.91	  409.14
     67.5700	  871.00	  907.06	-1820.56	  409.23
     67.6700	 1018.00	 1031.97	-1798.47	  409.33
     67.7700	 1257.00	 1192.55	-1720.05	  409.42
     67.8700	 1426.00	 1388.19	-1746.69	  409.52
     67.9700	 1581.00	 1612.33	-1815.83	  409.61
     68.0700	 1913.00	 1850.81	-1722.31	  409.71
     68.1700	 2086.00	 2080.43	-1778.93	  409.80
     68.2700	 2277.00	 2268.53	-1776.03	  409.90
     68.3700	 2325.00	 2378.56	-1838.06	  409.99
     68.4700	 2343.00	 2383.75	-1825.25	  410.09
     68.5700	 2178.00	 2282.75	-1889.25	  410.18
     68.6700	 2124.00	 2100.50	-1761.00	  410.28
     68.7700	 1875.00	 1873.49	-1782.99	  410.37
     68.8700	 1615.00	 1634.98	-1804.48	  410.47
     68.9700	 1420.00	 1409.19	-1773.69	  410.57
     69.0700	 1219.00	 1211.02	-1776.52	  410.66
     69.1700	 1005.00	 1047.58	-1827.08	  410.76
     69.2700	  964.00	  919.97	-1740.47	  410.85
     69.3700	  777.00	  825.00	-1832.50	  410.95
     69.4700	  765.00	  757.18	-1776.68	  411.04
     69.5700	  734.00	  710.30	-1760.80	  411.14
     69.6700	  643.00	  678.57	-1820.07	  411.23
     69.7700	  651.00	  657.30	-1790.80	  411.33
     69.8700	  678.00	  642.98	-1749.48	  411.42
     69.9700	  648.00	  633.22	-1769.72	  411.52
     70.0700	  603.00	  626.49	-1807.99	  411.61
     70.1700	  627.00	  621.87	-1779.37	  411.70
     70.2700	  634.00	  618.85	-1769.35	  411.80
     70.3700	  642.00	  616.96	-1759.46	  411.89
     70.4700	  628.00	  617.46	-1773.96	  411.98
     70.5700	  619.00	  618.24	-1783.74	  412.08
     70.6700	  582.00	  620.45	-1822.95	  412.17
     70.7700	  611.00	  624.48	-1797.98	  412.26
     70.8700	  659.00	  631.00	-1756.50	  412.35
     70.9700	  620.00	  641.09	-1805.59	  412.45
     71.0700	  665.00	  656.40	-1775.90	  412.54
     71.1700	  638.00	  679.27	-1825.77	  412.63
     71.2700	  712.00	  712.76	-1785.26	  412.72
     71.3700	  783.00	  760.52	-1762.02	  412.81
     71.4700	  826.00	  826.44	-1784.94	  412.90
     71.5700	  921.00	  914.00	-1777.50	  412.99
     71.6700	  963.00	 1025.38	-1846.88	  413.08
     71.7700	 1102.00	 1160.47	-1842.97	  413.17
     71.8700	 1290.00	 1315.74	-1810.24	  413.26
     71.9700	 1470.00	 1483.38	-1797.88	  413.35
     72.0700	 1564.00	 1650.46	-1870.96	  413.43
     72.1700	 1751.00	 1798.63	-1832.13	  413.52
     72.2700	 1843.00	 1905.48	-1846.98	  413.61
     72.3700	 1906.00	 1950.09	-1828.59	  413.69
     72.4700	 1892.00	 1922.28	-1814.78	  413.78
     72.5700	 1780.00	 1828.50	-1833.00	  413.86
     72.6700	 1656.00	 1687.95	-1816.45	  413.95
     72.7700	 1509.00	 1523.36	-1798.86	  414.03
     72.8700	 1371.00	 1354.29	-1767.79	  414.11
     72.9700	 1216.00	 1194.87	-1763.37	  414.20
     73.0700	 1066.00	 1053.97	-1772.47	  414.28
     73.1700	  962.00	  935.92	-1758.42	  414.36
     73.2700	  861.00	  841.52	-1765.02	  414.44
     73.3700	  808.00	  769.08	-1745.58	  414.52
     73.4700	  732.00	  715.40	-1767.90	  414.60
     73.5700	  713.00	  676.71	-1748.21	  414.68
     73.6700	  691.00	  649.33	-1742.83	  414.76
     73.7700	  698.00	  630.10	-1716.60	  414.83
     73.8700	  668.00	  616.54	-1733.04	  414.91
     73.9700	  666.00	  606.89	-1725.39	  414.99
     74.0700	  606.00	  599.92	-1778.42	  415.06
     74.1700	  567.00	  594.85	-1812.35	  415.13
     74.2700	  670.00	  591.16	-1705.66	  415.21
     74.3700	  642.00	  587.99	-1730.49	  415.28
     74.4700	  579.00	  586.18	-1791.68	  415.35
     74.5700	  623.00	  584.99	-1746.49	  415.42
     74.6700	  624.00	  584.21	-1744.71	  415.49
     74.7700	  624.00	  583.63	-1744.13	  415.56
     74.8700	  647.00	  583.03	-1720.53	  415.63
     74.9700	  640.00	  582.18	-1726.68	  415.70
     75.0700	  643.00	  581.00	-1722.50	  415.76
     75.1700	  627.00	  579.51	-1737.01	  415.83
     75.2700	  647.00	  577.90	-1715.40	  415.89
     75.3700	  705.00	  576.43	-1655.93	  415.96
     75.4700	  645.00	  575.42	-1714.92	  416.02
     75.5700	  628.00	  575.19	-1731.69	  416.08
     75.6700	  605.00	  576.08	-1755.58	  416.14
     75.7700	  610.00	  578.48	-1752.98	  416.20
     75.8700	  611.00	  582.79	-1756.29	  416.26
     75.9700	  611.00	  589.38	-1762.88	  416.32
     76.0700	  661.00	  598.60	-1722.10	  416.38
     76.1700	  668.00	  610.62	-1727.12	  416.43
     76.2700	  649.00	  625.37	-1760.87	  416.49
     76.3700	  663.00	  642.60	-1764.10	  416.54
     76.4700	  684.00	  661.55	-1762.05	  416.59
     76.5700	  708.00	  681.02	-1757.52	  416.64
     76.6700	  665.00	  699.36	-1818.86	  416.69
     76.7700	  750.00	  714.42	-1748.92	  416.74
     76.8700	  715.00	  723.81	-1793.31	  416.79
     76.9700	  693.00	  725.93	-1817.43	  416.84
     77.0700	  747.00	  720.18	-1757.68	  416.88
     77.1700	  742.00	  707.64	-1750.14	  416.93
     77.2700	  691.00	  690.38	-1783.88	  416.97
     77.3700	  655.00	  670.69	-1800.19	  417.01
     77.4700	  680.00	  650.51	-1755.01	  417.05
     77.5700	  612.00	  631.32	-1803.82	  417.09
     77.6700	  608.00	  614.06	-1790.56	  417.13
     77.7700	  599.00	  599.29	-1784.79	  417.17
     77.8700	  555.00	  587.18	-1816.68	  417.20
     77.9700	  592.00	  577.61	-1770.11	  417.24
     78.0700	  531.00	  570.26	-1823.76	  417.27
     78.1700	  537.00	  564.86	-1812.36	  417.30
     78.2700	  552.00	  560.94	-1793.44	  417.33
     78.3700	  576.00	  558.14	-1766.64	  417.36
     78.4700	  533.00	  555.94	-1807.44	  417.39
     78.5700	  596.00	  554.54	-1743.04	  417.42
     78.6700	  579.00	  553.54	-1759.04	  417.44
     78.7700	  557.00	  552.82	-1780.32	  417.47
     78.8700	  564.00	  552.30	-1772.80	  417.49
     78.9700	  526.00	  551.95	-1810.45	  417.51
     79.0700	  558.00	  551.75	-1778.25	  417.53
     79.1700	  534.00	  551.67	-1802.17	  417.55
     79.2700	  556.00	  551.73	-1780.23	  417.57
     79.3700	  557.00	  551.93	-1779.43	  417.58
     79.4700	  496.00	  552.30	-1840.80	  417.60
     79.5700	  558.00	  552.85	-1779.35	  417.61
     79.6700	  539.00	  553.62	-1799.12	  417.62
     79.7700	  536.00	  554.64	-1803.14	  417.63
     79.8700	  538.00	  555.94	-1802.44	  417.64
     79.9700	  621.00	  557.57	-1721.07	  417.65
     80.0700	  596.00	  559.59	-1748.09	  417.65
     80.1700	  567.00	  562.06	-1779.56	  417.65
     80.2700	  549.00	  565.07	-1800.57	  417.66
     80.3700	  572.00	  568.69	-1781.19	  417.66
     80.4700	  588.00	  573.03	-1769.53	  417.66
     80.5700	  598.00	  578.22	-1764.72	  417.66
     80.6700	  655.00	  584.42	-1713.92	  417.65
     80.7700	  585.00	  591.77	-1791.27	  417.65
     80.8700	  644.00	  600.36	-1740.86	  417.64
     80.9700	  643.00	  610.20	-1751.70	  417.63
     81.0700	  711.00	  620.93	-1694.43	  417.62
     81.1700	  652.00	  632.67	-1765.17	  417.61
     81.2700	  660.00	  644.78	-1769.28	  417.60
     81.3700	  707.00	  656.80	-1734.30	  417.58
     81.4700	  714.00	  668.34	-1738.84	  417.56
     81.5700	  754.00	  679.10	-1709.60	  417.55
     81.6700	  739.00	  688.84	-1734.34	  417.53
     81.7700	  727.00	  697.26	-1754.76	  417.50
     81.8700	  756.00	  703.95	-1732.45	  417.48
     81.9700	  737.00	  708.38	-1755.88	  417.46
     82.0700	  783.00	  709.99	-1711.49	  417.43
     82.1700	  743.00	  708.39	-1749.89	  417.40
     82.2700	  731.00	  703.63	-1757.13	  417.37
     82.3700	  729.00	  696.21	-1751.71	  417.34
     82.4700	  685.00	  686.77	-1786.27	  417.31
     82.5700	  688.00	  675.91	-1772.41	  417.27
     82.6700	  658.00	  664.09	-1790.59	  417.24
     82.7700	  661.00	  651.68	-1775.18	  417.20
     82.8700	  641.00	  639.09	-1782.59	  417.16
     82.9700	  619.00	  626.88	-1792.38	  417.11
     83.0700	  607.00	  615.58	-1793.08	  417.07
     83.1700	  612.00	  605.67	-1778.17	  417.03
     83.2700	  586.00	  597.49	-1795.99	  416.98
     83.3700	  598.00	  591.23	-1777.73	  416.93
     83.4700	  542.00	  586.96	-1829.46	  416.88
     83.5700	  573.00	  584.66	-1796.16	  416.83
     83.6700	  575.00	  584.18	-1793.68	  416.77
     83.7700	  586.00	  585.29	-1783.79	  416.72
     83.8700	  575.00	  587.66	-1797.16	  416.66
     83.9700	  567.00	  590.88	-1808.38	  416.60
     84.0700	  606.00	  594.47	-1772.97	  416.54
     84.1700	  573.00	  597.85	-1809.35	  416.47
     84.2700	  573.00	  600.44	-1811.94	  416.41
     84.3700	  557.00	  601.69	-1829.19	  416.34
     84.4700	  562.00	  601.17	-1823.67	  416.27
     84.5700	  583.00	  598.94	-1800.44	  416.20
     84.6700	  640.00	  595.24	-1739.74	  416.13
     84.7700	  566.00	  590.46	-1808.96	  416.05
     84.8700	  604.00	  585.07	-1765.57	  415.98
     84.9700	  551.00	  579.50	-1813.00	  415.90
     85.0700	  598.00	  574.11	-1760.61	  415.82
     85.1700	  543.00	  569.15	-1810.65	  415.74
     85.2700	  583.00	  564.80	-1766.30	  415.66
     85.3700	  529.00	  561.15	-1816.65	  415.57
     85.4700	  574.00	  558.23	-1768.73	  415.48
     85.5700	  563.00	  556.02	-1777.52	  415.39
     85.6700	  517.00	  554.48	-1821.98	  415.30
     85.7700	  546.00	  553.54	-1792.04	  415.21
     85.8700	  547.00	  553.12	-1790.62	  415.11
     85.9700	  546.00	  553.21	-1791.71	  415.02
     86.0700	  546.00	  553.76	-1792.26	  414.92
     86.1700	  523.00	  554.79	-1816.29	  414.82
     86.2700	  553.00	  556.31	-1787.81	  414.71
     86.3700	  577.00	  558.39	-1765.89	  414.61
     86.4700	  499.00	  561.10	-1846.60	  414.50
     86.5700	  551.00	  564.56	-1798.06	  414.40
     86.6700	  553.00	  568.87	-1800.37	  414.29
     86.7700	  546.00	  574.14	-1812.64	  414.17
     86.8700	  611.00	  580.47	-1753.97	  414.06
     86.9700	  600.00	  587.93	-1772.43	  413.94
     87.0700	  578.00	  596.54	-1803.04	  413.83
     87.1700	  573.00	  606.23	-1817.73	  413.71
     87.2700	  611.00	  616.81	-1790.31	  413.58
     87.3700	  656.00	  627.95	-1756.45	  413.46
     87.4700	  598.00	  639.14	-1825.64	  413.33
     87.5700	  664.00	  649.72	-1770.22	  413.21
     87.6700	  662.00	  658.87	-1781.37	  413.08
     87.7700	  673.00	  665.71	-1777.21	  412.95
     87.8700	  635.00	  669.47	-1818.97	  412.81
     87.9700	  611.00	  669.69	-1843.19	  412.68
     88.0700	  659.00	  666.44	-1791.94	  412.54
     88.1700	  663.00	  660.27	-1781.77	  412.40
     88.2700	  648.00	  652.05	-1788.55	  412.26
     88.3700	  667.00	  642.76	-1760.26	  412.12
     88.4700	  641.00	  633.32	-1776.82	  411.97
     88.5700	  629.00	  624.54	-1780.04	  411.82
     88.6700	  606.00	  617.05	-1795.55	  411.67
     88.7700	  569.00	  611.35	-1826.85	  411.52
     88.8700	  610.00	  607.72	-1782.22	  411.37
     88.9700	  593.00	  605.86	-1797.36	  411.22
     89.0700	  562.00	  606.61	-1829.11	  411.06
     89.1700	  572.00	  609.29	-1821.79	  410.90
     89.2700	  595.00	  613.56	-1803.06	  410.74
     89.3700	  611.00	  618.90	-1792.40	  410.58
     89.4700	  660.00	  624.71	-1749.21	  410.41
     89.5700	  629.00	  630.28	-1785.78	  410.25
     89.6700	  648.00	  634.84	-1771.34	  410.08
     89.7700	  613.00	  637.68	-1809.18	  409.91
     89.8700	  623.00	  638.24	-1799.74	  409.74
     89.9700	  596.00	  636.31	-1824.81	  409.56
     90.0700	  626.00	  632.02	-1790.52	  409.39
     90.1700	  654.00	  625.80	-1756.30	  409.21
     90.2700	  600.00	  618.25	-1802.75	  409.03
     90.3700	  586.00	  609.96	-1808.46	  408.85
     90.4700	  567.00	  601.48	-1818.98	  408.66
     90.5700	  549.00	  593.24	-1828.74	  408.48
     90.6700	  537.00	  585.58	-1833.08	  408.29
     90.7700	  574.00	  578.73	-1789.23	  408.10
     90.8700	  582.00	  572.81	-1775.31	  407.91
     90.9700	  577.00	  567.89	-1775.40	  407.72
     91.0700	  509.00	  563.96	-1839.46	  407.52
     91.1700	  498.00	  560.95	-1847.45	  407.33
     91.2700	  524.00	  558.78	-1819.28	  407.13
     91.3700	  537.00	  557.37	-1804.87	  406.93
     91.4700	  540.00	  556.64	-1801.14	  406.72
     91.5700	  584.00	  556.53	-1757.03	  406.52
     91.6700	  507.00	  557.01	-1834.51	  406.31
     91.7700	  501.00	  558.09	-1841.59	  406.11
     91.8700	  565.00	  559.82	-1779.32	  405.90
     91.9700	  539.00	  562.29	-1807.79	  405.68
     92.0700	  532.00	  565.62	-1818.12	  405.47
     92.1700	  542.00	  569.94	-1812.44	  405.26
     92.2700	  515.00	  575.41	-1844.91	  405.04
     92.3700	  518.00	  582.21	-1848.71	  404.82
     92.4700	  579.00	  590.47	-1795.97	  404.60
     92.5700	  559.00	  600.31	-1825.81	  404.38
     92.6700	  574.00	  611.79	-1822.29	  404.15
     92.7700	  612.00	  624.90	-1797.40	  403.93
     92.8700	  601.00	  639.55	-1823.05	  403.70
     92.9700	  652.00	  655.55	-1788.05	  403.47
     93.0700	  616.00	  672.60	-1841.10	  403.24
     93.1700	  613.00	  690.29	-1861.79	  403.00
     93.2700	  694.00	  708.07	-1798.57	  402.77
     93.3700	  715.00	  725.35	-1794.85	  402.53
     93.4700	  726.00	  741.54	-1800.04	  402.29
     93.5700	  794.00	  756.22	-1746.72	  402.05
     93.6700	  767.00	  769.27	-1786.77	  401.81
     93.7700	  765.00	  780.90	-1800.40	  401.57
     93.8700	  812.00	  791.54	-1764.04	  401.32
     93.9700	  837.00	  801.71	-1749.21	  401.08
     94.0700	  808.00	  811.82	-1788.32	  400.83
     94.1700	  844.00	  822.13	-1762.63	  400.58
     94.2700	  863.00	  832.73	-1754.23	  400.33
     94.3700	  877.00	  843.30	-1750.80	  400.07
     94.4700	  882.00	  854.54	-1757.04	  399.82
     94.5700	  876.00	  866.17	-1774.67	  399.56
     94.6700	  917.00	  878.23	-1745.73	  399.30
     94.7700	  916.00	  890.56	-1759.06	  399.04
     94.8700	  909.00	  902.71	-1778.21	  398.78
     94.9700	  968.00	  913.89	-1730.39	  398.52
     95.0700	  896.00	  922.97	-1811.47	  398.25
     95.1700	  934.00	  928.60	-1779.10	  397.99
     95.2700	  959.00	  929.48	-1754.98	  397.72
     95.3700	  899.00	  924.64	-1810.14	  397.45
     95.4700	  933.00	  913.80	-1765.30	  397.18
     95.5700	  879.00	  897.46	-1802.96	  396.91
     95.6700	  875.00	  876.81	-1786.31	  396.63
     95.7700	  778.00	  853.45	-1859.95	  396.36
     95.8700	  829.00	  829.14	-1784.64	  396.08
     95.9700	  767.00	  805.60	-1823.10	  395.80
     96.0700	  759.00	  784.42	-1809.92	  395.53
     96.1700	  728.00	  767.04	-1823.54	  395.24
     96.2700	  789.00	  754.76	-1750.26	  394.96
     96.3700	  745.00	  748.73	-1788.23	  394.68
     96.4700	  748.00	  749.93	-1786.43	  394.39
     96.5700	  764.00	  759.19	-1779.69	  394.11
     96.6700	  775.00	  777.13	-1786.63	  393.82
     96.7700	  797.00	  804.19	-1791.69	  393.53
     96.8700	  830.00	  840.57	-1795.07	  393.24
     96.9700	  862.00	  886.13	-1808.63	  392.95
     97.0700	  945.00	  940.40	-1779.90	  392.65
     97.1700	  985.00	 1002.46	-1801.96	  392.36
     97.2700	 1074.00	 1070.95	-1781.45	  392.06
     97.3700	 1104.00	 1143.97	-1824.47	  391.77
     97.4700	 1180.00	 1219.01	-1823.51	  391.47
     97.5700	 1276.00	 1293.03	-1801.53	  391.17
     97.6700	 1319.00	 1362.39	-1827.89	  390.87
     97.7700	 1457.00	 1423.08	-1750.58	  390.57
     97.8700	 1429.00	 1471.01	-1826.51	  390.26
     97.9700	 1443.00	 1502.54	-1844.04	  389.96
     98.0700	 1483.00	 1515.24	-1816.74	  389.65
     98.1700	 1488.00	 1508.39	-1804.89	  389.35
     98.2700	 1451.00	 1483.15	-1816.65	  389.04
     98.3700	 1389.00	 1442.21	-1837.71	  388.73
     98.4700	 1422.00	 1389.18	-1751.68	  388.42
     98.5700	 1222.00	 1328.04	-1890.54	  388.11
     98.6700	 1263.00	 1262.67	-1784.17	  387.80
     98.7700	 1196.00	 1196.65	-1785.15	  387.49
     98.8700	 1082.00	 1133.12	-1835.62	  387.18
     98.9700	 1062.00	 1074.78	-1797.28	  386.86
     99.0700	  969.00	 1023.85	-1839.35	  386.55
     99.1700	  966.00	  982.16	-1800.66	  386.23
     99.2700	  962.00	  951.12	-1773.62	  385.91
     99.3700	  928.00	  931.80	-1788.30	  385.59
     99.4700	  901.00	  924.98	-1808.48	  385.28
     99.5700	  923.00	  931.11	-1792.61	  384.96
     99.6700	  986.00	  950.39	-1748.89	  384.64
     99.7700	  989.00	  982.73	-1778.23	  384.31
     99.8700	 1018.00	 1027.79	-1794.29	  383.99
     99.9700	 1070.00	 1084.89	-1799.39	  383.67
    100.0700	 1177.00	 1153.07	-1760.57	  383.35
    100.1700	 1297.00	 1230.98	-1718.48	  383.02
    100.2700	 1265.00	 1316.82	-1836.32	  382.70
    100.3700	 1429.00	 1408.30	-1763.80	  382.37
    100.4700	 1517.00	 1502.61	-1770.11	  382.05
    100.5700	 1526.00	 1596.51	-1855.01	  381.72
    100.6700	 1748.00	 1686.46	-1722.96	  381.39
    100.7700	 1818.00	 1769.01	-1735.51	  381.06
    100.8700	 1848.00	 1841.06	-1777.56	  380.74
    100.9700	 2049.00	 1900.26	-1635.76	  380.41
    101.0700	 2063.00	 1945.07	-1666.57	  380.08
    101.1700	 1994.00	 1974.57	-1765.07	  379.75
    101.2700	 2040.00	 1988.12	-1732.62	  379.42
    101.3700	 1977.00	 1985.31	-1792.81	  379.09
    101.4700	 2031.00	 1966.04	-1719.54	  378.76
    101.5700	 1956.00	 1930.82	-1759.32	  378.43
    101.6700	 1867.00	 1881.21	-1798.71	  378.09
    101.7700	 1882.00	 1819.83	-1722.33	  377.76
    101.8700	 1768.00	 1750.21	-1766.71	  377.43
    101.9700	 1661.00	 1676.25	-1799.75	  377.10
    102.0700	 1572.00	 1601.73	-1814.23	  376.76
    102.1700	 1453.00	 1529.86	-1861.36	  376.43
    102.2700	 1473.00	 1463.18	-1774.68	  376.10
    102.3700	 1376.00	 1403.38	-1811.88	  375.77
    102.4700	 1356.00	 1351.36	-1779.86	  375.43
    102.5700	 1238.00	 1307.27	-1853.77	  375.10
    102.6700	 1313.00	 1270.52	-1742.02	  374.77
    102.7700	 1194.00	 1239.97	-1830.47	  374.43
    102.8700	 1219.00	 1213.97	-1779.47	  374.10
    102.9700	 1195.00	 1190.55	-1780.05	  373.77
    103.0700	 1105.00	 1167.61	-1847.11	  373.43
    103.1700	 1088.00	 1143.26	-1839.76	  373.10
    103.2700	 1124.00	 1116.11	-1776.61	  372.77
    103.3700	 1145.00	 1085.38	-1724.88	  372.43
    103.4700	 1042.00	 1051.04	-1793.54	  372.10
    103.5700	 1026.00	 1013.58	-1772.08	  371.77
    103.6700	  957.00	  973.88	-1801.38	  371.44
    103.7700	  906.00	  932.97	-1811.47	  371.10
    103.8700	  932.00	  891.86	-1744.36	  370.77
    103.9700	  909.00	  851.52	-1727.02	  370.44
    104.0700	  864.00	  812.75	-1733.25	  370.11
    104.1700	  810.00	  776.24	-1750.74	  369.78
    104.2700	  752.00	  742.51	-1775.01	  369.45
    104.3700	  723.00	  711.89	-1773.39	  369.12
    104.4700	  756.00	  684.61	-1713.11	  368.79
    104.5700	  667.00	  660.72	-1778.22	  368.46
    104.6700	  681.00	  640.16	-1743.66	  368.13
    104.7700	  606.00	  622.77	-1801.27	  367.81
    104.8700	  638.00	  608.32	-1754.82	  367.48
    104.9700	  601.00	  596.53	-1780.03	  367.15
    105.0700	  593.00	  587.10	-1778.60	  366.83
    105.1700	  605.00	  579.73	-1759.23	  366.50
    105.2700	  576.00	  574.13	-1782.63	  366.18
    105.3700	  592.00	  570.05	-1762.55	  365.86
    105.4700	  555.00	  567.27	-1796.77	  365.54
    105.5700	  586.00	  565.61	-1764.11	  365.22
    105.6700	  588.00	  564.92	-1761.42	  364.89
    105.7700	  591.00	  565.12	-1758.62	  364.58
    105.8700	  561.00	  566.12	-1789.62	  364.26
    105.9700	  587.00	  567.89	-1765.39	  363.94
    106.0700	  581.00	  570.43	-1773.93	  363.62
    106.1700	  548.00	  573.74	-1810.24	  363.31
    106.2700	  601.00	  577.85	-1761.35	  363.00
    106.3700	  649.00	  582.81	-1718.31	  362.68
    106.4700	  587.00	  588.66	-1786.16	  362.37
    106.5700	  629.00	  595.43	-1750.93	  362.06
    106.6700	  640.00	  603.12	-1747.62	  361.75
    106.7700	  624.00	  611.71	-1772.21	  361.45
    106.8700	  618.00	  621.11	-1787.61	  361.14
    106.9700	  683.00	  631.21	-1732.71	  360.83
    107.0700	  622.00	  641.82	-1804.32	  360.53
    107.1700	  642.00	  652.71	-1795.21	  360.23
    107.2700	  624.00	  663.60	-1824.10	  359.93
    107.3700	  636.00	  674.16	-1822.66	  359.63
    107.4700	  679.00	  684.02	-1789.52	  359.33
    107.5700	  722.00	  692.79	-1755.29	  359.04
    107.6700	  749.00	  700.13	-1735.63	  358.75
    107.7700	  695.00	  705.73	-1795.23	  358.45
    107.8700	  728.00	  709.43	-1765.93	  358.16
    107.9700	  717.00	  711.25	-1778.75	  357.88
    108.0700	  716.00	  711.35	-1779.85	  357.59
    108.1700	  732.00	  710.04	-1762.54	  357.31
    108.2700	  739.00	  707.69	-1753.19	  357.02
    108.3700	  760.00	  704.74	-1729.24	  356.74
    108.4700	  710.00	  701.60	-1776.10	  356.47
    108.5700	  742.00	  698.60	-1741.10	  356.19
    108.6700	  645.00	  696.02	-1835.52	  355.92
    108.7700	  690.00	  694.02	-1788.52	  355.65
    108.8700	  676.00	  692.68	-1801.19	  355.38
    108.9700	  720.00	  692.00	-1756.50	  355.11
    109.0700	  709.00	  691.86	-1767.36	  354.84
    109.1700	  698.00	  692.06	-1778.56	  354.58
    109.2700	  710.00	  692.32	-1766.82	  354.32
    109.3700	  729.00	  692.33	-1747.83	  354.07
    109.4700	  705.00	  691.74	-1771.24	  353.81
    109.5700	  713.00	  690.23	-1761.73	  353.56
    109.6700	  777.00	  687.54	-1695.04	  353.31
    109.7700	  700.00	  683.52	-1768.02	  353.06
    109.8700	  725.00	  678.17	-1737.67	  352.82
    109.9700	  698.00	  671.59	-1758.09	  352.58
    110.0700	  656.00	  663.97	-1792.47	  352.34
    110.1700	  701.00	  655.58	-1739.08	  352.10
    110.2700	  649.00	  646.70	-1782.20	  351.87
    110.3700	  661.00	  637.60	-1761.10	  351.64
    110.4700	  649.00	  628.56	-1764.06	  351.41
    110.5700	  606.00	  619.80	-1798.30	  351.19
    110.6700	  657.00	  611.52	-1739.02	  350.97
    110.7700	  643.00	  603.90	-1745.40	  350.75
    110.8700	  593.00	  597.05	-1788.55	  350.54
    110.9700	  559.00	  591.10	-1816.60	  350.33
    111.0700	  589.00	  586.08	-1781.58	  350.12
    111.1700	  616.00	  582.04	-1750.54	  349.92
    111.2700	  609.00	  578.97	-1754.47	  349.72
    111.3700	  619.00	  576.84	-1742.34	  349.52
    111.4700	  569.00	  575.60	-1791.10	  349.32
    111.5700	  605.00	  575.18	-1754.68	  349.13
    111.6700	  581.00	  575.50	-1779.00	  348.95
    111.7700	  576.00	  576.47	-1784.97	  348.77
    111.8700	  526.00	  577.99	-1836.49	  348.59
    111.9700	  574.00	  579.96	-1790.46	  348.41
    112.0700	  603.00	  582.29	-1763.79	  348.24
    112.1700	  563.00	  584.86	-1806.36	  348.07
    112.2700	  606.00	  587.60	-1766.10	  347.91
    112.3700	  590.00	  590.42	-1784.92	  347.75
    112.4700	  591.00	  593.27	-1786.77	  347.60
    112.5700	  551.00	  596.12	-1829.62	  347.45
    112.6700	  632.00	  598.95	-1751.45	  347.30
    112.7700	  589.00	  601.77	-1797.27	  347.16
    112.8700	  563.00	  604.64	-1826.14	  347.02
    112.9700	  574.00	  607.61	-1818.11	  346.89
    113.0700	  578.00	  610.78	-1817.28	  346.76
    113.1700	  554.00	  614.25	-1844.75	  346.63
    113.2700	  608.00	  618.13	-1794.63	  346.51
    113.3700	  594.00	  622.55	-1813.05	  346.40
    113.4700	  635.00	  627.69	-1777.19	  346.29
    113.5700	  624.00	  633.71	-1794.21	  346.18
    113.6700	  644.00	  640.85	-1781.35	  346.08
    113.7700	  618.00	  649.38	-1815.88	  345.98
    113.8700	  668.00	  659.63	-1776.13	  345.89
    113.9700	  656.00	  672.02	-1800.52	  345.80
    114.0700	  649.00	  687.05	-1822.55	  345.72
    114.1700	  699.00	  705.36	-1790.86	  345.65
    114.2700	  700.00	  727.68	-1812.18	  345.58
    114.3700	  781.00	  754.94	-1758.44	  345.51
    114.4700	  765.00	  788.21	-1807.71	  345.45
    114.5700	  858.00	  828.75	-1755.25	  345.40
    114.6700	  784.00	  878.00	-1878.50	  345.35
    114.7700	  901.00	  937.61	-1821.11	  345.30
    114.8700	  998.00	 1009.38	-1795.88	  345.26
    114.9700	 1084.00	 1095.28	-1795.78	  345.23
    115.0700	 1248.00	 1197.38	-1733.88	  345.20
    115.1700	 1314.00	 1317.80	-1788.30	  345.18
    115.2700	 1538.00	 1458.61	-1705.11	  345.17
    115.3700	 1633.00	 1621.81	-1773.31	  345.16
    115.4700	 1851.00	 1809.10	-1742.60	  345.15
    115.5700	 2088.00	 2021.91	-1718.41	  345.16
    115.6700	 2289.00	 2261.11	-1756.61	  345.17
    115.7700	 2647.00	 2526.95	-1664.45	  345.18
    115.8700	 2866.00	 2819.04	-1737.54	  345.20
    115.9700	 3238.00	 3135.98	-1682.48	  345.23
    116.0700	 3531.00	 3475.59	-1729.09	  345.26
    116.1700	 3978.00	 3834.52	-1641.02	  345.30
    116.2700	 4164.00	 4208.29	-1828.79	  345.35
    116.3700	 4664.00	 4591.59	-1712.09	  345.40
    116.4700	 4931.00	 4977.69	-1831.19	  345.46
    116.5700	 5242.00	 5359.05	-1901.55	  345.53
    116.6700	 5712.00	 5726.97	-1799.47	  345.60
    116.7700	 6268.00	 6071.93	-1588.43	  345.68
    116.8700	 6147.00	 6383.97	-2021.47	  345.77
    116.9700	 6516.00	 6652.77	-1921.27	  345.86
    117.0700	 6850.00	 6868.63	-1803.13	  345.97
    117.1700	 7032.00	 7022.93	-1775.43	  346.07
    117.2700	 6970.00	 7109.14	-1923.64	  346.19
    117.3700	 7138.00	 7123.63	-1770.13	  346.31
    117.4700	 6943.00	 7066.04	-1907.54	  346.44
    117.5700	 7048.00	 6939.37	-1675.87	  346.58
    117.6700	 6646.00	 6749.58	-1888.08	  346.73
    117.7700	 6333.00	 6504.90	-1956.40	  346.88
    117.8700	 5929.00	 6214.80	-2070.30	  347.04
    117.9700	 5839.00	 5889.47	-1834.97	  347.21
    118.0700	 5406.00	 5538.81	-1917.31	  347.39
    118.1700	 5208.00	 5172.36	-1748.86	  347.57
    118.2700	 4734.00	 4798.83	-1849.33	  347.76
    118.3700	 4565.00	 4425.79	-1645.29	  347.96
    118.4700	 4220.00	 4059.96	-1624.46	  348.17
    118.5700	 3826.00	 3706.73	-1665.23	  348.39
    118.6700	 3445.00	 3370.54	-1710.04	  348.61
    118.7700	 3178.00	 3054.76	-1661.26	  348.85
    118.8700	 2718.00	 2761.60	-1828.10	  349.09
    118.9700	 2546.00	 2492.60	-1731.10	  349.34
    119.0700	 2338.00	 2248.24	-1694.74	  349.60
    119.1700	 2009.00	 2028.49	-1803.99	  349.87
    119.2700	 1832.00	 1832.70	-1785.20	  350.14
    119.3700	 1656.00	 1659.70	-1788.20	  350.43
    119.4700	 1571.00	 1508.10	-1721.60	  350.72
    119.5700	 1369.00	 1376.17	-1791.67	  351.02
    119.6700	 1285.00	 1262.10	-1761.60	  351.34
    119.7700	 1182.00	 1164.04	-1766.54	  351.66
    119.8700	 1115.00	 1080.11	-1749.61	  351.99
    119.9700	 1000.00	 1008.54	-1793.04	  352.33
    120.0700	  975.00	  947.65	-1757.15	  352.68
    120.1700	  921.00	  895.94	-1759.44	  353.04
    120.2700	  867.00	  852.07	-1769.57	  353.41
    120.3700	  769.00	  814.84	-1830.34	  353.79
    120.4700	  776.00	  783.23	-1791.73	  354.18
    120.5700	  783.00	  756.36	-1757.86	  354.57
    120.6700	  699.00	  733.51	-1819.01	  354.98
    120.7700	  697.00	  714.07	-1801.57	  355.40
    120.8700	  761.00	  697.53	-1721.03	  355.83
    120.9700	  711.00	  683.48	-1756.98	  356.27
    121.0700	  619.00	  671.59	-1837.09	  356.72
    121.1700	  686.00	  661.58	-1760.08	  357.17
    121.2700	  649.00	  653.22	-1788.72	  357.64
    121.3700	  612.00	  646.34	-1818.84	  358.12
    121.4700	  602.00	  640.79	-1823.29	  358.62
    121.5700	  587.00	  636.43	-1833.93	  359.12
    121.6700	  624.00	  633.17	-1793.67	  359.63
    121.7700	  630.00	  630.91	-1785.41	  360.15
    121.8700	  646.00	  629.57	-1768.07	  360.69
    121.9700	  596.00	  629.08	-1817.58	  361.23
    122.0700	  619.00	  629.36	-1794.86	  361.79
    122.1700	  652.00	  630.35	-1762.85	  362.36
    122.2700	  651.00	  631.98	-1765.48	  362.94
    122.3700	  640.00	  634.17	-1778.67	  363.53
    122.4700	  611.00	  636.86	-1810.36	  364.13
    122.5700	  657.00	  639.95	-1767.45	  364.74
    122.6700	  676.00	  643.36	-1751.86	  365.37
    122.7700	  656.00	  646.99	-1775.49	  366.01
    122.8700	  684.00	  650.75	-1751.25	  366.66
    122.9700	  659.00	  654.53	-1780.03	  367.32
    123.0700	  653.00	  658.22	-1789.72	  367.99
    123.1700	  651.00	  661.71	-1795.21	  368.68
    123.2700	  656.00	  664.88	-1793.38	  369.38
    123.3700	  668.00	  667.64	-1784.14	  370.09
    123.4700	  658.00	  669.88	-1796.38	  370.81
    123.5700	  671.00	  671.53	-1785.03	  371.55
    123.6700	  707.00	  672.55	-1750.05	  372.30
    123.7700	  699.00	  672.90	-1758.40	  373.06
    123.8700	  663.00	  672.60	-1794.10	  373.83
    123.9700	  667.00	  671.68	-1789.18	  374.62
    124.0700	  693.00	  670.17	-1761.67	  375.42
    124.1700	  638.00	  668.16	-1814.66	  376.23
    124.2700	  673.00	  665.71	-1777.21	  377.06
    124.3700	  635.00	  662.90	-1812.40	  377.90
    124.4700	  641.00	  659.81	-1803.31	  378.75
    124.5700	  664.00	  656.50	-1777.00	  379.62
    124.6700	  616.00	  653.08	-1821.58	  380.50
    124.7700	  632.00	  649.60	-1802.10	  381.40
    124.8700	  622.00	  646.14	-1808.64	  382.31
    124.9700	  642.00	  498.28	-1640.78	  383.23
    125.0700	  641.00	  499.22	-1784.50	  384.17
    125.1700	  591.00	  500.17	-1784.50	  385.12
    125.2700	  643.00	  501.14	-1784.50	  386.08
    125.3700	  555.00	  502.12	-1784.50	  387.06
    125.4700	  609.00	  503.11	-1784.50	  388.06
    125.5700	  561.00	  504.12	-1784.50	  389.07
    125.6700	  669.00	  505.14	-1784.50	  390.09
    125.7700	  594.00	  506.18	-1784.50	  391.13
    125.8700	  614.00	  507.24	-1784.50	  392.18
    125.9700	  581.00	  508.30	-1784.50	  393.25
    126.0700	  549.00	  509.39	-1784.50	  394.34
    126.1700	  554.00	  510.49	-1784.50	  395.44
    126.2700	  581.00	  511.60	-1784.50	  396.55
    126.3700	  538.00	  512.73	-1784.50	  397.68
    126.4700	  585.00	  513.88	-1784.50	  398.83
    126.5700	  566.00	  515.04	-1784.50	  399.99
    126.6700	  585.00	  516.22	-1784.50	  401.17
    126.7700	  598.00	  517.41	-1784.50	  402.36
    126.8700	  573.00	  518.62	-1784.50	  403.57
    126.9700	  589.00	  519.85	-1784.50	  404.80
    127.0700	  594.00	  521.09	-1784.50	  406.04
    127.1700	  604.00	  522.35	-1784.50	  407.30
    127.2700	  542.00	  523.62	-1784.50	  408.57
    127.3700	  571.00	  524.91	-1784.50	  409.86
    127.4700	  572.00	  526.22	-1784.50	  411.17
    127.5700	  582.00	  527.55	-1784.50	  412.49
    127.6700	  615.00	  528.89	-1784.50	  413.84
    127.7700	  621.00	  530.25	-1784.50	  415.20
    127.8700	  590.00	  531.62	-1784.50	  416.57
    127.9700	  599.00	  533.02	-1784.50	  417.97
    128.0700	  665.00	  534.43	-1784.50	  419.38
    128.1700	  610.00	  535.86	-1784.50	  420.81
    128.2700	  718.00	  537.30	-1784.50	  422.25
    128.3700	  659.00	  538.77	-1784.50	  423.72
    128.4700	  677.00	  540.25	-1784.50	  425.20
    128.5700	    0.00	  541.75	-1784.50	  426.70
    128.6700	    0.00	  543.27	-1784.50	  428.21
     12.3645	        	        	        	        	       0	(  0  0  2)	  0  1
     25.0020	        	        	        	        	       0	(  0  0  4)	  0  1
     28.4415	        	        	        	        	       0	(  1  0  0)	  0  1
     29.1423	        	        	        	        	       0	(  1  0  1)	  0  1
     31.1585	        	        	        	        	       0	(  1  0  2)	  0  1
     34.2823	        	        	        	        	       0	(  1  0  3)	  0  1
     37.9596	        	        	        	        	       0	(  0  0  6)	  0  1
     38.2791	        	        	        	        	       0	(  1  0  4)	  0  1
     42.9526	        	        	        	        	       0	(  1  0  5)	  0  1
     48.1632	        	        	        	        	       0	(  1  0  6)	  0  1
     50.4678	        	        	        	        	       0	(  1  1  0)	  0  1
     51.4469	        	        	        	        	       0	(  0  0  8)	  0  1
     52.2005	        	        	        	        	       0	(  1  1  2)	  0  1
     53.8234	        	        	        	        	       0	(  1  0  7)	  0  1
     57.1765	        	        	        	        	       0	(  1  1  4)	  0  1
     59.0036	        	        	        	        	       0	(  2  0  0)	  0  1
     59.3975	        	        	        	        	       0	(  2  0  1)	  0  1
     59.8870	        	        	        	        	       0	(  1  0  8)	  0  1
     60.5698	        	        	        	        	       0	(  2  0  2)	  0  1
     62.4946	        	        	        	        	       0	(  2  0  3)	  0  1
     64.9168	        	        	        	        	       0	(  1  1  6)	  0  1
     65.1347	        	        	        	        	       0	(  2  0  4)	  0  1
     65.7542	        	        	        	        	       0	(  0  0 10)	  0  1
     66.3408	        	        	        	        	       0	(  1  0  9)	  0  1
     68.4497	        	        	        	        	       0	(  2  0  5)	  0  1
     72.4026	        	        	        	        	       0	(  2  0  6)	  0  1
     73.1995	        	        	        	        	       0	(  1  0 10)	  0  1
     75.0188	        	        	        	        	       0	(  1  1  8)	  0  1
     76.9675	        	        	        	        	       0	(  2  0  7)	  0  1
     80.5067	        	        	        	        	       0	(  1  0 11)	  0  1
     81.3354	        	        	        	        	       0	(  0  0 12)	  0  1
     81.3651	        	        	        	        	       0	(  2  1  0)	  0  1
     81.7075	        	        	        	        	       0	(  2  1  1)	  0  1
     82.1346	        	        	        	        	       0	(  2  0  8)	  0  1
     82.7330	        	        	        	        	       0	(  2  1  2)	  0  1
     84.4373	        	        	        	        	       0	(  2  1  3)	  0  1
     86.8154	        	        	        	        	       0	(  2  1  4)	  0  1
     87.3801	        	        	        	        	       0	(  1  1 10)	  0  1
     87.9170	        	        	        	        	       0	(  2  0  9)	  0  1
     88.3402	        	        	        	        	       0	(  1  0 12)	  0  1
     89.8659	        	        	        	        	       0	(  2  1  5)	  0  1
     93.5951	        	        	        	        	       0	(  2  1  6)	  0  1
     94.3588	        	        	        	        	       0	(  2  0 10)	  0  1
     95.3515	        	        	        	        	       0	(  3  0  0)	  0  1
     95.6919	        	        	        	        	       0	(  3  0  1)	  0  1
     96.7145	        	        	        	        	       0	(  3  0  2)	  0  1
     96.8269	        	        	        	        	       0	(  1  0 13)	  0  1
     98.0240	        	        	        	        	       0	(  2  1  7)	  0  1
     98.4239	        	        	        	        	       0	(  3  0  3)	  0  1
     99.0223	        	        	        	        	       0	(  0  0 14)	  0  1
    100.8302	        	        	        	        	       0	(  3  0  4)	  0  1
    101.5491	        	        	        	        	       0	(  2  0 11)	  0  1
    102.3863	        	        	        	        	       0	(  1  1 12)	  0  1
    103.1980	        	        	        	        	       0	(  2  1  8)	  0  1
    103.9538	        	        	        	        	       0	(  3  0  5)	  0  1
    106.1758	        	        	        	        	       0	(  1  0 14)	  0  1
    107.8316	        	        	        	        	       0	(  3  0  6)	  0  1
    109.2018	        	        	        	        	       0	(  2  1  9)	  0  1
    109.6507	        	        	        	        	       0	(  2  0 12)	  0  1
    112.5288	        	        	        	        	       0	(  3  0  7)	  0  1
    116.1894	        	        	        	        	       0	(  2  1 10)	  0  1
    116.7566	        	        	        	        	       0	(  1  0 15)	  0  1
    117.2981	        	        	        	        	       0	(  2  2  0)	  0  1
    118.1596	        	        	        	        	       0	(  3  0  8)	  0  1
    118.8356	        	        	        	        	       0	(  2  2  2)	  0  1
    118.9632	        	        	        	        	       0	(  2  0 13)	  0  1
    120.7879	        	        	        	        	       0	(  0  0 16)	  0  1
    121.4821	        	        	        	        	       0	(  1  1 14)	  0  1
    123.5967	        	        	        	        	       0	(  2  2  4)	  0  1
    124.4484	        	        	        	        	       0	(  2  1 11)	  0  1
    124.9302	        	        	        	        	       0	(  3  0  9)	  0  1
    125.4847	        	        	        	        	       0	(  3  1  0)	  0  1
    125.9025	        	        	        	        	       0	(  3  1  1)	  0  1
    127.1695	        	        	        	        	       0	(  3  1  2)	  0  1
    129.3302	        	        	        	        	       0	(  3  1  3)	  0  1
    129.3275	        	        	        	        	       0	(  1  0 16)	  0  1
    130.1003	        	        	        	        	       0	(  2  0 14)	  0  1
    132.2058	        	        	        	        	       0	(  2  2  6)	  0  1
    132.4739	        	        	        	        	       0	(  3  1  4)	  0  1
    133.2448	        	        	        	        	       0	(  3  0 10)	  0  1
    134.5795	        	        	        	        	       0	(  2  1 12)	  0  1
    136.7676	        	        	        	        	       0	(  3  1  5)	  0  1
    142.5407	        	        	        	        	       0	(  3  1  6)	  0  1
    144.0555	        	        	        	        	       0	(  3  0 11)	  0  1
    144.6859	        	        	        	        	       0	(  2  0 15)	  0  1
    146.0301	        	        	        	        	       0	(  1  0 17)	  0  1
    146.9052	        	        	        	        	       0	(  2  2  8)	  0  1
    148.2239	        	        	        	        	       0	(  2  1 13)	  0  1
    150.5634	        	        	        	        	       0	(  3  1  7)	  0  1
    151.3775	        	        	        	        	       0	(  1  1 16)	  0  1
    156.1916	        	        	        	        	       0	(  0  0 18)	  0  1
    161.1096	        	        	        	        	       0	(  3  0 12)	  0  1
    161.2013	        	        	        	        	       0	(  4  0  0)	  0  1
    162.2898	        	        	        	        	       0	(  4  0  1)	  0  1
    163.7482	        	        	        	        	       0	(  3  1  8)	  0  1
    166.0436	        	        	        	        	       0	(  4  0  2)	  0  1
