MSG Master    CELL:    5.90446   5.90446  23.19132   90.0000   90.0000  120.0000   SPGR: P 63/m m c             TEMP:    840.65
  1   1280     2.52000     0.00000    -0.13060     0.00000     0.00000    0
    98     0     2
       0.00000      10.00000
     125.00000     130.00000
 2Theta	Yobs	Ycal	Yobs-Ycal	Backg	Posr	(hkl)	K
      0.7700	    0.00	  460.03	-1769.75	  352.03
      0.8700	    0.00	  461.83	-1769.75	  353.84
      0.9700	   43.00	  463.62	-1769.75	  355.63
      1.0700	   43.00	  465.39	-1769.75	  357.39
      1.1700	   44.00	  467.14	-1769.75	  359.14
      1.2700	   42.00	  468.87	-1769.75	  360.87
      1.3700	   36.00	  470.58	-1769.75	  362.58
      1.4700	   96.00	  472.27	-1769.75	  364.27
      1.5700	  283.00	  473.94	-1769.75	  365.95
      1.6700	  445.00	  475.59	-1769.75	  367.60
      1.7700	  582.00	  477.23	-1769.75	  369.23
      1.8700	  669.00	  478.84	-1769.75	  370.85
      1.9700	  697.00	  480.44	-1769.75	  372.45
      2.0700	  820.00	  482.02	-1769.75	  374.03
      2.1700	  761.00	  483.58	-1769.75	  375.59
      2.2700	  778.00	  485.13	-1769.75	  377.13
      2.3700	  726.00	  486.65	-1769.75	  378.66
      2.4700	  734.00	  488.16	-1769.75	  380.16
      2.5700	  711.00	  489.65	-1769.75	  381.65
      2.6700	  646.00	  491.12	-1769.75	  383.12
      2.7700	  641.00	  492.57	-1769.75	  384.58
      2.8700	  618.00	  494.01	-1769.75	  386.01
      2.9700	  575.00	  495.43	-1769.75	  387.43
      3.0700	  607.00	  496.83	-1769.75	  388.84
      3.1700	  581.00	  498.22	-1769.75	  390.22
      3.2700	  663.00	  499.58	-1769.75	  391.59
      3.3700	  797.00	  500.93	-1769.75	  392.94
      3.4700	  936.00	  502.27	-1769.75	  394.27
      3.5700	  930.00	  503.59	-1769.75	  395.59
      3.6700	 1116.00	  504.89	-1769.75	  396.89
      3.7700	 1138.00	  506.17	-1769.75	  398.18
      3.8700	 1237.00	  507.44	-1769.75	  399.45
      3.9700	 1217.00	  508.69	-1769.75	  400.70
      4.0700	 1338.00	  509.93	-1769.75	  401.93
      4.1700	 1377.00	  511.15	-1769.75	  403.15
      4.2700	 1308.00	  512.35	-1769.75	  404.36
      4.3700	 1352.00	  513.54	-1769.75	  405.55
      4.4700	 1299.00	  514.71	-1769.75	  406.72
      4.5700	 1223.00	  515.87	-1769.75	  407.87
      4.6700	 1201.00	  517.01	-1769.75	  409.02
      4.7700	 1132.00	  518.13	-1769.75	  410.14
      4.8700	 1174.00	  519.25	-1769.75	  411.25
      4.9700	 1133.00	  520.34	-1769.75	  412.35
      5.0700	 1126.00	  521.42	-1769.75	  413.43
      5.1700	 1037.00	  522.49	-1769.75	  414.49
      5.2700	 1020.00	  523.54	-1769.75	  415.54
      5.3700	 1017.00	  524.57	-1769.75	  416.58
      5.4700	  996.00	  525.59	-1769.75	  417.60
      5.5700	  983.00	  526.60	-1769.75	  418.60
      5.6700	  891.00	  527.59	-1769.75	  419.60
      5.7700	  960.00	  528.57	-1769.75	  420.57
      5.8700	  868.00	  529.53	-1769.75	  421.54
      5.9700	  888.00	  530.48	-1769.75	  422.48
      6.0700	  853.00	  531.41	-1769.75	  423.42
      6.1700	  811.00	  532.33	-1769.75	  424.34
      6.2700	  821.00	  533.24	-1769.75	  425.25
      6.3700	  805.00	  534.13	-1769.75	  426.14
      6.4700	  797.00	  535.01	-1769.75	  427.02
      6.5700	  766.00	  535.88	-1769.75	  427.88
      6.6700	  765.00	  536.73	-1769.75	  428.74
      6.7700	  753.00	  537.57	-1769.75	  429.57
      6.8700	  795.00	  538.39	-1769.75	  430.40
      6.9700	  738.00	  539.20	-1769.75	  431.21
      7.0700	  732.00	  540.00	-1769.75	  432.01
      7.1700	  719.00	  540.79	-1769.75	  432.80
      7.2700	  706.00	  541.56	-1769.75	  433.57
      7.3700	  729.00	  542.32	-1769.75	  434.33
      7.4700	  710.00	  543.07	-1769.75	  435.08
      7.5700	  670.00	  543.80	-1769.75	  435.81
      7.6700	  653.00	  544.53	-1769.75	  436.53
      7.7700	  691.00	  545.24	-1769.75	  437.24
      7.8700	  649.00	  545.93	-1769.75	  437.94
      7.9700	  637.00	  546.62	-1769.75	  438.62
      8.0700	  595.00	  547.29	-1769.75	  439.30
      8.1700	  634.00	  547.95	-1769.75	  439.96
      8.2700	  673.00	  548.60	-1769.75	  440.61
      8.3700	  686.00	  549.24	-1769.75	  441.24
      8.4700	  656.00	  549.86	-1769.75	  441.87
      8.5700	  645.00	  550.47	-1769.75	  442.48
      8.6700	  632.00	  551.07	-1769.75	  443.08
      8.7700	  615.00	  551.66	-1769.75	  443.67
      8.8700	  640.00	  552.24	-1769.75	  444.25
      8.9700	  619.00	  552.81	-1769.75	  444.82
      9.0700	  653.00	  553.36	-1769.75	  445.37
      9.1700	  662.00	  553.91	-1769.75	  445.92
      9.2700	  627.00	  554.44	-1769.75	  446.45
      9.3700	  651.00	  554.96	-1769.75	  446.97
      9.4700	  605.00	  555.48	-1769.75	  447.48
      9.5700	  569.00	  555.98	-1769.75	  447.98
      9.6700	  620.00	  556.46	-1769.75	  448.47
      9.7700	  618.00	  556.94	-1769.75	  448.95
      9.8700	  603.00	  557.41	-1769.75	  449.42
      9.9700	  606.00	  557.87	-1769.75	  449.88
     10.0700	  605.00	  560.11	-1724.86	  450.32
     10.1700	  611.00	  560.71	-1719.46	  450.76
     10.2700	  605.00	  561.33	-1726.08	  451.19
     10.3700	  591.00	  562.00	-1740.75	  451.60
     10.4700	  595.00	  562.73	-1737.48	  452.01
     10.5700	  565.00	  563.58	-1768.33	  452.40
     10.6700	  588.00	  564.62	-1746.37	  452.79
     10.7700	  608.00	  565.93	-1727.68	  453.17
     10.8700	  597.00	  567.58	-1740.33	  453.53
     10.9700	  597.00	  569.62	-1742.37	  453.89
     11.0700	  609.00	  572.03	-1732.78	  454.24
     11.1700	  631.00	  574.83	-1713.58	  454.57
     11.2700	  551.00	  578.05	-1796.80	  454.90
     11.3700	  573.00	  581.74	-1778.49	  455.22
     11.4700	  591.00	  586.02	-1764.77	  455.53
     11.5700	  644.00	  591.08	-1716.83	  455.83
     11.6700	  571.00	  597.19	-1795.94	  456.12
     11.7700	  617.00	  604.72	-1757.47	  456.40
     11.8700	  596.00	  614.01	-1787.76	  456.67
     11.9700	  642.00	  624.96	-1752.71	  456.94
     12.0700	  662.00	  636.32	-1744.07	  457.19
     12.1700	  656.00	  644.98	-1758.73	  457.44
     12.2700	  653.00	  645.89	-1762.64	  457.68
     12.3700	  679.00	  635.47	-1726.22	  457.91
     12.4700	  629.00	  617.89	-1758.64	  458.13
     12.5700	  650.00	  601.13	-1720.88	  458.34
     12.6700	  618.00	  588.93	-1740.68	  458.54
     12.7700	  539.00	  581.31	-1812.06	  458.74
     12.8700	  597.00	  576.97	-1749.72	  458.92
     12.9700	  585.00	  574.58	-1759.33	  459.10
     13.0700	  550.00	  573.19	-1792.94	  459.27
     13.1700	  584.00	  572.32	-1758.07	  459.44
     13.2700	  559.00	  571.73	-1782.48	  459.59
     13.3700	  572.00	  571.31	-1769.06	  459.74
     13.4700	  536.00	  571.01	-1804.76	  459.88
     13.5700	  563.00	  570.79	-1777.54	  460.01
     13.6700	  565.00	  570.62	-1775.37	  460.13
     13.7700	  588.00	  570.51	-1752.26	  460.25
     13.8700	  536.00	  570.42	-1804.17	  460.36
     13.9700	  569.00	  570.36	-1771.11	  460.46
     14.0700	  560.00	  570.34	-1780.09	  460.55
     14.1700	  547.00	  570.31	-1793.06	  460.64
     14.2700	  545.00	  570.29	-1795.04	  460.72
     14.3700	  587.00	  570.27	-1753.02	  460.79
     14.4700	  565.00	  570.26	-1775.01	  460.86
     14.5700	  576.00	  570.25	-1764.00	  460.91
     14.6700	  545.00	  570.24	-1794.99	  460.96
     14.7700	  548.00	  570.23	-1791.98	  461.01
     14.8700	  533.00	  570.23	-1806.98	  461.05
     14.9700	  529.00	  570.21	-1810.96	  461.08
     15.0700	  534.00	  570.20	-1805.95	  461.10
     15.1700	  541.00	  570.18	-1798.93	  461.12
     15.2700	  544.00	  570.16	-1795.91	  461.13
     15.3700	  571.00	  570.14	-1768.89	  461.13
     15.4700	  557.00	  570.11	-1782.86	  461.13
     15.5700	  599.00	  570.08	-1740.83	  461.12
     15.6700	  572.00	  570.05	-1767.80	  461.11
     15.7700	  562.00	  570.01	-1777.76	  461.09
     15.8700	  525.00	  569.96	-1814.71	  461.06
     15.9700	  533.00	  569.92	-1806.67	  461.03
     16.0700	  557.00	  569.86	-1782.61	  460.99
     16.1700	  546.00	  569.80	-1793.55	  460.94
     16.2700	  589.00	  569.74	-1750.49	  460.89
     16.3700	  514.00	  569.67	-1825.42	  460.83
     16.4700	  584.00	  569.60	-1755.35	  460.77
     16.5700	  577.00	  569.52	-1762.27	  460.70
     16.6700	  577.00	  569.44	-1762.19	  460.63
     16.7700	  568.00	  569.35	-1771.10	  460.55
     16.8700	  542.00	  569.26	-1797.01	  460.46
     16.9700	  559.00	  569.16	-1779.91	  460.37
     17.0700	  517.00	  569.06	-1821.81	  460.28
     17.1700	  577.00	  568.96	-1761.71	  460.18
     17.2700	  561.00	  568.84	-1777.59	  460.07
     17.3700	  541.00	  568.73	-1797.48	  459.96
     17.4700	  520.00	  568.72	-1818.47	  459.84
     17.5700	  544.00	  568.59	-1794.34	  459.72
     17.6700	  597.00	  568.47	-1741.22	  459.59
     17.7700	  529.00	  568.33	-1809.08	  459.46
     17.8700	  532.00	  568.20	-1805.95	  459.32
     17.9700	  534.00	  568.15	-1803.90	  459.18
     18.0700	  542.00	  568.01	-1795.76	  459.04
     18.1700	  562.00	  567.86	-1775.61	  458.88
     18.2700	  531.00	  567.71	-1806.46	  458.73
     18.3700	  520.00	  567.55	-1817.30	  458.57
     18.4700	  518.00	  567.39	-1819.14	  458.40
     18.5700	  551.00	  567.23	-1785.98	  458.23
     18.6700	  548.00	  567.06	-1788.81	  458.06
     18.7700	  551.00	  566.88	-1785.63	  457.88
     18.8700	  558.00	  566.71	-1778.46	  457.70
     18.9700	  571.00	  566.53	-1765.28	  457.51
     19.0700	  545.00	  566.34	-1791.09	  457.32
     19.1700	  568.00	  566.15	-1767.90	  457.12
     19.2700	  565.00	  565.96	-1770.71	  456.92
     19.3700	  571.00	  565.77	-1764.52	  456.72
     19.4700	  530.00	  565.57	-1805.32	  456.51
     19.5700	  596.00	  565.37	-1739.12	  456.30
     19.6700	  517.00	  565.20	-1817.95	  456.08
     19.7700	  557.00	  564.99	-1777.74	  455.86
     19.8700	  536.00	  564.78	-1798.53	  455.64
     19.9700	  551.00	  564.56	-1783.31	  455.41
     20.0700	  570.00	  564.35	-1764.10	  455.18
     20.1700	  564.00	  564.13	-1769.88	  454.95
     20.2700	  538.00	  563.90	-1795.65	  454.71
     20.3700	  537.00	  563.68	-1796.43	  454.47
     20.4700	  537.00	  563.45	-1796.20	  454.22
     20.5700	  522.00	  563.22	-1810.97	  453.98
     20.6700	  532.00	  562.99	-1800.74	  453.72
     20.7700	  564.00	  562.75	-1768.50	  453.47
     20.8700	  527.00	  562.51	-1805.26	  453.21
     20.9700	  515.00	  562.27	-1817.02	  452.95
     21.0700	  533.00	  562.03	-1798.78	  452.68
     21.1700	  579.00	  561.79	-1752.54	  452.42
     21.2700	  590.00	  561.55	-1741.30	  452.14
     21.3700	  568.00	  561.30	-1763.05	  451.87
     21.4700	  584.00	  561.06	-1746.81	  451.59
     21.5700	  571.00	  560.81	-1759.56	  451.31
     21.6700	  534.00	  560.56	-1796.31	  451.03
     21.7700	  560.00	  560.31	-1770.06	  450.74
     21.8700	  534.00	  560.07	-1795.82	  450.46
     21.9700	  496.00	  559.82	-1833.57	  450.16
     22.0700	  532.00	  559.57	-1797.32	  449.87
     22.1700	  498.00	  559.33	-1831.08	  449.57
     22.2700	  529.00	  559.25	-1800.00	  449.27
     22.3700	  540.00	  559.01	-1788.76	  448.97
     22.4700	  533.00	  558.78	-1795.53	  448.67
     22.5700	  578.00	  558.55	-1750.30	  448.36
     22.6700	  556.00	  558.33	-1772.08	  448.05
     22.7700	  570.00	  558.12	-1757.87	  447.74
     22.8700	  534.00	  557.87	-1793.62	  447.43
     22.9700	  540.00	  557.68	-1787.43	  447.11
     23.0700	  545.00	  557.51	-1782.26	  446.79
     23.1700	  615.00	  557.35	-1712.10	  446.47
     23.2700	  559.00	  557.22	-1767.97	  446.15
     23.3700	  570.00	  557.13	-1756.88	  445.82
     23.4700	  567.00	  557.07	-1759.82	  445.49
     23.5700	  545.00	  557.07	-1781.82	  445.17
     23.6700	  571.00	  557.15	-1755.90	  444.83
     23.7700	  580.00	  557.36	-1747.11	  444.50
     23.8700	  594.00	  557.75	-1733.50	  444.17
     23.9700	  557.00	  558.47	-1771.22	  443.83
     24.0700	  541.00	  559.74	-1788.49	  443.49
     24.1700	  567.00	  561.91	-1764.66	  443.15
     24.2700	  589.00	  565.49	-1746.24	  442.81
     24.3700	  583.00	  571.02	-1757.77	  442.46
     24.4700	  584.00	  578.93	-1764.68	  442.12
     24.5700	  572.00	  589.24	-1786.99	  441.77
     24.6700	  690.00	  601.05	-1680.80	  441.42
     24.7700	  663.00	  611.95	-1718.70	  441.07
     24.8700	  655.00	  617.65	-1732.40	  440.72
     24.9700	  651.00	  613.72	-1732.47	  440.37
     25.0700	  626.00	  600.99	-1744.74	  440.01
     25.1700	  590.00	  585.98	-1765.73	  439.66
     25.2700	  596.00	  573.57	-1747.32	  439.30
     25.3700	  597.00	  565.01	-1737.76	  438.94
     25.4700	  555.00	  559.73	-1774.48	  438.58
     25.5700	  586.00	  556.65	-1740.40	  438.22
     25.6700	  611.00	  554.81	-1713.56	  437.86
     25.7700	  602.00	  553.63	-1721.38	  437.49
     25.8700	  555.00	  552.81	-1767.56	  437.13
     25.9700	  582.00	  552.22	-1739.97	  436.76
     26.0700	  600.00	  551.77	-1721.52	  436.39
     26.1700	  602.00	  551.46	-1719.21	  436.03
     26.2700	  597.00	  551.25	-1724.00	  435.66
     26.3700	  573.00	  551.15	-1747.90	  435.29
     26.4700	  621.00	  551.16	-1699.91	  434.92
     26.5700	  595.00	  551.28	-1726.03	  434.55
     26.6700	  581.00	  551.54	-1740.29	  434.17
     26.7700	  596.00	  551.94	-1725.69	  433.80
     26.8700	  576.00	  552.52	-1746.27	  433.43
     26.9700	  597.00	  553.34	-1726.09	  433.05
     27.0700	  609.00	  554.46	-1715.21	  432.68
     27.1700	  587.00	  555.98	-1738.73	  432.30
     27.2700	  601.00	  558.12	-1726.87	  431.92
     27.3700	  605.00	  561.22	-1725.97	  431.55
     27.4700	  591.00	  565.98	-1744.73	  431.17
     27.5700	  611.00	  573.65	-1732.40	  430.79
     27.6700	  585.00	  586.27	-1771.02	  430.41
     27.7700	  600.00	  606.73	-1776.48	  430.03
     27.8700	  636.00	  638.16	-1771.91	  429.65
     27.9700	  654.00	  682.23	-1797.98	  429.27
     28.0700	  704.00	  736.80	-1802.55	  428.89
     28.1700	  814.00	  793.57	-1749.32	  428.51
     28.2700	  927.00	  836.52	-1679.27	  428.13
     28.3700	  984.00	  846.32	-1632.07	  427.75
     28.4700	  855.00	  820.45	-1735.20	  427.37
     28.5700	  760.00	  785.27	-1795.02	  426.98
     28.6700	  748.00	  767.43	-1789.18	  426.60
     28.7700	  704.00	  774.33	-1840.08	  426.22
     28.8700	  787.00	  797.22	-1779.97	  425.84
     28.9700	  845.00	  816.19	-1740.94	  425.45
     29.0700	  803.00	  807.66	-1774.41	  425.07
     29.1700	  822.00	  763.76	-1711.51	  424.69
     29.2700	  699.00	  703.72	-1774.47	  424.31
     29.3700	  655.00	  649.57	-1764.32	  423.92
     29.4700	  659.00	  609.98	-1720.73	  423.54
     29.5700	  599.00	  584.66	-1755.41	  423.16
     29.6700	  587.00	  569.75	-1752.50	  422.78
     29.7700	  606.00	  561.20	-1724.95	  422.39
     29.8700	  587.00	  556.11	-1738.86	  422.01
     29.9700	  573.00	  552.94	-1749.69	  421.63
     30.0700	  640.00	  551.01	-1680.76	  421.25
     30.1700	  590.00	  550.17	-1729.92	  420.87
     30.2700	  565.00	  550.63	-1755.38	  420.49
     30.3700	  596.00	  552.97	-1726.72	  420.10
     30.4700	  585.00	  558.12	-1742.87	  419.72
     30.5700	  626.00	  567.24	-1710.99	  419.34
     30.6700	  641.00	  581.09	-1709.84	  418.96
     30.7700	  608.00	  599.04	-1760.79	  418.58
     30.8700	  640.00	  618.14	-1747.89	  418.20
     30.9700	  630.00	  632.59	-1772.34	  417.83
     31.0700	  610.00	  634.82	-1794.57	  417.45
     31.1700	  620.00	  621.54	-1771.29	  417.07
     31.2700	  574.00	  599.38	-1795.13	  416.69
     31.3700	  569.00	  577.63	-1778.38	  416.32
     31.4700	  565.00	  560.87	-1765.62	  415.94
     31.5700	  555.00	  549.68	-1764.43	  415.56
     31.6700	  577.00	  542.91	-1735.66	  415.19
     31.7700	  537.00	  538.97	-1771.72	  414.82
     31.8700	  597.00	  536.63	-1709.38	  414.44
     31.9700	  540.00	  535.15	-1764.90	  414.07
     32.0700	  560.00	  534.16	-1743.91	  413.70
     32.1700	  554.00	  533.49	-1749.24	  413.33
     32.2700	  517.00	  533.08	-1785.83	  412.95
     32.3700	  556.00	  532.88	-1746.63	  412.58
     32.4700	  552.00	  532.91	-1750.66	  412.22
     32.5700	  545.00	  533.17	-1757.92	  411.85
     32.6700	  593.00	  533.68	-1710.43	  411.48
     32.7700	  549.00	  534.49	-1755.24	  411.11
     32.8700	  611.00	  535.69	-1694.44	  410.75
     32.9700	  547.00	  537.38	-1760.13	  410.38
     33.0700	  564.00	  539.76	-1745.51	  410.02
     33.1700	  566.00	  543.22	-1746.97	  409.65
     33.2700	  575.00	  548.50	-1743.25	  409.29
     33.3700	  581.00	  557.06	-1745.81	  408.93
     33.4700	  563.00	  571.53	-1778.28	  408.57
     33.5700	  597.00	  595.99	-1768.74	  408.21
     33.6700	  609.00	  635.66	-1796.41	  407.85
     33.7700	  699.00	  694.88	-1765.63	  407.50
     33.8700	  770.00	  772.98	-1772.73	  407.14
     33.9700	  905.00	  859.79	-1724.54	  406.79
     34.0700	 1020.00	  933.03	-1682.78	  406.43
     34.1700	 1023.00	  961.50	-1708.25	  406.08
     34.2700	 1029.00	  924.76	-1665.51	  405.73
     34.3700	  888.00	  840.32	-1722.07	  405.38
     34.4700	  732.00	  746.73	-1784.48	  405.03
     34.5700	  588.00	  668.75	-1850.50	  404.68
     34.6700	  605.00	  613.51	-1778.26	  404.33
     34.7700	  612.00	  578.52	-1736.27	  403.99
     34.8700	  592.00	  557.82	-1735.57	  403.64
     34.9700	  587.00	  545.70	-1728.45	  403.30
     35.0700	  538.00	  538.19	-1769.94	  402.96
     35.1700	  511.00	  533.09	-1791.84	  402.62
     35.2700	  510.00	  529.32	-1789.07	  402.28
     35.3700	  490.00	  526.37	-1806.12	  401.94
     35.4700	  549.00	  524.45	-1745.20	  401.61
     35.5700	  504.00	  522.46	-1788.21	  401.27
     35.6700	  521.00	  520.78	-1769.53	  400.94
     35.7700	  455.00	  519.34	-1834.09	  400.61
     35.8700	  520.00	  518.10	-1767.85	  400.27
     35.9700	  522.00	  516.97	-1764.72	  399.95
     36.0700	  463.00	  515.99	-1822.74	  399.62
     36.1700	  522.00	  515.11	-1762.86	  399.29
     36.2700	  507.00	  514.32	-1777.07	  398.97
     36.3700	  489.00	  513.61	-1794.36	  398.64
     36.4700	  491.00	  512.96	-1791.71	  398.32
     36.5700	  508.00	  512.37	-1774.12	  398.00
     36.6700	  533.00	  511.84	-1748.59	  397.68
     36.7700	  489.00	  511.37	-1792.12	  397.36
     36.8700	  506.00	  510.97	-1774.72	  397.05
     36.9700	  562.00	  510.67	-1718.42	  396.73
     37.0700	  494.00	  510.51	-1786.26	  396.42
     37.1700	  469.00	  510.60	-1811.35	  396.11
     37.2700	  505.00	  511.07	-1775.82	  395.80
     37.3700	  542.00	  512.08	-1739.83	  395.49
     37.4700	  533.00	  513.75	-1750.50	  395.18
     37.5700	  518.00	  516.01	-1767.76	  394.88
     37.6700	  532.00	  518.51	-1756.26	  394.58
     37.7700	  515.00	  520.66	-1775.41	  394.27
     37.8700	  497.00	  521.17	-1793.92	  393.97
     37.9700	  516.00	  519.72	-1773.47	  393.68
     38.0700	  512.00	  516.89	-1774.64	  393.38
     38.1700	  536.00	  513.71	-1747.46	  393.08
     38.2700	  484.00	  510.83	-1796.58	  392.79
     38.3700	  504.00	  508.50	-1774.25	  392.50
     38.4700	  487.00	  506.77	-1789.52	  392.21
     38.5700	  454.00	  505.54	-1821.29	  391.92
     38.6700	  523.00	  504.66	-1751.41	  391.64
     38.7700	  488.00	  504.01	-1785.76	  391.35
     38.8700	  483.00	  503.49	-1790.24	  391.07
     38.9700	  487.00	  503.05	-1785.80	  390.79
     39.0700	  491.00	  502.65	-1781.40	  390.51
     39.1700	  476.00	  502.30	-1796.05	  390.23
     39.2700	  518.00	  501.96	-1753.71	  389.96
     39.3700	  522.00	  501.65	-1749.40	  389.68
     39.4700	  520.00	  501.25	-1751.00	  389.41
     39.5700	  507.00	  500.97	-1763.72	  389.14
     39.6700	  512.00	  500.70	-1758.45	  388.87
     39.7700	  504.00	  500.44	-1766.19	  388.61
     39.8700	  505.00	  500.20	-1764.95	  388.34
     39.9700	  482.00	  499.97	-1787.72	  388.08
     40.0700	  516.00	  499.75	-1753.50	  387.82
     40.1700	  467.00	  499.54	-1802.29	  387.56
     40.2700	  464.00	  499.25	-1805.00	  387.30
     40.3700	  493.00	  499.60	-1776.35	  387.05
     40.4700	  477.00	  499.44	-1792.19	  386.80
     40.5700	  465.00	  499.30	-1804.05	  386.54
     40.6700	  501.00	  499.18	-1767.93	  386.30
     40.7700	  503.00	  499.08	-1765.83	  386.05
     40.8700	  500.00	  499.01	-1768.76	  385.80
     40.9700	  478.00	  498.96	-1790.71	  385.56
     41.0700	  509.00	  498.95	-1759.70	  385.32
     41.1700	  464.00	  498.98	-1804.73	  385.08
     41.2700	  504.00	  499.06	-1764.81	  384.84
     41.3700	  502.00	  499.25	-1767.00	  384.60
     41.4700	  472.00	  499.47	-1797.22	  384.37
     41.5700	  477.00	  499.79	-1792.54	  384.14
     41.6700	  472.00	  500.26	-1798.01	  383.91
     41.7700	  469.00	  501.00	-1801.75	  383.68
     41.8700	  575.00	  502.06	-1696.81	  383.46
     41.9700	  483.00	  503.78	-1790.53	  383.23
     42.0700	  529.00	  506.76	-1747.51	  383.01
     42.1700	  530.00	  511.70	-1751.45	  382.79
     42.2700	  519.00	  519.66	-1770.41	  382.57
     42.3700	  480.00	  531.76	-1821.51	  382.36
     42.4700	  488.00	  548.50	-1830.25	  382.14
     42.5700	  536.00	  568.91	-1802.66	  381.93
     42.6700	  570.00	  589.68	-1789.43	  381.72
     42.7700	  602.00	  605.02	-1772.77	  381.51
     42.8700	  575.00	  608.57	-1803.32	  381.31
     42.9700	  577.00	  597.70	-1790.45	  381.10
     43.0700	  569.00	  577.67	-1778.42	  380.90
     43.1700	  528.00	  555.80	-1797.55	  380.70
     43.2700	  529.00	  536.80	-1777.55	  380.50
     43.3700	  498.00	  522.45	-1794.20	  380.31
     43.4700	  473.00	  512.67	-1809.42	  380.11
     43.5700	  489.00	  506.49	-1787.24	  379.92
     43.6700	  521.00	  502.74	-1751.49	  379.73
     43.7700	  492.00	  500.44	-1778.19	  379.55
     43.8700	  467.00	  498.95	-1801.70	  379.36
     43.9700	  504.00	  497.91	-1763.66	  379.18
     44.0700	  549.00	  497.13	-1717.88	  379.00
     44.1700	  490.00	  496.72	-1776.47	  378.82
     44.2700	  505.00	  496.23	-1760.98	  378.64
     44.3700	  512.00	  495.83	-1753.58	  378.46
     44.4700	  507.00	  495.51	-1758.26	  378.29
     44.5700	  464.00	  495.24	-1800.99	  378.12
     44.6700	  475.00	  495.02	-1789.77	  377.95
     44.7700	  510.00	  494.85	-1754.60	  377.78
     44.8700	  485.00	  494.72	-1779.47	  377.62
     44.9700	  528.00	  494.62	-1736.37	  377.46
     45.0700	  510.00	  494.55	-1754.30	  377.30
     45.1700	  496.00	  494.52	-1768.27	  377.14
     45.2700	  497.00	  494.51	-1767.26	  376.98
     45.3700	  479.00	  494.53	-1785.28	  376.83
     45.4700	  475.00	  494.58	-1789.33	  376.67
     45.5700	  481.00	  494.66	-1783.41	  376.52
     45.6700	  480.00	  494.77	-1784.52	  376.37
     45.7700	  465.00	  494.98	-1799.73	  376.23
     45.8700	  546.00	  495.16	-1718.91	  376.08
     45.9700	  503.00	  495.40	-1762.15	  375.94
     46.0700	  468.00	  495.65	-1797.40	  375.80
     46.1700	  497.00	  495.95	-1768.70	  375.66
     46.2700	  490.00	  496.15	-1775.90	  375.53
     46.3700	  453.00	  496.56	-1813.31	  375.39
     46.4700	  486.00	  497.03	-1780.78	  375.26
     46.5700	  462.00	  497.58	-1805.33	  375.13
     46.6700	  466.00	  498.21	-1801.96	  375.00
     46.7700	  525.00	  498.97	-1743.72	  374.88
     46.8700	  521.00	  499.87	-1748.62	  374.75
     46.9700	  503.00	  501.00	-1767.75	  374.63
     47.0700	  453.00	  502.49	-1819.24	  374.51
     47.1700	  507.00	  504.57	-1767.32	  374.39
     47.2700	  525.00	  507.64	-1752.39	  374.28
     47.3700	  490.00	  512.25	-1792.00	  374.16
     47.4700	  557.00	  519.10	-1731.85	  374.05
     47.5700	  546.00	  528.76	-1752.51	  373.94
     47.6700	  524.00	  541.40	-1787.15	  373.83
     47.7700	  540.00	  556.35	-1786.10	  373.73
     47.8700	  534.00	  571.63	-1807.38	  373.62
     47.9700	  527.00	  583.77	-1826.52	  373.52
     48.0700	  599.00	  588.84	-1759.59	  373.42
     48.1700	  563.00	  585.19	-1791.94	  373.32
     48.2700	  580.00	  575.66	-1765.41	  373.23
     48.3700	  591.00	  563.72	-1742.47	  373.13
     48.4700	  557.00	  553.11	-1765.86	  373.04
     48.5700	  555.00	  545.50	-1760.25	  372.95
     48.6700	  531.00	  541.41	-1780.16	  372.87
     48.7700	  534.00	  540.64	-1776.39	  372.78
     48.8700	  548.00	  542.75	-1764.50	  372.70
     48.9700	  539.00	  547.36	-1778.11	  372.61
     49.0700	  528.00	  554.40	-1796.15	  372.53
     49.1700	  539.00	  564.38	-1795.13	  372.46
     49.2700	  536.00	  578.72	-1812.47	  372.38
     49.3700	  575.00	  600.39	-1795.14	  372.31
     49.4700	  623.00	  634.90	-1781.65	  372.23
     49.5700	  696.00	  691.18	-1764.93	  372.16
     49.6700	  685.00	  781.71	-1866.46	  372.10
     49.7700	  837.00	  920.67	-1853.42	  372.03
     49.8700	 1036.00	 1119.15	-1852.90	  371.96
     49.9700	 1379.00	 1378.02	-1768.77	  371.90
     50.0700	 1671.00	 1678.93	-1777.68	  371.84
     50.1700	 1970.00	 1976.25	-1776.00	  371.78
     50.2700	 2261.00	 2195.20	-1703.95	  371.73
     50.3700	 2399.00	 2255.70	-1626.45	  371.67
     50.4700	 2161.00	 2129.53	-1738.28	  371.62
     50.5700	 1937.00	 1870.20	-1702.95	  371.57
     50.6700	 1575.00	 1564.69	-1759.44	  371.52
     50.7700	 1165.00	 1279.36	-1884.11	  371.47
     50.8700	  935.00	 1048.74	-1883.49	  371.43
     50.9700	  745.00	  881.55	-1906.30	  371.38
     51.0700	  728.00	  771.56	-1813.31	  371.34
     51.1700	  633.00	  704.37	-1841.12	  371.30
     51.2700	  655.00	  664.18	-1778.93	  371.26
     51.3700	  601.00	  637.90	-1806.65	  371.23
     51.4700	  568.00	  617.41	-1819.16	  371.19
     51.5700	  638.00	  599.52	-1731.27	  371.16
     51.6700	  595.00	  583.85	-1758.60	  371.13
     51.7700	  537.00	  570.72	-1803.47	  371.10
     51.8700	  549.00	  560.33	-1781.08	  371.07
     51.9700	  557.00	  552.62	-1765.37	  371.05
     52.0700	  543.00	  547.29	-1774.04	  371.02
     52.1700	  582.00	  543.97	-1731.72	  371.00
     52.2700	  556.00	  542.34	-1756.09	  370.98
     52.3700	  555.00	  542.17	-1756.92	  370.96
     52.4700	  566.00	  543.49	-1747.24	  370.94
     52.5700	  525.00	  546.65	-1791.40	  370.93
     52.6700	  552.00	  552.48	-1770.23	  370.92
     52.7700	  570.00	  562.57	-1762.32	  370.91
     52.8700	  597.00	  579.45	-1752.20	  370.90
     52.9700	  636.00	  606.70	-1740.45	  370.89
     53.0700	  644.00	  648.53	-1774.28	  370.88
     53.1700	  718.00	  708.67	-1760.42	  370.88
     53.2700	  788.00	  788.66	-1770.41	  370.87
     53.3700	  912.00	  885.63	-1743.38	  370.87
     53.4700	 1075.00	  990.04	-1684.79	  370.87
     53.5700	 1127.00	 1083.81	-1726.56	  370.87
     53.6700	 1124.00	 1141.84	-1787.59	  370.88
     53.7700	 1124.00	 1142.91	-1788.66	  370.88
     53.8700	 1101.00	 1086.34	-1755.09	  370.89
     53.9700	  974.00	  993.05	-1788.80	  370.90
     54.0700	  938.00	  888.83	-1720.58	  370.91
     54.1700	  743.00	  792.14	-1818.89	  370.92
     54.2700	  714.00	  712.53	-1768.28	  370.93
     54.3700	  589.00	  652.90	-1833.65	  370.95
     54.4700	  629.00	  611.71	-1752.46	  370.97
     54.5700	  595.00	  585.20	-1759.95	  370.98
     54.6700	  589.00	  569.14	-1749.89	  371.00
     54.7700	  572.00	  559.92	-1757.67	  371.02
     54.8700	  565.00	  554.97	-1759.72	  371.05
     54.9700	  593.00	  552.69	-1729.44	  371.07
     55.0700	  566.00	  552.19	-1755.94	  371.10
     55.1700	  574.00	  553.04	-1748.79	  371.12
     55.2700	  545.00	  555.08	-1779.83	  371.15
     55.3700	  574.00	  558.28	-1754.03	  371.18
     55.4700	  597.00	  562.75	-1735.50	  371.21
     55.5700	  575.00	  568.70	-1763.45	  371.25
     55.6700	  578.00	  576.56	-1768.31	  371.28
     55.7700	  606.00	  587.15	-1750.90	  371.32
     55.8700	  606.00	  602.01	-1765.76	  371.36
     55.9700	  621.00	  623.91	-1772.66	  371.39
     56.0700	  639.00	  657.63	-1788.38	  371.43
     56.1700	  678.00	  710.53	-1802.28	  371.48
     56.2700	  735.00	  792.79	-1827.54	  371.52
     56.3700	  866.00	  916.33	-1820.08	  371.56
     56.4700	 1028.00	 1092.08	-1833.83	  371.61
     56.5700	 1172.00	 1325.68	-1923.43	  371.66
     56.6700	 1619.00	 1611.67	-1762.42	  371.71
     56.7700	 1985.00	 1928.26	-1713.01	  371.76
     56.8700	 2208.00	 2231.87	-1793.62	  371.81
     56.9700	 2484.00	 2457.38	-1743.13	  371.86
     57.0700	 2500.00	 2536.47	-1806.22	  371.91
     57.1700	 2464.00	 2439.95	-1745.70	  371.97
     57.2700	 2072.00	 2203.03	-1900.78	  372.02
     57.3700	 1912.00	 1896.57	-1754.32	  372.08
     57.4700	 1567.00	 1584.36	-1787.11	  372.14
     57.5700	 1240.00	 1307.19	-1836.94	  372.20
     57.6700	 1020.00	 1084.79	-1834.54	  372.26
     57.7700	  881.00	  921.06	-1809.81	  372.32
     57.8700	  786.00	  810.07	-1793.82	  372.39
     57.9700	  772.00	  741.41	-1739.16	  372.45
     58.0700	  739.00	  704.58	-1735.33	  372.52
     58.1700	  688.00	  691.52	-1773.27	  372.59
     58.2700	  674.00	  697.32	-1793.07	  372.66
     58.3700	  762.00	  719.59	-1727.34	  372.73
     58.4700	  807.00	  757.28	-1720.03	  372.80
     58.5700	  788.00	  809.27	-1791.02	  372.87
     58.6700	  903.00	  872.93	-1739.68	  372.94
     58.7700	  993.00	  942.95	-1719.70	  373.02
     58.8700	  969.00	 1011.71	-1812.46	  373.09
     58.9700	 1104.00	 1072.17	-1737.92	  373.17
     59.0700	 1229.00	 1120.21	-1660.96	  373.24
     59.1700	 1261.00	 1152.72	-1661.47	  373.32
     59.2700	 1304.00	 1165.68	-1631.43	  373.40
     59.3700	 1264.00	 1158.43	-1664.18	  373.48
     59.4700	 1296.00	 1138.64	-1612.39	  373.56
     59.5700	 1258.00	 1119.04	-1630.79	  373.65
     59.6700	 1227.00	 1110.30	-1653.05	  373.73
     59.7700	 1186.00	 1118.39	-1702.14	  373.81
     59.8700	 1180.00	 1146.72	-1736.47	  373.90
     59.9700	 1220.00	 1197.99	-1747.74	  373.99
     60.0700	 1343.00	 1271.96	-1698.71	  374.07
     60.1700	 1393.00	 1360.88	-1737.63	  374.16
     60.2700	 1536.00	 1446.99	-1680.74	  374.25
     60.3700	 1557.00	 1503.84	-1716.59	  374.34
     60.4700	 1529.00	 1505.35	-1746.10	  374.43
     60.5700	 1475.00	 1442.00	-1736.75	  374.52
     60.6700	 1388.00	 1327.90	-1709.65	  374.62
     60.7700	 1225.00	 1189.42	-1734.17	  374.71
     60.8700	 1076.00	 1050.42	-1744.17	  374.80
     60.9700	  950.00	  926.88	-1746.63	  374.90
     61.0700	  835.00	  827.36	-1762.11	  375.00
     61.1700	  772.00	  754.76	-1752.51	  375.09
     61.2700	  697.00	  708.44	-1781.19	  375.19
     61.3700	  632.00	  686.36	-1824.11	  375.29
     61.4700	  705.00	  686.79	-1751.54	  375.39
     61.5700	  689.00	  709.31	-1790.06	  375.49
     61.6700	  815.00	  754.67	-1709.42	  375.59
     61.7700	  858.00	  823.74	-1735.49	  375.69
     61.8700	  930.00	  915.82	-1755.57	  375.79
     61.9700	  951.00	 1026.77	-1845.52	  375.89
     62.0700	 1108.00	 1147.34	-1809.09	  376.00
     62.1700	 1202.00	 1261.74	-1829.49	  376.10
     62.2700	 1293.00	 1347.91	-1824.66	  376.21
     62.3700	 1293.00	 1382.89	-1859.64	  376.31
     62.4700	 1264.00	 1355.00	-1860.75	  376.42
     62.5700	 1243.00	 1272.53	-1799.28	  376.53
     62.6700	 1080.00	 1157.47	-1847.22	  376.63
     62.7700	 1028.00	 1032.63	-1774.38	  376.74
     62.8700	  846.00	  914.67	-1838.42	  376.85
     62.9700	  737.00	  813.56	-1846.31	  376.96
     63.0700	  716.00	  733.36	-1787.11	  377.07
     63.1700	  635.00	  674.01	-1808.76	  377.18
     63.2700	  627.00	  632.79	-1775.54	  377.29
     63.3700	  633.00	  605.80	-1742.55	  377.40
     63.4700	  616.00	  589.29	-1743.04	  377.51
     63.5700	  628.00	  580.33	-1722.08	  377.62
     63.6700	  574.00	  577.09	-1772.84	  377.74
     63.7700	  554.00	  578.89	-1794.64	  377.85
     63.8700	  621.00	  586.02	-1734.77	  377.96
     63.9700	  614.00	  599.55	-1755.30	  378.08
     64.0700	  715.00	  620.78	-1675.53	  378.19
     64.1700	  621.00	  651.12	-1799.87	  378.30
     64.2700	  725.00	  691.30	-1736.05	  378.42
     64.3700	  727.00	  740.82	-1783.57	  378.53
     64.4700	  769.00	  797.28	-1798.03	  378.65
     64.5700	  943.00	  855.85	-1682.60	  378.77
     64.6700	  934.00	  909.02	-1744.77	  378.88
     64.7700	  985.00	  947.65	-1732.40	  379.00
     64.8700	 1054.00	  964.00	-1679.75	  379.12
     64.9700	 1011.00	  955.46	-1714.21	  379.23
     65.0700	  965.00	  925.49	-1730.24	  379.35
     65.1700	  891.00	  881.05	-1759.80	  379.47
     65.2700	  861.00	  830.65	-1739.40	  379.59
     65.3700	  803.00	  780.75	-1747.50	  379.71
     65.4700	  698.00	  736.63	-1808.38	  379.82
     65.5700	  665.00	  699.39	-1804.14	  379.94
     65.6700	  688.00	  668.70	-1750.45	  380.06
     65.7700	  628.00	  643.56	-1785.31	  380.18
     65.8700	  596.00	  623.13	-1796.88	  380.30
     65.9700	  590.00	  606.85	-1786.60	  380.42
     66.0700	  571.00	  594.28	-1793.03	  380.54
     66.1700	  564.00	  584.99	-1790.74	  380.66
     66.2700	  580.00	  578.72	-1768.47	  380.78
     66.3700	  531.00	  575.05	-1813.80	  380.90
     66.4700	  543.00	  573.55	-1800.30	  381.02
     66.5700	  570.00	  574.22	-1773.97	  381.14
     66.6700	  579.00	  577.01	-1767.76	  381.26
     66.7700	  523.00	  582.13	-1828.88	  381.38
     66.8700	  587.00	  590.12	-1772.87	  381.50
     66.9700	  590.00	  602.14	-1781.89	  381.62
     67.0700	  617.00	  620.29	-1773.04	  381.74
     67.1700	  655.00	  647.52	-1762.27	  381.86
     67.2700	  647.00	  688.41	-1811.16	  381.98
     67.3700	  731.00	  748.73	-1787.48	  382.10
     67.4700	  796.00	  835.10	-1808.85	  382.22
     67.5700	  922.00	  953.87	-1801.62	  382.34
     67.6700	 1147.00	 1109.42	-1732.17	  382.46
     67.7700	 1248.00	 1302.19	-1823.94	  382.58
     67.8700	 1474.00	 1526.53	-1822.28	  382.70
     67.9700	 1746.00	 1768.74	-1792.49	  382.82
     68.0700	 2001.00	 2005.64	-1774.39	  382.94
     68.1700	 2242.00	 2204.31	-1732.06	  383.06
     68.2700	 2421.00	 2326.76	-1675.51	  383.18
     68.3700	 2324.00	 2343.18	-1788.93	  383.29
     68.4700	 2241.00	 2249.18	-1777.93	  383.41
     68.5700	 2133.00	 2068.70	-1705.45	  383.53
     68.6700	 1803.00	 1839.31	-1806.06	  383.65
     68.7700	 1627.00	 1596.22	-1738.97	  383.77
     68.8700	 1346.00	 1365.42	-1789.17	  383.89
     68.9700	 1185.00	 1163.23	-1747.98	  384.00
     69.0700	  950.00	  997.36	-1817.11	  384.12
     69.1700	  890.00	  868.95	-1748.70	  384.24
     69.2700	  751.00	  774.46	-1793.21	  384.35
     69.3700	  711.00	  707.90	-1766.65	  384.47
     69.4700	  648.00	  662.59	-1784.34	  384.59
     69.5700	  629.00	  632.41	-1773.16	  384.70
     69.6700	  627.00	  612.47	-1755.22	  384.82
     69.7700	  618.00	  599.19	-1750.94	  384.93
     69.8700	  572.00	  590.03	-1787.78	  385.05
     69.9700	  578.00	  583.85	-1775.60	  385.16
     70.0700	  539.00	  579.60	-1810.35	  385.27
     70.1700	  581.00	  576.79	-1765.54	  385.39
     70.2700	  588.00	  575.17	-1756.92	  385.50
     70.3700	  601.00	  574.64	-1743.39	  385.61
     70.4700	  597.00	  575.20	-1747.95	  385.72
     70.5700	  651.00	  577.97	-1696.72	  385.83
     70.6700	  605.00	  581.34	-1746.09	  385.95
     70.7700	  574.00	  586.86	-1782.61	  386.06
     70.8700	  586.00	  595.52	-1779.27	  386.17
     70.9700	  620.00	  608.85	-1758.60	  386.27
     71.0700	  636.00	  629.09	-1762.84	  386.38
     71.1700	  628.00	  659.30	-1801.05	  386.49
     71.2700	  695.00	  703.24	-1777.99	  386.60
     71.3700	  811.00	  765.10	-1723.85	  386.71
     71.4700	  875.00	  848.81	-1743.56	  386.81
     71.5700	  942.00	  957.11	-1784.86	  386.92
     71.6700	 1070.00	 1090.37	-1790.12	  387.02
     71.7700	 1208.00	 1245.46	-1807.21	  387.13
     71.8700	 1416.00	 1414.76	-1768.51	  387.23
     71.9700	 1514.00	 1585.23	-1840.98	  387.33
     72.0700	 1755.00	 1738.16	-1752.91	  387.44
     72.1700	 1779.00	 1850.46	-1841.21	  387.54
     72.2700	 1790.00	 1900.14	-1879.89	  387.64
     72.3700	 1825.00	 1875.72	-1820.47	  387.74
     72.4700	 1784.00	 1782.91	-1768.66	  387.84
     72.5700	 1668.00	 1641.19	-1742.94	  387.94
     72.6700	 1447.00	 1474.18	-1796.93	  388.04
     72.7700	 1317.00	 1302.38	-1755.13	  388.13
     72.8700	 1185.00	 1140.73	-1725.48	  388.23
     72.9700	 1009.00	  998.64	-1759.39	  388.33
     73.0700	  893.00	  880.67	-1757.42	  388.42
     73.1700	  830.00	  787.49	-1727.24	  388.52
     73.2700	  758.00	  717.05	-1728.80	  388.61
     73.3700	  735.00	  665.74	-1700.49	  388.70
     73.4700	  682.00	  629.44	-1717.19	  388.79
     73.5700	  653.00	  604.24	-1720.99	  388.88
     73.6700	  633.00	  586.88	-1723.63	  388.97
     73.7700	  608.00	  574.83	-1736.58	  389.06
     73.8700	  630.00	  566.37	-1706.12	  389.15
     73.9700	  595.00	  559.82	-1734.57	  389.24
     74.0700	  625.00	  555.47	-1700.22	  389.32
     74.1700	  571.00	  552.38	-1751.13	  389.41
     74.2700	  560.00	  550.25	-1760.00	  389.49
     74.3700	  611.00	  548.87	-1707.62	  389.58
     74.4700	  602.00	  548.06	-1715.81	  389.66
     74.5700	  584.00	  547.63	-1733.38	  389.74
     74.6700	  615.00	  547.37	-1702.12	  389.82
     74.7700	  613.00	  547.04	-1703.79	  389.90
     74.8700	  604.00	  546.43	-1712.18	  389.98
     74.9700	  642.00	  545.41	-1673.16	  390.06
     75.0700	  654.00	  544.02	-1659.77	  390.13
     75.1700	  611.00	  542.43	-1701.18	  390.21
     75.2700	  587.00	  540.91	-1723.66	  390.28
     75.3700	  622.00	  539.77	-1687.52	  390.36
     75.4700	  606.00	  539.35	-1703.10	  390.43
     75.5700	  547.00	  539.99	-1762.74	  390.50
     75.6700	  558.00	  542.08	-1753.83	  390.57
     75.7700	  537.00	  546.04	-1778.79	  390.64
     75.8700	  572.00	  552.29	-1750.04	  390.70
     75.9700	  563.00	  561.19	-1767.94	  390.77
     76.0700	  589.00	  572.96	-1753.71	  390.84
     76.1700	  663.00	  587.58	-1694.33	  390.90
     76.2700	  603.00	  604.82	-1771.57	  390.96
     76.3700	  667.00	  623.90	-1726.65	  391.02
     76.4700	  689.00	  643.62	-1724.37	  391.08
     76.5700	  702.00	  662.25	-1730.00	  391.14
     76.6700	  695.00	  677.53	-1752.28	  391.20
     76.7700	  697.00	  687.27	-1760.02	  391.26
     76.8700	  643.00	  689.52	-1816.27	  391.31
     76.9700	  663.00	  683.77	-1790.52	  391.37
     77.0700	  662.00	  671.12	-1778.87	  391.42
     77.1700	  657.00	  653.69	-1766.44	  391.47
     77.2700	  638.00	  633.85	-1765.60	  391.52
     77.3700	  599.00	  613.59	-1784.34	  391.57
     77.4700	  576.00	  594.43	-1788.18	  391.62
     77.5700	  562.00	  577.30	-1785.05	  391.67
     77.6700	  571.00	  562.83	-1761.58	  391.71
     77.7700	  564.00	  551.12	-1756.87	  391.76
     77.8700	  494.00	  542.01	-1817.76	  391.80
     77.9700	  536.00	  535.19	-1768.94	  391.84
     78.0700	  530.00	  530.23	-1769.98	  391.88
     78.1700	  501.00	  526.49	-1795.24	  391.92
     78.2700	  515.00	  524.04	-1778.79	  391.96
     78.3700	  500.00	  522.35	-1792.10	  391.99
     78.4700	  466.00	  521.18	-1824.93	  392.02
     78.5700	  492.00	  520.37	-1798.12	  392.06
     78.6700	  534.00	  519.81	-1755.56	  392.09
     78.7700	  486.00	  519.44	-1803.19	  392.12
     78.8700	  476.00	  519.22	-1812.97	  392.15
     78.9700	  510.00	  519.14	-1778.89	  392.17
     79.0700	  507.00	  519.20	-1781.95	  392.20
     79.1700	  542.00	  519.42	-1747.17	  392.22
     79.2700	  520.00	  519.81	-1769.56	  392.25
     79.3700	  515.00	  520.41	-1775.16	  392.27
     79.4700	  529.00	  521.26	-1762.01	  392.29
     79.5700	  496.00	  522.41	-1796.16	  392.31
     79.6700	  560.00	  523.90	-1733.65	  392.32
     79.7700	  503.00	  525.81	-1792.56	  392.34
     79.8700	  494.00	  528.21	-1803.96	  392.35
     79.9700	  516.00	  531.19	-1784.94	  392.36
     80.0700	  549.00	  534.86	-1755.61	  392.37
     80.1700	  510.00	  539.32	-1799.07	  392.38
     80.2700	  560.00	  544.69	-1754.44	  392.39
     80.3700	  552.00	  551.12	-1768.87	  392.40
     80.4700	  577.00	  558.76	-1751.51	  392.40
     80.5700	  548.00	  567.76	-1789.51	  392.40
     80.6700	  609.00	  578.26	-1739.01	  392.40
     80.7700	  572.00	  590.07	-1787.82	  392.40
     80.8700	  560.00	  603.41	-1813.16	  392.40
     80.9700	  641.00	  617.67	-1746.42	  392.40
     81.0700	  628.00	  632.16	-1773.91	  392.39
     81.1700	  646.00	  646.03	-1769.78	  392.39
     81.2700	  634.00	  658.39	-1794.14	  392.38
     81.3700	  657.00	  668.55	-1781.30	  392.37
     81.4700	  719.00	  676.00	-1726.75	  392.36
     81.5700	  741.00	  680.51	-1709.26	  392.34
     81.6700	  769.00	  682.01	-1682.76	  392.33
     81.7700	  718.00	  680.63	-1732.38	  392.31
     81.8700	  697.00	  676.56	-1749.31	  392.29
     81.9700	  719.00	  669.99	-1720.74	  392.27
     82.0700	  697.00	  661.20	-1733.95	  392.25
     82.1700	  722.00	  650.63	-1698.38	  392.23
     82.2700	  662.00	  638.91	-1746.66	  392.20
     82.3700	  653.00	  626.67	-1743.42	  392.17
     82.4700	  650.00	  614.40	-1734.15	  392.14
     82.5700	  630.00	  602.42	-1742.17	  392.11
     82.6700	  618.00	  590.95	-1742.70	  392.08
     82.7700	  588.00	  580.23	-1761.98	  392.05
     82.8700	  532.00	  570.53	-1808.28	  392.01
     82.9700	  568.00	  562.09	-1763.84	  391.97
     83.0700	  529.00	  555.13	-1795.88	  391.94
     83.1700	  501.00	  549.76	-1818.51	  391.89
     83.2700	  559.00	  546.04	-1756.79	  391.85
     83.3700	  521.00	  543.95	-1792.70	  391.81
     83.4700	  525.00	  543.40	-1788.15	  391.76
     83.5700	  517.00	  544.25	-1797.00	  391.71
     83.6700	  492.00	  546.28	-1824.03	  391.66
     83.7700	  519.00	  549.21	-1799.96	  391.61
     83.8700	  537.00	  552.68	-1785.43	  391.56
     83.9700	  589.00	  556.17	-1736.92	  391.50
     84.0700	  592.00	  559.33	-1737.08	  391.45
     84.1700	  546.00	  561.56	-1785.31	  391.39
     84.2700	  534.00	  562.46	-1798.21	  391.33
     84.3700	  538.00	  561.76	-1793.51	  391.27
     84.4700	  562.00	  559.47	-1767.22	  391.20
     84.5700	  541.00	  555.88	-1784.63	  391.14
     84.6700	  529.00	  551.40	-1792.15	  391.07
     84.7700	  586.00	  546.47	-1730.22	  391.00
     84.8700	  540.00	  541.45	-1771.20	  390.93
     84.9700	  506.00	  536.65	-1800.40	  390.85
     85.0700	  563.00	  532.29	-1739.04	  390.78
     85.1700	  513.00	  528.49	-1785.24	  390.70
     85.2700	  507.00	  525.30	-1788.05	  390.62
     85.3700	  512.00	  522.76	-1780.51	  390.54
     85.4700	  507.00	  520.81	-1783.56	  390.46
     85.5700	  504.00	  519.39	-1785.14	  390.38
     85.6700	  535.00	  518.43	-1753.18	  390.29
     85.7700	  499.00	  517.87	-1788.62	  390.20
     85.8700	  471.00	  517.67	-1816.42	  390.11
     85.9700	  533.00	  517.81	-1754.56	  390.02
     86.0700	  524.00	  518.29	-1764.04	  389.93
     86.1700	  529.00	  519.15	-1759.90	  389.83
     86.2700	  491.00	  520.49	-1799.24	  389.74
     86.3700	  495.00	  522.39	-1797.14	  389.64
     86.4700	  514.00	  525.00	-1780.75	  389.54
     86.5700	  517.00	  528.46	-1781.21	  389.43
     86.6700	  536.00	  532.93	-1766.68	  389.33
     86.7700	  561.00	  538.53	-1747.28	  389.22
     86.8700	  553.00	  545.33	-1762.08	  389.11
     86.9700	  553.00	  553.34	-1770.09	  389.00
     87.0700	  543.00	  562.47	-1789.22	  388.89
     87.1700	  580.00	  572.50	-1762.25	  388.78
     87.2700	  555.00	  583.06	-1797.81	  388.66
     87.3700	  625.00	  593.64	-1738.39	  388.55
     87.4700	  579.00	  603.57	-1794.32	  388.43
     87.5700	  569.00	  612.07	-1812.82	  388.30
     87.6700	  610.00	  618.30	-1778.05	  388.18
     87.7700	  628.00	  621.57	-1763.32	  388.06
     87.8700	  658.00	  621.50	-1733.25	  387.93
     87.9700	  550.00	  618.22	-1837.97	  387.80
     88.0700	  621.00	  612.26	-1761.01	  387.67
     88.1700	  572.00	  604.46	-1802.21	  387.54
     88.2700	  609.00	  595.70	-1756.45	  387.40
     88.3700	  608.00	  586.82	-1748.57	  387.27
     88.4700	  568.00	  578.53	-1780.28	  387.13
     88.5700	  599.00	  570.99	-1741.74	  386.99
     88.6700	  575.00	  565.42	-1760.17	  386.85
     88.7700	  578.00	  561.66	-1753.41	  386.70
     88.8700	  548.00	  559.79	-1781.54	  386.56
     88.9700	  572.00	  559.74	-1757.49	  386.41
     89.0700	  560.00	  561.29	-1771.04	  386.26
     89.1700	  599.00	  564.12	-1734.87	  386.11
     89.2700	  571.00	  567.78	-1766.53	  385.96
     89.3700	  571.00	  571.78	-1770.53	  385.80
     89.4700	  578.00	  575.52	-1767.27	  385.64
     89.5700	  538.00	  578.42	-1810.17	  385.49
     89.6700	  640.00	  579.95	-1709.70	  385.33
     89.7700	  598.00	  579.77	-1751.52	  385.16
     89.8700	  568.00	  577.76	-1779.51	  385.00
     89.9700	  577.00	  574.12	-1766.87	  384.83
     90.0700	  584.00	  569.20	-1754.95	  384.67
     90.1700	  592.00	  563.46	-1741.21	  384.50
     90.2700	  497.00	  557.32	-1830.07	  384.32
     90.3700	  503.00	  551.18	-1817.93	  384.15
     90.4700	  544.00	  545.32	-1771.07	  383.98
     90.5700	  515.00	  539.98	-1794.73	  383.80
     90.6700	  506.00	  535.29	-1799.04	  383.62
     90.7700	  496.00	  531.34	-1805.09	  383.44
     90.8700	  537.00	  528.14	-1760.89	  383.26
     90.9700	  516.00	  525.67	-1779.42	  383.08
     91.0700	  506.00	  523.87	-1787.62	  382.89
     91.1700	  471.00	  522.69	-1821.44	  382.70
     91.2700	  477.00	  522.06	-1814.81	  382.51
     91.3700	  469.00	  521.93	-1822.68	  382.32
     91.4700	  499.00	  522.29	-1793.04	  382.13
     91.5700	  509.00	  523.13	-1783.88	  381.93
     91.6700	  487.00	  524.50	-1807.25	  381.74
     91.7700	  563.00	  526.48	-1733.23	  381.54
     91.8700	  492.00	  529.18	-1806.93	  381.34
     91.9700	  490.00	  532.74	-1812.49	  381.14
     92.0700	  504.00	  537.32	-1803.07	  380.94
     92.1700	  517.00	  543.08	-1795.83	  380.73
     92.2700	  515.00	  550.21	-1804.96	  380.52
     92.3700	  513.00	  558.84	-1815.59	  380.32
     92.4700	  585.00	  569.07	-1753.82	  380.11
     92.5700	  561.00	  580.95	-1789.70	  379.89
     92.6700	  557.00	  594.42	-1807.17	  379.68
     92.7700	  590.00	  609.37	-1789.12	  379.47
     92.8700	  576.00	  625.55	-1819.30	  379.25
     92.9700	  578.00	  642.61	-1834.36	  379.03
     93.0700	  629.00	  660.07	-1800.82	  378.81
     93.1700	  620.00	  677.37	-1827.12	  378.59
     93.2700	  709.00	  693.89	-1754.64	  378.36
     93.3700	  713.00	  709.11	-1765.86	  378.14
     93.4700	  750.00	  722.70	-1742.45	  377.91
     93.5700	  766.00	  734.72	-1738.47	  377.69
     93.6700	  782.00	  745.52	-1733.27	  377.46
     93.7700	  786.00	  755.65	-1739.40	  377.22
     93.8700	  819.00	  765.39	-1716.14	  376.99
     93.9700	  756.00	  775.76	-1789.51	  376.76
     94.0700	  807.00	  786.68	-1749.43	  376.52
     94.1700	  840.00	  798.24	-1727.99	  376.28
     94.2700	  816.00	  810.41	-1764.16	  376.04
     94.3700	  844.00	  823.19	-1748.94	  375.80
     94.4700	  856.00	  836.54	-1750.29	  375.56
     94.5700	  875.00	  850.35	-1745.10	  375.32
     94.6700	  858.00	  864.24	-1775.99	  375.07
     94.7700	  899.00	  877.53	-1748.28	  374.82
     94.8700	  842.00	  889.19	-1816.94	  374.58
     94.9700	  947.00	  897.87	-1720.62	  374.33
     95.0700	  938.00	  902.15	-1733.90	  374.08
     95.1700	  907.00	  900.79	-1763.54	  373.82
     95.2700	  913.00	  893.07	-1749.82	  373.57
     95.3700	  878.00	  879.11	-1770.86	  373.31
     95.4700	  840.00	  859.80	-1789.55	  373.06
     95.5700	  836.00	  836.61	-1770.36	  372.80
     95.6700	  806.00	  811.32	-1775.07	  372.54
     95.7700	  768.00	  785.72	-1787.47	  372.28
     95.8700	  792.00	  761.52	-1739.27	  372.02
     95.9700	  783.00	  740.28	-1727.03	  371.75
     96.0700	  768.00	  723.41	-1725.16	  371.49
     96.1700	  696.00	  712.15	-1785.90	  371.22
     96.2700	  664.00	  707.61	-1813.36	  370.95
     96.3700	  677.00	  710.73	-1803.48	  370.68
     96.4700	  736.00	  722.27	-1756.02	  370.41
     96.5700	  722.00	  742.83	-1790.58	  370.14
     96.6700	  770.00	  772.77	-1772.52	  369.87
     96.7700	  811.00	  812.19	-1770.94	  369.60
     96.8700	  821.00	  860.86	-1809.61	  369.32
     96.9700	  954.00	  918.14	-1733.89	  369.04
     97.0700	  990.00	  982.93	-1762.68	  368.77
     97.1700	 1029.00	 1053.57	-1794.32	  368.49
     97.2700	 1058.00	 1127.88	-1839.63	  368.21
     97.3700	 1143.00	 1203.06	-1829.81	  367.93
     97.4700	 1233.00	 1275.70	-1812.45	  367.64
     97.5700	 1371.00	 1341.91	-1740.66	  367.36
     97.6700	 1444.00	 1397.48	-1723.23	  367.08
     97.7700	 1372.00	 1438.39	-1836.14	  366.79
     97.8700	 1458.00	 1461.43	-1773.18	  366.50
     97.9700	 1425.00	 1464.86	-1809.61	  366.22
     98.0700	 1441.00	 1448.85	-1777.60	  365.93
     98.1700	 1360.00	 1415.38	-1825.13	  365.64
     98.2700	 1316.00	 1367.75	-1821.50	  365.35
     98.3700	 1303.00	 1309.86	-1776.61	  365.06
     98.4700	 1218.00	 1245.78	-1797.53	  364.76
     98.5700	 1149.00	 1179.36	-1800.11	  364.47
     98.6700	 1072.00	 1114.06	-1811.81	  364.18
     98.7700	 1041.00	 1052.84	-1781.59	  363.88
     98.8700	 1010.00	  998.17	-1757.92	  363.59
     98.9700	 1028.00	  952.06	-1693.81	  363.29
     99.0700	  887.00	  916.12	-1798.87	  362.99
     99.1700	  865.00	  891.54	-1796.29	  362.69
     99.2700	  849.00	  879.22	-1799.97	  362.39
     99.3700	  882.00	  879.72	-1767.47	  362.09
     99.4700	  946.00	  893.35	-1717.10	  361.79
     99.5700	  941.00	  920.15	-1748.90	  361.49
     99.6700	  973.00	  959.91	-1756.66	  361.19
     99.7700	  989.00	 1012.10	-1792.85	  360.88
     99.8700	 1105.00	 1075.94	-1740.69	  360.58
     99.9700	 1129.00	 1150.22	-1790.97	  360.28
    100.0700	 1265.00	 1233.39	-1738.14	  359.97
    100.1700	 1332.00	 1323.34	-1761.09	  359.67
    100.2700	 1394.00	 1417.56	-1793.31	  359.36
    100.3700	 1515.00	 1512.92	-1767.67	  359.05
    100.4700	 1620.00	 1605.92	-1755.67	  358.74
    100.5700	 1705.00	 1692.98	-1757.73	  358.44
    100.6700	 1744.00	 1770.77	-1796.52	  358.13
    100.7700	 1818.00	 1836.61	-1788.36	  357.82
    100.8700	 1905.00	 1888.66	-1753.41	  357.51
    100.9700	 1952.00	 1925.81	-1743.56	  357.20
    101.0700	 1952.00	 1947.41	-1765.16	  356.89
    101.1700	 2086.00	 1952.98	-1636.73	  356.58
    101.2700	 1886.00	 1942.17	-1825.92	  356.27
    101.3700	 1953.00	 1915.00	-1731.75	  355.96
    101.4700	 1931.00	 1872.36	-1711.11	  355.64
    101.5700	 1826.00	 1816.23	-1759.98	  355.33
    101.6700	 1773.00	 1749.69	-1746.44	  355.02
    101.7700	 1682.00	 1676.55	-1764.30	  354.71
    101.8700	 1565.00	 1600.80	-1805.55	  354.39
    101.9700	 1561.00	 1526.14	-1734.89	  354.08
    102.0700	 1393.00	 1455.57	-1832.32	  353.77
    102.1700	 1370.00	 1391.32	-1791.07	  353.46
    102.2700	 1306.00	 1334.79	-1798.54	  353.14
    102.3700	 1307.00	 1286.51	-1749.26	  352.83
    102.4700	 1314.00	 1246.28	-1702.03	  352.51
    102.5700	 1152.00	 1213.20	-1830.95	  352.20
    102.6700	 1186.00	 1185.76	-1769.51	  351.89
    102.7700	 1171.00	 1162.03	-1760.78	  351.57
    102.8700	 1120.00	 1139.84	-1789.59	  351.26
    102.9700	 1122.00	 1117.06	-1764.81	  350.95
    103.0700	 1066.00	 1091.96	-1795.71	  350.63
    103.1700	 1041.00	 1063.38	-1792.13	  350.32
    103.2700	 1009.00	 1030.93	-1791.68	  350.01
    103.3700	  992.00	  994.90	-1772.65	  349.69
    103.4700	  938.00	  956.03	-1787.78	  349.38
    103.5700	  946.00	  915.35	-1739.10	  349.07
    103.6700	  903.00	  873.92	-1740.67	  348.76
    103.7700	  849.00	  832.80	-1753.55	  348.44
    103.8700	  820.00	  792.92	-1742.67	  348.13
    103.9700	  751.00	  755.07	-1773.82	  347.82
    104.0700	  765.00	  719.87	-1724.62	  347.51
    104.1700	  681.00	  687.76	-1776.51	  347.20
    104.2700	  702.00	  659.02	-1726.77	  346.89
    104.3700	  650.00	  633.79	-1753.54	  346.58
    104.4700	  622.00	  612.04	-1759.79	  346.27
    104.5700	  564.00	  593.63	-1799.38	  345.96
    104.6700	  651.00	  578.32	-1697.07	  345.65
    104.7700	  546.00	  565.84	-1789.59	  345.35
    104.8700	  571.00	  555.86	-1754.61	  345.04
    104.9700	  558.00	  548.06	-1759.81	  344.73
    105.0700	  511.00	  542.14	-1800.89	  344.43
    105.1700	  533.00	  537.81	-1774.56	  344.12
    105.2700	  545.00	  534.83	-1759.58	  343.82
    105.3700	  534.00	  533.00	-1768.75	  343.52
    105.4700	  541.00	  532.16	-1760.91	  343.21
    105.5700	  586.00	  532.18	-1715.93	  342.91
    105.6700	  574.00	  532.99	-1728.74	  342.61
    105.7700	  528.00	  534.54	-1776.29	  342.31
    105.8700	  535.00	  536.80	-1771.55	  342.01
    105.9700	  507.00	  539.77	-1802.52	  341.72
    106.0700	  530.00	  543.49	-1783.24	  341.42
    106.1700	  542.00	  547.99	-1775.74	  341.12
    106.2700	  530.00	  553.30	-1793.05	  340.83
    106.3700	  554.00	  559.47	-1775.22	  340.54
    106.4700	  597.00	  566.51	-1739.26	  340.24
    106.5700	  562.00	  574.40	-1782.15	  339.95
    106.6700	  559.00	  583.11	-1793.86	  339.66
    106.7700	  598.00	  592.53	-1764.28	  339.37
    106.8700	  641.00	  602.51	-1731.26	  339.09
    106.9700	  592.00	  612.83	-1790.58	  338.80
    107.0700	  653.00	  623.26	-1740.01	  338.52
    107.1700	  658.00	  633.48	-1745.23	  338.23
    107.2700	  660.00	  643.16	-1752.91	  337.95
    107.3700	  686.00	  651.93	-1735.68	  337.67
    107.4700	  659.00	  659.47	-1770.22	  337.39
    107.5700	  650.00	  665.50	-1785.25	  337.12
    107.6700	  665.00	  669.83	-1774.58	  336.84
    107.7700	  663.00	  672.46	-1779.21	  336.57
    107.8700	  655.00	  673.52	-1788.27	  336.30
    107.9700	  634.00	  673.31	-1809.06	  336.03
    108.0700	  679.00	  672.21	-1762.96	  335.76
    108.1700	  696.00	  670.64	-1744.39	  335.49
    108.2700	  679.00	  669.02	-1759.77	  335.23
    108.3700	  735.00	  667.69	-1702.44	  334.96
    108.4700	  689.00	  666.92	-1747.67	  334.70
    108.5700	  707.00	  666.88	-1729.63	  334.44
    108.6700	  704.00	  667.64	-1733.39	  334.19
    108.7700	  659.00	  669.17	-1779.92	  333.93
    108.8700	  659.00	  671.32	-1782.07	  333.68
    108.9700	  689.00	  673.85	-1754.60	  333.43
    109.0700	  650.00	  676.43	-1796.18	  333.18
    109.1700	  723.00	  678.68	-1725.43	  332.93
    109.2700	  635.00	  680.17	-1814.92	  332.69
    109.3700	  699.00	  680.47	-1751.22	  332.45
    109.4700	  667.00	  679.25	-1782.00	  332.21
    109.5700	  678.00	  676.28	-1768.03	  331.97
    109.6700	  670.00	  671.47	-1771.22	  331.74
    109.7700	  685.00	  664.92	-1749.67	  331.51
    109.8700	  619.00	  656.81	-1807.56	  331.28
    109.9700	  677.00	  647.47	-1740.22	  331.05
    110.0700	  674.00	  637.24	-1732.99	  330.83
    110.1700	  632.00	  626.46	-1764.21	  330.61
    110.2700	  603.00	  615.48	-1782.23	  330.39
    110.3700	  650.00	  604.61	-1724.36	  330.17
    110.4700	  605.00	  594.10	-1758.85	  329.96
    110.5700	  562.00	  584.21	-1791.96	  329.75
    110.6700	  596.00	  575.08	-1748.83	  329.54
    110.7700	  613.00	  566.87	-1723.62	  329.34
    110.8700	  517.00	  559.65	-1812.40	  329.13
    110.9700	  580.00	  553.48	-1743.23	  328.94
    111.0700	  536.00	  548.37	-1782.12	  328.74
    111.1700	  594.00	  544.29	-1720.04	  328.55
    111.2700	  563.00	  541.19	-1747.94	  328.36
    111.3700	  534.00	  539.02	-1774.77	  328.17
    111.4700	  567.00	  537.68	-1740.43	  327.99
    111.5700	  564.00	  537.09	-1742.84	  327.81
    111.6700	  557.00	  537.17	-1749.92	  327.64
    111.7700	  555.00	  537.82	-1752.57	  327.46
    111.8700	  520.00	  538.97	-1788.72	  327.30
    111.9700	  572.00	  540.52	-1738.27	  327.13
    112.0700	  557.00	  542.42	-1755.17	  326.97
    112.1700	  532.00	  544.62	-1782.37	  326.81
    112.2700	  529.00	  547.05	-1787.80	  326.66
    112.3700	  619.00	  549.71	-1700.46	  326.51
    112.4700	  577.00	  552.58	-1745.33	  326.36
    112.5700	  575.00	  555.66	-1750.41	  326.22
    112.6700	  524.00	  558.97	-1804.72	  326.08
    112.7700	  539.00	  562.55	-1793.30	  325.94
    112.8700	  553.00	  566.45	-1783.20	  325.81
    112.9700	  545.00	  570.74	-1795.49	  325.68
    113.0700	  566.00	  575.49	-1779.24	  325.56
    113.1700	  574.00	  580.82	-1776.57	  325.44
    113.2700	  576.00	  586.84	-1780.59	  325.33
    113.3700	  583.00	  593.73	-1780.48	  325.22
    113.4700	  595.00	  601.67	-1776.42	  325.11
    113.5700	  645.00	  610.94	-1735.69	  325.01
    113.6700	  612.00	  621.85	-1779.60	  324.91
    113.7700	  646.00	  634.81	-1758.56	  324.82
    113.8700	  650.00	  650.32	-1770.07	  324.73
    113.9700	  644.00	  669.01	-1794.76	  324.65
    114.0700	  693.00	  691.64	-1768.39	  324.57
    114.1700	  718.00	  719.12	-1770.87	  324.49
    114.2700	  710.00	  752.55	-1812.30	  324.42
    114.3700	  766.00	  793.20	-1796.95	  324.36
    114.4700	  873.00	  842.55	-1739.30	  324.30
    114.5700	  876.00	  902.26	-1796.01	  324.24
    114.6700	 1016.00	  974.17	-1727.92	  324.20
    114.7700	 1019.00	 1060.26	-1811.01	  324.15
    114.8700	 1229.00	 1162.65	-1703.40	  324.11
    114.9700	 1358.00	 1283.45	-1695.20	  324.08
    115.0700	 1480.00	 1424.81	-1714.56	  324.05
    115.1700	 1600.00	 1588.69	-1758.44	  324.02
    115.2700	 1895.00	 1776.79	-1651.54	  324.00
    115.3700	 2075.00	 1990.53	-1685.28	  323.99
    115.4700	 2391.00	 2230.71	-1609.46	  323.98
    115.5700	 2572.00	 2497.61	-1695.36	  323.98
    115.6700	 2899.00	 2790.63	-1661.38	  323.99
    115.7700	 3196.00	 3108.32	-1682.07	  323.99
    115.8700	 3306.00	 3448.34	-1912.09	  324.01
    115.9700	 3836.00	 3807.13	-1740.88	  324.03
    116.0700	 4263.00	 4180.21	-1686.96	  324.06
    116.1700	 4528.00	 4561.83	-1803.58	  324.09
    116.2700	 4907.00	 4945.15	-1807.90	  324.13
    116.3700	 5188.00	 5322.39	-1904.14	  324.17
    116.4700	 5532.00	 5684.61	-1922.36	  324.22
    116.5700	 5995.00	 6022.25	-1797.00	  324.28
    116.6700	 6199.00	 6325.08	-1895.83	  324.34
    116.7700	 6532.00	 6582.82	-1820.57	  324.41
    116.8700	 6761.00	 6785.86	-1794.61	  324.49
    116.9700	 6806.00	 6925.85	-1889.60	  324.57
    117.0700	 7079.00	 6996.78	-1687.53	  324.66
    117.1700	 6857.00	 6995.58	-1908.33	  324.75
    117.2700	 7011.00	 6922.61	-1681.36	  324.85
    117.3700	 6744.00	 6781.54	-1807.29	  324.96
    117.4700	 6538.00	 6578.95	-1810.70	  325.08
    117.5700	 6187.00	 6323.39	-1906.14	  325.20
    117.6700	 5844.00	 6024.69	-1950.44	  325.33
    117.7700	 5722.00	 5693.11	-1740.86	  325.46
    117.8700	 5362.00	 5338.56	-1746.31	  325.60
    117.9700	 4995.00	 4970.54	-1745.29	  325.75
    118.0700	 4555.00	 4597.46	-1812.21	  325.91
    118.1700	 4204.00	 4226.87	-1792.62	  326.08
    118.2700	 4033.00	 3865.25	-1602.00	  326.25
    118.3700	 3638.00	 3517.75	-1649.50	  326.43
    118.4700	 3217.00	 3188.64	-1741.39	  326.61
    118.5700	 2986.00	 2880.91	-1664.66	  326.81
    118.6700	 2620.00	 2596.67	-1746.42	  327.01
    118.7700	 2351.00	 2337.10	-1755.85	  327.22
    118.8700	 2121.00	 2102.50	-1751.25	  327.43
    118.9700	 1887.00	 1892.60	-1775.35	  327.66
    119.0700	 1760.00	 1706.48	-1716.23	  327.89
    119.1700	 1480.00	 1542.89	-1832.64	  328.13
    119.2700	 1405.00	 1400.25	-1765.00	  328.38
    119.3700	 1291.00	 1276.72	-1755.47	  328.63
    119.4700	 1170.00	 1170.46	-1770.21	  328.90
    119.5700	 1075.00	 1079.51	-1774.26	  329.17
    119.6700	  991.00	 1002.01	-1780.76	  329.45
    119.7700	  958.00	  936.21	-1747.96	  329.74
    119.8700	  872.00	  880.45	-1778.20	  330.04
    119.9700	  838.00	  833.27	-1765.02	  330.35
    120.0700	  776.00	  793.36	-1787.11	  330.66
    120.1700	  759.00	  759.58	-1770.33	  330.98
    120.2700	  748.00	  730.97	-1752.72	  331.32
    120.3700	  728.00	  706.70	-1748.45	  331.66
    120.4700	  619.00	  686.10	-1836.85	  332.01
    120.5700	  689.00	  668.57	-1749.32	  332.37
    120.6700	  628.00	  653.67	-1795.42	  332.74
    120.7700	  643.00	  641.01	-1767.76	  333.11
    120.8700	  595.00	  630.28	-1805.03	  333.50
    120.9700	  572.00	  621.23	-1818.98	  333.89
    121.0700	  597.00	  613.65	-1786.40	  334.30
    121.1700	  582.00	  607.38	-1795.13	  334.71
    121.2700	  589.00	  602.28	-1783.03	  335.14
    121.3700	  569.00	  598.24	-1798.99	  335.57
    121.4700	  545.00	  595.16	-1819.91	  336.02
    121.5700	  576.00	  592.95	-1786.70	  336.47
    121.6700	  558.00	  591.56	-1803.31	  336.93
    121.7700	  579.00	  590.91	-1781.66	  337.40
    121.8700	  563.00	  590.93	-1797.68	  337.89
    121.9700	  579.00	  591.58	-1782.33	  338.38
    122.0700	  566.00	  592.79	-1796.54	  338.88
    122.1700	  565.00	  594.49	-1799.24	  339.40
    122.2700	  595.00	  596.62	-1771.37	  339.92
    122.3700	  615.00	  599.10	-1753.85	  340.45
    122.4700	  642.00	  601.86	-1729.61	  341.00
    122.5700	  604.00	  604.82	-1770.57	  341.55
    122.6700	  601.00	  607.88	-1776.63	  342.12
    122.7700	  592.00	  610.95	-1788.70	  342.70
    122.8700	  578.00	  613.92	-1805.67	  343.28
    122.9700	  642.00	  616.72	-1744.47	  343.88
    123.0700	  654.00	  619.22	-1734.97	  344.49
    123.1700	  577.00	  621.35	-1814.10	  345.11
    123.2700	  639.00	  623.03	-1753.78	  345.74
    123.3700	  646.00	  624.20	-1747.95	  346.39
    123.4700	  627.00	  624.81	-1767.56	  347.04
    123.5700	  671.00	  624.87	-1723.62	  347.71
    123.6700	  639.00	  624.37	-1755.12	  348.38
    123.7700	  613.00	  623.35	-1780.10	  349.07
    123.8700	  616.00	  621.86	-1775.61	  349.77
    123.9700	  644.00	  619.92	-1745.67	  350.49
    124.0700	  599.00	  617.64	-1788.39	  351.21
    124.1700	  585.00	  615.06	-1799.81	  351.95
    124.2700	  606.00	  612.26	-1776.01	  352.69
    124.3700	  659.00	  609.29	-1720.04	  353.46
    124.4700	  600.00	  606.21	-1775.96	  354.23
    124.5700	  624.00	  603.08	-1748.83	  355.01
    124.6700	  618.00	  599.96	-1751.71	  355.81
    124.7700	  609.00	  596.88	-1757.63	  356.62
    124.8700	  623.00	  593.89	-1740.64	  357.44
    124.9700	  613.00	  466.27	-1623.02	  358.28
    125.0700	  591.00	  467.12	-1769.75	  359.13
    125.1700	  568.00	  467.98	-1769.75	  359.99
    125.2700	  533.00	  468.85	-1769.75	  360.86
    125.3700	  608.00	  469.74	-1769.75	  361.75
    125.4700	  624.00	  470.64	-1769.75	  362.65
    125.5700	  597.00	  471.55	-1769.75	  363.56
    125.6700	  557.00	  472.48	-1769.75	  364.49
    125.7700	  559.00	  473.42	-1769.75	  365.43
    125.8700	  546.00	  474.37	-1769.75	  366.38
    125.9700	  564.00	  475.34	-1769.75	  367.35
    126.0700	  560.00	  476.32	-1769.75	  368.33
    126.1700	  555.00	  477.32	-1769.75	  369.32
    126.2700	  522.00	  478.33	-1769.75	  370.33
    126.3700	  548.00	  479.35	-1769.75	  371.35
    126.4700	  584.00	  480.39	-1769.75	  372.39
    126.5700	  543.00	  481.44	-1769.75	  373.44
    126.6700	  558.00	  482.50	-1769.75	  374.51
    126.7700	  547.00	  483.58	-1769.75	  375.59
    126.8700	  548.00	  484.68	-1769.75	  376.68
    126.9700	  600.00	  485.79	-1769.75	  377.79
    127.0700	  589.00	  486.91	-1769.75	  378.91
    127.1700	  591.00	  488.05	-1769.75	  380.05
    127.2700	  551.00	  489.20	-1769.75	  381.21
    127.3700	  588.00	  490.37	-1769.75	  382.37
    127.4700	  564.00	  491.55	-1769.75	  383.56
    127.5700	  546.00	  492.75	-1769.75	  384.76
    127.6700	  577.00	  493.96	-1769.75	  385.97
    127.7700	  566.00	  495.19	-1769.75	  387.20
    127.8700	  633.00	  496.44	-1769.75	  388.45
    127.9700	  629.00	  497.70	-1769.75	  389.71
    128.0700	  618.00	  498.98	-1769.75	  390.98
    128.1700	  669.00	  500.27	-1769.75	  392.27
    128.2700	  665.00	  501.58	-1769.75	  393.58
    128.3700	  638.00	  502.90	-1769.75	  394.91
    128.4700	  651.00	  504.24	-1769.75	  396.25
    128.5700	    0.00	  505.60	-1769.75	  397.60
    128.6700	    0.00	  506.97	-1769.75	  398.98
     12.3457	        	        	        	        	       0	(  0  0  2)	  0  1
     24.9731	        	        	        	        	       0	(  0  0  4)	  0  1
     28.3998	        	        	        	        	       0	(  1  0  0)	  0  1
     29.1002	        	        	        	        	       0	(  1  0  1)	  0  1
     31.1153	        	        	        	        	       0	(  1  0  2)	  0  1
     34.2372	        	        	        	        	       0	(  1  0  3)	  0  1
     37.9198	        	        	        	        	       0	(  0  0  6)	  0  1
     38.2314	        	        	        	        	       0	(  1  0  4)	  0  1
     42.9014	        	        	        	        	       0	(  1  0  5)	  0  1
     48.1078	        	        	        	        	       0	(  1  0  6)	  0  1
     50.3982	        	        	        	        	       0	(  1  1  0)	  0  1
     51.3949	        	        	        	        	       0	(  0  0  8)	  0  1
     52.1297	        	        	        	        	       0	(  1  1  2)	  0  1
     53.7631	        	        	        	        	       0	(  1  0  7)	  0  1
     57.1019	        	        	        	        	       0	(  1  1  4)	  0  1
     58.9218	        	        	        	        	       0	(  2  0  0)	  0  1
     59.3154	        	        	        	        	       0	(  2  0  1)	  0  1
     59.8211	        	        	        	        	       0	(  1  0  8)	  0  1
     60.4868	        	        	        	        	       0	(  2  0  2)	  0  1
     62.4099	        	        	        	        	       0	(  2  0  3)	  0  1
     64.8352	        	        	        	        	       0	(  1  1  6)	  0  1
     65.0477	        	        	        	        	       0	(  2  0  4)	  0  1
     65.6875	        	        	        	        	       0	(  0  0 10)	  0  1
     66.2682	        	        	        	        	       0	(  1  0  9)	  0  1
     68.3595	        	        	        	        	       0	(  2  0  5)	  0  1
     72.3083	        	        	        	        	       0	(  2  0  6)	  0  1
     73.1193	        	        	        	        	       0	(  1  0 10)	  0  1
     74.9265	        	        	        	        	       0	(  1  1  8)	  0  1
     76.8680	        	        	        	        	       0	(  2  0  7)	  0  1
     80.4174	        	        	        	        	       0	(  1  0 11)	  0  1
     81.2457	        	        	        	        	       0	(  2  1  0)	  0  1
     81.2497	        	        	        	        	       0	(  0  0 12)	  0  1
     81.5877	        	        	        	        	       0	(  2  1  1)	  0  1
     82.0287	        	        	        	        	       0	(  2  0  8)	  0  1
     82.6119	        	        	        	        	       0	(  2  1  2)	  0  1
     84.3138	        	        	        	        	       0	(  2  1  3)	  0  1
     86.6887	        	        	        	        	       0	(  2  1  4)	  0  1
     87.2716	        	        	        	        	       0	(  1  1 10)	  0  1
     87.8030	        	        	        	        	       0	(  2  0  9)	  0  1
     88.2398	        	        	        	        	       0	(  1  0 12)	  0  1
     89.7346	        	        	        	        	       0	(  2  1  5)	  0  1
     93.4578	        	        	        	        	       0	(  2  1  6)	  0  1
     94.2345	        	        	        	        	       0	(  2  0 10)	  0  1
     95.2016	        	        	        	        	       0	(  3  0  0)	  0  1
     95.5414	        	        	        	        	       0	(  3  0  1)	  0  1
     96.5621	        	        	        	        	       0	(  3  0  2)	  0  1
     96.7126	        	        	        	        	       0	(  1  0 13)	  0  1
     97.8788	        	        	        	        	       0	(  2  1  7)	  0  1
     98.2682	        	        	        	        	       0	(  3  0  3)	  0  1
     98.9089	        	        	        	        	       0	(  0  0 14)	  0  1
    100.6698	        	        	        	        	       0	(  3  0  4)	  0  1
    101.4115	        	        	        	        	       0	(  2  0 11)	  0  1
    102.2518	        	        	        	        	       0	(  1  1 12)	  0  1
    103.0423	        	        	        	        	       0	(  2  1  8)	  0  1
    103.7867	        	        	        	        	       0	(  3  0  5)	  0  1
    106.0432	        	        	        	        	       0	(  1  0 14)	  0  1
    107.6553	        	        	        	        	       0	(  3  0  6)	  0  1
    109.0321	        	        	        	        	       0	(  2  1  9)	  0  1
    109.4950	        	        	        	        	       0	(  2  0 12)	  0  1
    112.3399	        	        	        	        	       0	(  3  0  7)	  0  1
    116.0002	        	        	        	        	       0	(  2  1 10)	  0  1
    116.5975	        	        	        	        	       0	(  1  0 15)	  0  1
    117.0785	        	        	        	        	       0	(  2  2  0)	  0  1
    117.9532	        	        	        	        	       0	(  3  0  8)	  0  1
    118.6106	        	        	        	        	       0	(  2  2  2)	  0  1
    118.7812	        	        	        	        	       0	(  2  0 13)	  0  1
    120.6221	        	        	        	        	       0	(  0  0 16)	  0  1
    121.2973	        	        	        	        	       0	(  1  1 14)	  0  1
    123.3530	        	        	        	        	       0	(  2  2  4)	  0  1
    124.2299	        	        	        	        	       0	(  2  1 11)	  0  1
    124.6981	        	        	        	        	       0	(  3  0  9)	  0  1
    125.2269	        	        	        	        	       0	(  3  1  0)	  0  1
    125.6427	        	        	        	        	       0	(  3  1  1)	  0  1
    126.9035	        	        	        	        	       0	(  3  1  2)	  0  1
    129.0531	        	        	        	        	       0	(  3  1  3)	  0  1
    129.1242	        	        	        	        	       0	(  1  0 16)	  0  1
    129.8749	        	        	        	        	       0	(  2  0 14)	  0  1
    131.9188	        	        	        	        	       0	(  2  2  6)	  0  1
    132.1788	        	        	        	        	       0	(  3  1  4)	  0  1
    132.9710	        	        	        	        	       0	(  3  0 10)	  0  1
    134.3110	        	        	        	        	       0	(  2  1 12)	  0  1
    136.4438	        	        	        	        	       0	(  3  1  5)	  0  1
    142.1679	        	        	        	        	       0	(  3  1  6)	  0  1
    143.6996	        	        	        	        	       0	(  3  0 11)	  0  1
    144.3647	        	        	        	        	       0	(  2  0 15)	  0  1
    145.7215	        	        	        	        	       0	(  1  0 17)	  0  1
    146.4928	        	        	        	        	       0	(  2  2  8)	  0  1
    147.8397	        	        	        	        	       0	(  2  1 13)	  0  1
    150.0912	        	        	        	        	       0	(  3  1  7)	  0  1
    150.9907	        	        	        	        	       0	(  1  1 16)	  0  1
    155.7621	        	        	        	        	       0	(  0  0 18)	  0  1
    160.4286	        	        	        	        	       0	(  4  0  0)	  0  1
    160.4405	        	        	        	        	       0	(  3  0 12)	  0  1
    161.4719	        	        	        	        	       0	(  4  0  1)	  0  1
    162.9096	        	        	        	        	       0	(  3  1  8)	  0  1
    165.0195	        	        	        	        	       0	(  4  0  2)	  0  1
    174.8197	        	        	        	        	       0	(  4  0  3)	  0  1
    175.4904	        	        	        	        	       0	(  2  0 16)	  0  1
