MSG Master    CELL:    5.87795   5.87795  23.08852   90.0000   90.0000  120.0000   SPGR: P 63/m m c             TEMP:    483.05
  2   1280     2.52000     0.00000    -0.08546     0.00000     0.00000    0
    96    96     0     0     2
       0.00000      10.00000
     125.00000     130.00000
 2Theta	Yobs	Ycal	Yobs-Ycal	Backg	Posr	(hkl)	K
      0.7700	    0.00	  963.12	-2205.50	  826.08
      0.8700	    0.00	  959.95	-2205.50	  822.91
      0.9700	   45.00	  956.80	-2205.50	  819.76
      1.0700	   40.00	  953.67	-2205.50	  816.63
      1.1700	   41.00	  950.56	-2205.50	  813.52
      1.2700	   47.00	  947.47	-2205.50	  810.43
      1.3700	   56.00	  944.39	-2205.50	  807.35
      1.4700	   99.00	  941.34	-2205.50	  804.30
      1.5700	  279.00	  938.30	-2205.50	  801.26
      1.6700	  470.00	  935.28	-2205.50	  798.24
      1.7700	  575.00	  932.28	-2205.50	  795.24
      1.8700	  626.00	  929.30	-2205.50	  792.26
      1.9700	  701.00	  926.34	-2205.50	  789.30
      2.0700	  785.00	  923.40	-2205.50	  786.36
      2.1700	  817.00	  920.48	-2205.50	  783.44
      2.2700	  729.00	  917.57	-2205.50	  780.53
      2.3700	  721.00	  914.68	-2205.50	  777.64
      2.4700	  693.00	  911.81	-2205.50	  774.77
      2.5700	  693.00	  908.96	-2205.50	  771.92
      2.6700	  713.00	  906.13	-2205.50	  769.09
      2.7700	  684.00	  903.31	-2205.50	  766.27
      2.8700	  622.00	  900.52	-2205.50	  763.48
      2.9700	  636.00	  897.74	-2205.50	  760.70
      3.0700	  635.00	  894.97	-2205.50	  757.93
      3.1700	  616.00	  892.23	-2205.50	  755.19
      3.2700	  759.00	  889.50	-2205.50	  752.46
      3.3700	  872.00	  886.80	-2205.50	  749.76
      3.4700	 1059.00	  884.10	-2205.50	  747.06
      3.5700	 1192.00	  881.43	-2205.50	  744.39
      3.6700	 1342.00	  878.77	-2205.50	  741.73
      3.7700	 1391.00	  876.13	-2205.50	  739.09
      3.8700	 1451.00	  873.51	-2205.50	  736.47
      3.9700	 1540.00	  870.91	-2205.50	  733.87
      4.0700	 1672.00	  868.32	-2205.50	  731.28
      4.1700	 1679.00	  865.75	-2205.50	  728.71
      4.2700	 1755.00	  863.19	-2205.50	  726.15
      4.3700	 1703.00	  860.65	-2205.50	  723.61
      4.4700	 1571.00	  858.13	-2205.50	  721.09
      4.5700	 1571.00	  855.63	-2205.50	  718.59
      4.6700	 1497.00	  853.14	-2205.50	  716.10
      4.7700	 1483.00	  850.67	-2205.50	  713.63
      4.8700	 1393.00	  848.22	-2205.50	  711.18
      4.9700	 1388.00	  845.78	-2205.50	  708.74
      5.0700	 1342.00	  843.36	-2205.50	  706.32
      5.1700	 1269.00	  840.95	-2205.50	  703.91
      5.2700	 1216.00	  838.56	-2205.50	  701.52
      5.3700	 1266.00	  836.19	-2205.50	  699.15
      5.4700	 1225.00	  833.83	-2205.50	  696.79
      5.5700	 1242.00	  831.49	-2205.50	  694.45
      5.6700	 1130.00	  829.16	-2205.50	  692.12
      5.7700	 1166.00	  826.85	-2205.50	  689.81
      5.8700	 1073.00	  824.56	-2205.50	  687.52
      5.9700	 1101.00	  822.28	-2205.50	  685.24
      6.0700	 1094.00	  820.02	-2205.50	  682.98
      6.1700	 1124.00	  817.77	-2205.50	  680.73
      6.2700	 1118.00	  815.54	-2205.50	  678.50
      6.3700	 1034.00	  813.32	-2205.50	  676.28
      6.4700	  992.00	  811.12	-2205.50	  674.08
      6.5700	  968.00	  808.93	-2205.50	  671.89
      6.6700	  969.00	  806.76	-2205.50	  669.72
      6.7700	  991.00	  804.61	-2205.50	  667.57
      6.8700	  916.00	  802.47	-2205.50	  665.43
      6.9700	  951.00	  800.34	-2205.50	  663.30
      7.0700	  910.00	  798.23	-2205.50	  661.19
      7.1700	  885.00	  796.14	-2205.50	  659.10
      7.2700	  992.00	  794.06	-2205.50	  657.02
      7.3700	  894.00	  791.99	-2205.50	  654.95
      7.4700	  892.00	  789.94	-2205.50	  652.90
      7.5700	  854.00	  787.90	-2205.50	  650.86
      7.6700	  869.00	  785.88	-2205.50	  648.84
      7.7700	  834.00	  783.87	-2205.50	  646.83
      7.8700	  791.00	  781.88	-2205.50	  644.84
      7.9700	  851.00	  779.90	-2205.50	  642.86
      8.0700	  791.00	  777.93	-2205.50	  640.89
      8.1700	  813.00	  775.98	-2205.50	  638.94
      8.2700	  816.00	  774.04	-2205.50	  637.00
      8.3700	  834.00	  772.12	-2205.50	  635.08
      8.4700	  811.00	  770.21	-2205.50	  633.17
      8.5700	  813.00	  768.32	-2205.50	  631.28
      8.6700	  815.00	  766.44	-2205.50	  629.40
      8.7700	  817.00	  764.57	-2205.50	  627.53
      8.8700	  812.00	  762.71	-2205.50	  625.67
      8.9700	  794.00	  760.87	-2205.50	  623.83
      9.0700	  757.00	  759.05	-2205.50	  622.01
      9.1700	  739.00	  757.24	-2205.50	  620.20
      9.2700	  751.00	  755.44	-2205.50	  618.40
      9.3700	  740.00	  753.65	-2205.50	  616.61
      9.4700	  780.00	  751.88	-2205.50	  614.84
      9.5700	  726.00	  750.12	-2205.50	  613.08
      9.6700	  765.00	  748.37	-2205.50	  611.33
      9.7700	  774.00	  746.64	-2205.50	  609.60
      9.8700	  790.00	  744.92	-2205.50	  607.88
      9.9700	  774.00	  743.21	-2205.50	  606.17
     10.0700	  766.00	  743.81	-2183.31	  604.48
     10.1700	  770.00	  742.37	-2177.87	  602.80
     10.2700	  759.00	  741.00	-2187.50	  601.13
     10.3700	  727.00	  739.70	-2218.20	  599.47
     10.4700	  733.00	  738.50	-2211.00	  597.83
     10.5700	  750.00	  737.44	-2192.94	  596.20
     10.6700	  702.00	  736.58	-2240.08	  594.59
     10.7700	  727.00	  736.00	-2214.50	  592.98
     10.8700	  717.00	  735.79	-2224.29	  591.39
     10.9700	  740.00	  736.03	-2201.53	  589.81
     11.0700	  783.00	  736.79	-2159.29	  588.24
     11.1700	  732.00	  738.09	-2211.59	  586.68
     11.2700	  726.00	  739.95	-2219.45	  585.14
     11.3700	  726.00	  742.41	-2221.91	  583.61
     11.4700	  705.00	  745.57	-2246.07	  582.09
     11.5700	  761.00	  749.56	-2194.06	  580.59
     11.6700	  748.00	  754.61	-2212.11	  579.09
     11.7700	  764.00	  760.96	-2202.46	  577.61
     11.8700	  822.00	  768.85	-2152.35	  576.14
     11.9700	  809.00	  778.32	-2174.82	  574.68
     12.0700	  825.00	  788.80	-2169.30	  573.23
     12.1700	  914.00	  798.73	-2090.23	  571.79
     12.2700	  882.00	  805.07	-2128.57	  570.37
     12.3700	  824.00	  803.37	-2184.87	  568.96
     12.4700	  812.00	  791.00	-2184.50	  567.56
     12.5700	  753.00	  771.51	-2224.01	  566.17
     12.6700	  733.00	  751.73	-2224.23	  564.79
     12.7700	  685.00	  735.58	-2256.08	  563.42
     12.8700	  720.00	  723.70	-2209.20	  562.07
     12.9700	  714.00	  715.38	-2206.88	  560.72
     13.0700	  686.00	  709.57	-2229.07	  559.39
     13.1700	  676.00	  705.35	-2234.85	  558.07
     13.2700	  651.00	  702.08	-2256.58	  556.76
     13.3700	  680.00	  699.39	-2224.89	  555.46
     13.4700	  627.00	  697.06	-2275.56	  554.17
     13.5700	  689.00	  694.97	-2211.47	  552.89
     13.6700	  645.00	  693.05	-2253.55	  551.62
     13.7700	  679.00	  691.27	-2217.77	  550.36
     13.8700	  696.00	  689.59	-2199.09	  549.12
     13.9700	  715.00	  687.99	-2178.49	  547.88
     14.0700	  742.00	  686.46	-2149.96	  546.66
     14.1700	  686.00	  684.99	-2204.49	  545.44
     14.2700	  625.00	  683.56	-2264.06	  544.24
     14.3700	  668.00	  682.18	-2219.68	  543.05
     14.4700	  697.00	  680.83	-2189.33	  541.86
     14.5700	  651.00	  679.51	-2234.01	  540.69
     14.6700	  720.00	  678.22	-2163.72	  539.53
     14.7700	  655.00	  676.96	-2227.46	  538.38
     14.8700	  709.00	  675.71	-2172.21	  537.24
     14.9700	  731.00	  674.49	-2148.99	  536.10
     15.0700	  605.00	  673.29	-2273.79	  534.98
     15.1700	  676.00	  672.11	-2201.61	  533.87
     15.2700	  684.00	  670.94	-2192.44	  532.77
     15.3700	  694.00	  669.79	-2181.29	  531.68
     15.4700	  698.00	  668.66	-2176.16	  530.59
     15.5700	  658.00	  667.54	-2215.04	  529.52
     15.6700	  622.00	  666.43	-2249.93	  528.46
     15.7700	  677.00	  665.34	-2193.84	  527.41
     15.8700	  682.00	  664.26	-2187.76	  526.36
     15.9700	  691.00	  663.19	-2177.69	  525.33
     16.0700	  656.00	  662.14	-2211.64	  524.31
     16.1700	  631.00	  661.09	-2235.59	  523.29
     16.2700	  658.00	  660.06	-2207.56	  522.29
     16.3700	  671.00	  659.04	-2193.54	  521.29
     16.4700	  668.00	  658.03	-2195.53	  520.30
     16.5700	  687.00	  657.03	-2175.53	  519.33
     16.6700	  616.00	  656.05	-2245.55	  518.36
     16.7700	  631.00	  655.07	-2229.57	  517.40
     16.8700	  642.00	  654.10	-2217.60	  516.45
     16.9700	  716.00	  653.15	-2142.65	  515.51
     17.0700	  666.00	  652.20	-2191.70	  514.57
     17.1700	  649.00	  651.27	-2207.77	  513.65
     17.2700	  651.00	  650.34	-2204.84	  512.74
     17.3700	  639.00	  649.42	-2215.92	  511.83
     17.4700	  655.00	  648.52	-2199.02	  510.94
     17.5700	  630.00	  647.62	-2223.12	  510.05
     17.6700	  655.00	  646.73	-2197.23	  509.17
     17.7700	  601.00	  645.85	-2250.35	  508.30
     17.8700	  643.00	  644.98	-2207.48	  507.44
     17.9700	  613.00	  644.12	-2236.62	  506.58
     18.0700	  625.00	  643.27	-2223.77	  505.74
     18.1700	  634.00	  642.43	-2213.93	  504.90
     18.2700	  657.00	  641.60	-2190.10	  504.08
     18.3700	  678.00	  640.77	-2168.27	  503.26
     18.4700	  635.00	  639.96	-2210.46	  502.44
     18.5700	  611.00	  639.15	-2233.65	  501.64
     18.6700	  610.00	  638.35	-2233.85	  500.85
     18.7700	  632.00	  637.57	-2211.07	  500.06
     18.8700	  630.00	  636.78	-2212.28	  499.28
     18.9700	  658.00	  636.01	-2183.51	  498.51
     19.0700	  635.00	  636.48	-2206.98	  497.75
     19.1700	  655.00	  637.83	-2188.33	  496.99
     19.2700	  623.00	  637.15	-2219.65	  496.25
     19.3700	  636.00	  636.48	-2205.98	  495.51
     19.4700	  671.00	  635.83	-2170.33	  494.78
     19.5700	  617.00	  635.19	-2223.69	  494.05
     19.6700	  641.00	  634.55	-2199.05	  493.34
     19.7700	  678.00	  633.93	-2161.43	  492.63
     19.8700	  618.00	  633.32	-2220.82	  491.93
     19.9700	  628.00	  632.72	-2210.22	  491.24
     20.0700	  662.00	  632.19	-2175.69	  490.55
     20.1700	  658.00	  631.61	-2179.11	  489.88
     20.2700	  626.00	  631.05	-2210.55	  489.21
     20.3700	  612.00	  630.50	-2224.00	  488.54
     20.4700	  609.00	  629.95	-2226.46	  487.89
     20.5700	  673.00	  629.43	-2161.93	  487.24
     20.6700	  617.00	  628.91	-2217.41	  486.60
     20.7700	  562.00	  628.40	-2271.90	  485.96
     20.8700	  622.00	  627.91	-2211.41	  485.34
     20.9700	  614.00	  627.43	-2218.93	  484.72
     21.0700	  599.00	  626.97	-2233.47	  484.11
     21.1700	  651.00	  626.52	-2181.02	  483.50
     21.2700	  614.00	  626.08	-2217.58	  482.90
     21.3700	  605.00	  625.66	-2226.16	  482.31
     21.4700	  629.00	  625.25	-2201.75	  481.73
     21.5700	  607.00	  624.86	-2223.36	  481.15
     21.6700	  666.00	  624.48	-2163.98	  480.58
     21.7700	  621.00	  624.12	-2208.62	  480.02
     21.8700	  599.00	  623.78	-2230.28	  479.46
     21.9700	  641.00	  623.45	-2187.95	  478.91
     22.0700	  614.00	  623.15	-2214.65	  478.36
     22.1700	  611.00	  622.86	-2217.36	  477.83
     22.2700	  612.00	  622.82	-2216.32	  477.30
     22.3700	  637.00	  622.58	-2191.08	  476.77
     22.4700	  676.00	  622.36	-2151.86	  476.25
     22.5700	  667.00	  622.17	-2160.67	  475.74
     22.6700	  662.00	  622.01	-2165.51	  475.24
     22.7700	  645.00	  621.88	-2182.38	  474.74
     22.8700	  635.00	  621.78	-2192.28	  474.25
     22.9700	  668.00	  621.71	-2159.21	  473.76
     23.0700	  640.00	  621.69	-2187.19	  473.28
     23.1700	  618.00	  621.71	-2209.21	  472.81
     23.2700	  646.00	  621.77	-2181.27	  472.34
     23.3700	  638.00	  621.90	-2189.40	  471.88
     23.4700	  605.00	  622.09	-2222.59	  471.42
     23.5700	  632.00	  622.37	-2195.87	  470.97
     23.6700	  638.00	  622.74	-2190.24	  470.53
     23.7700	  655.00	  623.24	-2173.74	  470.09
     23.8700	  606.00	  623.90	-2223.40	  469.66
     23.9700	  684.00	  624.79	-2146.29	  469.23
     24.0700	  638.00	  626.03	-2193.53	  468.81
     24.1700	  641.00	  627.78	-2192.28	  468.40
     24.2700	  672.00	  630.30	-2163.80	  467.99
     24.3700	  661.00	  633.90	-2178.40	  467.59
     24.4700	  648.00	  639.07	-2196.57	  467.19
     24.5700	  703.00	  646.05	-2148.55	  466.80
     24.6700	  659.00	  654.85	-2201.35	  466.41
     24.7700	  703.00	  664.96	-2167.46	  466.03
     24.8700	  698.00	  675.09	-2182.59	  465.66
     24.9700	  719.00	  682.87	-2169.37	  465.29
     25.0700	  681.00	  685.16	-2209.66	  464.92
     25.1700	  688.00	  680.35	-2197.85	  464.56
     25.2700	  731.00	  670.76	-2145.26	  464.21
     25.3700	  642.00	  660.76	-2224.26	  463.86
     25.4700	  676.00	  652.87	-2182.37	  463.52
     25.5700	  641.00	  647.69	-2212.19	  463.18
     25.6700	  641.00	  644.91	-2209.41	  462.85
     25.7700	  659.00	  643.98	-2190.48	  462.52
     25.8700	  641.00	  644.36	-2208.86	  462.20
     25.9700	  633.00	  645.69	-2218.19	  461.88
     26.0700	  669.00	  647.75	-2184.25	  461.57
     26.1700	  664.00	  650.45	-2191.95	  461.26
     26.2700	  649.00	  653.78	-2210.28	  460.96
     26.3700	  686.00	  657.78	-2177.28	  460.66
     26.4700	  654.00	  662.54	-2214.04	  460.37
     26.5700	  692.00	  668.17	-2181.67	  460.08
     26.6700	  610.00	  674.84	-2270.34	  459.80
     26.7700	  666.00	  682.76	-2222.26	  459.52
     26.8700	  685.00	  692.22	-2212.72	  459.24
     26.9700	  670.00	  703.61	-2239.11	  458.98
     27.0700	  707.00	  717.46	-2215.96	  458.71
     27.1700	  690.00	  734.51	-2250.01	  458.45
     27.2700	  781.00	  755.81	-2180.31	  458.20
     27.3700	  730.00	  783.06	-2258.56	  457.94
     27.4700	  729.00	  819.29	-2295.79	  457.70
     27.5700	  803.00	  870.96	-2273.46	  457.46
     27.6700	  846.00	  952.37	-2311.87	  457.22
     27.7700	  918.00	 1093.30	-2380.80	  456.99
     27.8700	 1053.00	 1348.42	-2500.92	  456.76
     27.9700	 1332.00	 1803.33	-2676.83	  456.53
     28.0700	 1970.00	 2564.16	-2799.66	  456.31
     28.1700	 3264.00	 3712.97	-2654.47	  456.10
     28.2700	 5370.00	 5213.96	-2049.46	  455.89
     28.3700	 7577.00	 6780.27	-1408.77	  455.68
     28.4700	 8822.00	 7810.14	-1193.64	  455.48
     28.5700	 8261.00	 7635.11	-1579.61	  455.28
     28.6700	 6473.00	 6340.28	-2072.78	  455.08
     28.7700	 4657.00	 4908.42	-2456.92	  454.89
     28.8700	 3713.00	 4070.33	-2562.83	  454.70
     28.9700	 3875.00	 3939.58	-2270.08	  454.52
     29.0700	 4602.00	 4229.92	-1833.42	  454.34
     29.1700	 4943.00	 4478.98	-1741.48	  454.17
     29.2700	 4531.00	 4259.36	-1933.86	  454.00
     29.3700	 3452.00	 3516.39	-2269.89	  453.83
     29.4700	 2427.00	 2618.95	-2397.45	  453.66
     29.5700	 1673.00	 1880.58	-2413.08	  453.50
     29.6700	 1261.00	 1389.87	-2334.37	  453.35
     29.7700	 1137.00	 1106.98	-2175.48	  453.20
     29.8700	  934.00	  954.95	-2226.45	  453.05
     29.9700	  877.00	  870.95	-2199.45	  452.90
     30.0700	  834.00	  819.25	-2190.75	  452.76
     30.1700	  804.00	  783.65	-2185.15	  452.62
     30.2700	  797.00	  757.54	-2166.04	  452.49
     30.3700	  702.00	  738.17	-2241.67	  452.36
     30.4700	  709.00	  724.49	-2220.99	  452.23
     30.5700	  730.00	  716.52	-2192.02	  452.11
     30.6700	  717.00	  715.23	-2203.73	  451.99
     30.7700	  717.00	  722.08	-2210.58	  451.87
     30.8700	  720.00	  737.97	-2223.47	  451.75
     30.9700	  776.00	  761.48	-2190.98	  451.64
     31.0700	  806.00	  787.25	-2186.75	  451.54
     31.1700	  788.00	  805.20	-2222.70	  451.43
     31.2700	  835.00	  802.87	-2173.37	  451.33
     31.3700	  761.00	  776.21	-2220.71	  451.24
     31.4700	  740.00	  737.37	-2202.87	  451.14
     31.5700	  745.00	  700.99	-2161.49	  451.05
     31.6700	  692.00	  673.52	-2187.02	  450.96
     31.7700	  711.00	  655.29	-2149.79	  450.88
     31.8700	  671.00	  644.05	-2178.55	  450.79
     31.9700	  663.00	  637.19	-2179.69	  450.72
     32.0700	  631.00	  632.75	-2207.25	  450.64
     32.1700	  651.00	  629.64	-2184.14	  450.57
     32.2700	  660.00	  627.33	-2172.83	  450.50
     32.3700	  694.00	  625.59	-2137.09	  450.43
     32.4700	  656.00	  624.31	-2173.81	  450.37
     32.5700	  629.00	  623.48	-2199.98	  450.30
     32.6700	  639.00	  623.01	-2189.51	  450.25
     32.7700	  647.00	  622.94	-2181.44	  450.19
     32.8700	  655.00	  623.31	-2173.81	  450.14
     32.9700	  615.00	  624.16	-2214.66	  450.09
     33.0700	  644.00	  625.61	-2187.11	  450.04
     33.1700	  625.00	  627.80	-2208.30	  449.99
     33.2700	  685.00	  631.02	-2151.52	  449.95
     33.3700	  702.00	  635.79	-2139.29	  449.91
     33.4700	  665.00	  643.13	-2183.63	  449.87
     33.5700	  680.00	  654.99	-2180.49	  449.84
     33.6700	  703.00	  674.80	-2177.30	  449.81
     33.7700	  692.00	  707.82	-2221.32	  449.78
     33.8700	  769.00	  760.62	-2197.12	  449.75
     33.9700	  901.00	  838.49	-2142.99	  449.73
     34.0700	  983.00	  940.53	-2163.03	  449.70
     34.1700	 1142.00	 1053.92	-2117.42	  449.68
     34.2700	 1292.00	 1150.69	-2064.19	  449.67
     34.3700	 1301.00	 1191.15	-2095.65	  449.65
     34.4700	 1225.00	 1148.00	-2128.50	  449.64
     34.5700	 1185.00	 1040.97	-2061.47	  449.63
     34.6700	  873.00	  918.88	-2251.38	  449.62
     34.7700	  808.00	  814.88	-2212.38	  449.61
     34.8700	  768.00	  739.53	-2177.03	  449.61
     34.9700	  726.00	  690.63	-2170.13	  449.61
     35.0700	  703.00	  661.11	-2163.61	  449.61
     35.1700	  658.00	  643.66	-2191.16	  449.61
     35.2700	  675.00	  632.97	-2163.47	  449.62
     35.3700	  599.00	  625.88	-2232.38	  449.62
     35.4700	  671.00	  620.79	-2155.29	  449.63
     35.5700	  614.00	  616.93	-2208.43	  449.64
     35.6700	  638.00	  613.90	-2181.40	  449.65
     35.7700	  607.00	  611.48	-2209.98	  449.67
     35.8700	  578.00	  609.58	-2237.08	  449.69
     35.9700	  604.00	  607.99	-2209.49	  449.70
     36.0700	  607.00	  606.70	-2205.20	  449.73
     36.1700	  616.00	  605.66	-2195.16	  449.75
     36.2700	  646.00	  604.83	-2164.33	  449.77
     36.3700	  601.00	  604.19	-2208.69	  449.80
     36.4700	  652.00	  603.71	-2157.21	  449.83
     36.5700	  647.00	  603.40	-2161.90	  449.86
     36.6700	  593.00	  603.45	-2215.95	  449.89
     36.7700	  638.00	  603.47	-2170.97	  449.92
     36.8700	  578.00	  603.67	-2231.17	  449.95
     36.9700	  583.00	  604.08	-2226.58	  449.99
     37.0700	  573.00	  604.76	-2237.26	  450.03
     37.1700	  596.00	  605.78	-2215.28	  450.07
     37.2700	  618.00	  607.83	-2195.33	  450.11
     37.3700	  629.00	  610.11	-2186.61	  450.15
     37.4700	  599.00	  613.56	-2220.06	  450.20
     37.5700	  597.00	  618.93	-2227.43	  450.24
     37.6700	  640.00	  627.31	-2192.81	  450.29
     37.7700	  672.00	  640.13	-2173.63	  450.34
     37.8700	  619.00	  658.90	-2245.40	  450.39
     37.9700	  711.00	  684.54	-2179.04	  450.44
     38.0700	  706.00	  714.21	-2213.71	  450.50
     38.1700	  741.00	  748.14	-2212.64	  450.55
     38.2700	  792.00	  777.09	-2190.59	  450.61
     38.3700	  733.00	  790.82	-2263.32	  450.66
     38.4700	  723.00	  781.24	-2263.74	  450.72
     38.5700	  709.00	  751.48	-2247.98	  450.78
     38.6700	  695.00	  714.02	-2224.52	  450.84
     38.7700	  648.00	  679.40	-2236.90	  450.91
     38.8700	  646.00	  652.24	-2211.74	  450.97
     38.9700	  615.00	  633.14	-2223.64	  451.04
     39.0700	  604.00	  620.74	-2222.24	  451.10
     39.1700	  592.00	  613.06	-2226.56	  451.17
     39.2700	  587.00	  608.32	-2226.82	  451.24
     39.3700	  582.00	  605.29	-2228.79	  451.31
     39.4700	  594.00	  603.22	-2214.72	  451.38
     39.5700	  599.00	  600.56	-2207.06	  451.45
     39.6700	  605.00	  599.43	-2199.93	  451.52
     39.7700	  635.00	  598.56	-2169.06	  451.60
     39.8700	  592.00	  597.87	-2211.37	  451.67
     39.9700	  579.00	  597.33	-2223.83	  451.75
     40.0700	  613.00	  596.91	-2189.41	  451.83
     40.1700	  619.00	  596.58	-2183.08	  451.90
     40.2700	  593.00	  596.33	-2208.83	  451.98
     40.3700	  607.00	  596.15	-2194.65	  452.06
     40.4700	  599.00	  596.02	-2202.52	  452.14
     40.5700	  634.00	  595.95	-2167.45	  452.23
     40.6700	  621.00	  596.47	-2180.97	  452.31
     40.7700	  599.00	  596.49	-2202.99	  452.39
     40.8700	  569.00	  596.56	-2233.06	  452.48
     40.9700	  589.00	  596.73	-2213.23	  452.56
     41.0700	  582.00	  596.89	-2220.39	  452.65
     41.1700	  606.00	  597.09	-2196.59	  452.73
     41.2700	  575.00	  597.34	-2227.84	  452.82
     41.3700	  570.00	  597.66	-2233.16	  452.91
     41.4700	  613.00	  598.03	-2190.53	  453.00
     41.5700	  651.00	  598.49	-2152.99	  453.09
     41.6700	  616.00	  599.05	-2188.55	  453.18
     41.7700	  618.00	  599.73	-2187.23	  453.27
     41.8700	  565.00	  600.58	-2241.08	  453.36
     41.9700	  602.00	  601.68	-2205.18	  453.45
     42.0700	  599.00	  603.18	-2209.68	  453.54
     42.1700	  561.00	  605.34	-2249.84	  453.64
     42.2700	  556.00	  608.62	-2258.12	  453.73
     42.3700	  619.00	  613.71	-2200.21	  453.83
     42.4700	  605.00	  621.45	-2221.95	  453.92
     42.5700	  622.00	  632.90	-2216.40	  454.02
     42.6700	  643.00	  648.56	-2211.06	  454.11
     42.7700	  657.00	  668.06	-2216.56	  454.21
     42.8700	  664.00	  689.30	-2230.80	  454.31
     42.9700	  679.00	  707.82	-2234.32	  454.40
     43.0700	  732.00	  717.46	-2190.96	  454.50
     43.1700	  661.00	  713.69	-2258.19	  454.60
     43.2700	  667.00	  698.07	-2236.57	  454.70
     43.3700	  679.00	  677.05	-2203.55	  454.80
     43.4700	  615.00	  656.47	-2246.97	  454.90
     43.5700	  592.00	  639.44	-2252.94	  455.00
     43.6700	  614.00	  626.74	-2218.24	  455.10
     43.7700	  581.00	  617.98	-2242.48	  455.20
     43.8700	  595.00	  612.33	-2222.83	  455.30
     43.9700	  633.00	  609.01	-2181.51	  455.40
     44.0700	  622.00	  606.83	-2190.33	  455.50
     44.1700	  577.00	  605.45	-2233.95	  455.60
     44.2700	  556.00	  604.52	-2254.02	  455.70
     44.3700	  561.00	  603.88	-2248.38	  455.80
     44.4700	  629.00	  603.43	-2179.93	  455.91
     44.5700	  603.00	  603.14	-2205.64	  456.01
     44.6700	  584.00	  602.93	-2224.43	  456.11
     44.7700	  601.00	  602.80	-2207.30	  456.21
     44.8700	  599.00	  602.74	-2209.24	  456.32
     44.9700	  601.00	  603.00	-2207.50	  456.42
     45.0700	  607.00	  603.05	-2201.55	  456.52
     45.1700	  618.00	  603.14	-2190.64	  456.63
     45.2700	  597.00	  603.27	-2211.77	  456.73
     45.3700	  635.00	  603.44	-2173.94	  456.83
     45.4700	  591.00	  603.64	-2218.14	  456.93
     45.5700	  606.00	  603.97	-2203.47	  457.04
     45.6700	  601.00	  604.23	-2208.73	  457.14
     45.7700	  626.00	  604.53	-2184.03	  457.24
     45.8700	  605.00	  604.86	-2205.36	  457.35
     45.9700	  613.00	  605.22	-2197.72	  457.45
     46.0700	  615.00	  605.62	-2196.12	  457.55
     46.1700	  604.00	  606.06	-2207.56	  457.66
     46.2700	  662.00	  606.53	-2150.03	  457.76
     46.3700	  629.00	  607.08	-2183.58	  457.86
     46.4700	  604.00	  607.43	-2208.93	  457.97
     46.5700	  618.00	  608.23	-2195.73	  458.07
     46.6700	  624.00	  608.94	-2190.44	  458.17
     46.7700	  618.00	  609.73	-2197.23	  458.27
     46.8700	  580.00	  610.62	-2236.12	  458.38
     46.9700	  638.00	  611.64	-2179.14	  458.48
     47.0700	  613.00	  612.82	-2205.32	  458.58
     47.1700	  614.00	  614.24	-2205.74	  458.68
     47.2700	  601.00	  616.03	-2220.53	  458.78
     47.3700	  639.00	  618.38	-2184.88	  458.89
     47.4700	  621.00	  621.65	-2206.15	  458.99
     47.5700	  673.00	  626.30	-2158.80	  459.09
     47.6700	  640.00	  632.92	-2198.42	  459.19
     47.7700	  639.00	  642.10	-2208.60	  459.29
     47.8700	  618.00	  654.20	-2241.70	  459.39
     47.9700	  684.00	  669.03	-2190.53	  459.49
     48.0700	  671.00	  685.51	-2220.01	  459.59
     48.1700	  650.00	  701.19	-2256.69	  459.69
     48.2700	  738.00	  712.33	-2179.83	  459.79
     48.3700	  694.00	  715.30	-2226.80	  459.89
     48.4700	  687.00	  709.93	-2228.43	  459.98
     48.5700	  677.00	  698.40	-2226.90	  460.08
     48.6700	  646.00	  685.39	-2244.89	  460.18
     48.7700	  654.00	  673.85	-2225.35	  460.28
     48.8700	  685.00	  665.27	-2185.77	  460.37
     48.9700	  661.00	  660.09	-2204.59	  460.47
     49.0700	  651.00	  658.18	-2212.68	  460.57
     49.1700	  661.00	  659.16	-2203.66	  460.66
     49.2700	  650.00	  662.67	-2218.17	  460.76
     49.3700	  676.00	  668.58	-2198.08	  460.85
     49.4700	  700.00	  677.22	-2182.72	  460.94
     49.5700	  629.00	  689.79	-2266.29	  461.04
     49.6700	  687.00	  709.40	-2227.90	  461.13
     49.7700	  732.00	  742.96	-2216.46	  461.22
     49.8700	  793.00	  804.04	-2216.54	  461.32
     49.9700	  935.00	  915.23	-2185.73	  461.41
     50.0700	 1169.00	 1107.04	-2143.54	  461.50
     50.1700	 1505.00	 1408.86	-2109.36	  461.59
     50.2700	 2002.00	 1831.19	-2034.69	  461.68
     50.3700	 2453.00	 2342.73	-2095.23	  461.77
     50.4700	 2944.00	 2853.64	-2115.14	  461.86
     50.5700	 3208.00	 3219.10	-2216.60	  461.95
     50.6700	 3182.00	 3292.94	-2316.44	  462.03
     50.7700	 2913.00	 3037.48	-2329.98	  462.12
     50.8700	 2471.00	 2566.58	-2301.08	  462.21
     50.9700	 1990.00	 2041.80	-2257.30	  462.29
     51.0700	 1453.00	 1580.44	-2332.94	  462.38
     51.1700	 1140.00	 1236.25	-2301.75	  462.46
     51.2700	  993.00	 1012.34	-2224.84	  462.55
     51.3700	  965.00	  883.19	-2123.69	  462.63
     51.4700	  804.00	  815.32	-2216.82	  462.72
     51.5700	  802.00	  780.48	-2183.98	  462.80
     51.6700	  774.00	  760.09	-2191.59	  462.88
     51.7700	  767.00	  744.81	-2183.31	  462.96
     51.8700	  700.00	  731.71	-2237.21	  463.04
     51.9700	  740.00	  720.98	-2186.48	  463.12
     52.0700	  786.00	  713.03	-2132.53	  463.20
     52.1700	  718.00	  707.68	-2195.18	  463.28
     52.2700	  729.00	  704.02	-2180.52	  463.35
     52.3700	  702.00	  700.67	-2204.17	  463.43
     52.4700	  690.00	  696.63	-2212.13	  463.50
     52.5700	  736.00	  692.12	-2161.62	  463.58
     52.6700	  681.00	  688.29	-2212.79	  463.65
     52.7700	  751.00	  686.42	-2140.92	  463.73
     52.8700	  688.00	  687.69	-2205.19	  463.80
     52.9700	  698.00	  693.36	-2200.85	  463.87
     53.0700	  745.00	  705.05	-2165.55	  463.94
     53.1700	  775.00	  724.98	-2155.48	  464.01
     53.2700	  784.00	  755.91	-2177.41	  464.08
     53.3700	  792.00	  800.79	-2214.29	  464.15
     53.4700	  848.00	  862.01	-2219.51	  464.22
     53.5700	  959.00	  939.72	-2186.22	  464.29
     53.6700	 1051.00	 1030.96	-2185.46	  464.35
     53.7700	 1140.00	 1127.32	-2192.82	  464.42
     53.8700	 1275.00	 1213.38	-2143.88	  464.48
     53.9700	 1261.00	 1267.80	-2212.30	  464.55
     54.0700	 1291.00	 1272.28	-2186.78	  464.61
     54.1700	 1287.00	 1224.95	-2143.45	  464.67
     54.2700	 1195.00	 1142.39	-2152.89	  464.73
     54.3700	 1048.00	 1046.72	-2204.22	  464.79
     54.4700	  951.00	  954.63	-2209.13	  464.85
     54.5700	  852.00	  875.40	-2228.90	  464.91
     54.6700	  779.00	  812.60	-2239.10	  464.97
     54.7700	  745.00	  766.15	-2226.65	  465.02
     54.8700	  718.00	  733.81	-2221.31	  465.08
     54.9700	  700.00	  712.44	-2217.94	  465.13
     55.0700	  657.00	  698.97	-2247.47	  465.19
     55.1700	  667.00	  690.86	-2229.36	  465.24
     55.2700	  666.00	  686.33	-2225.83	  465.29
     55.3700	  666.00	  684.23	-2223.73	  465.34
     55.4700	  647.00	  683.90	-2242.40	  465.39
     55.5700	  632.00	  685.02	-2258.52	  465.44
     55.6700	  664.00	  687.48	-2228.98	  465.49
     55.7700	  669.00	  691.29	-2227.79	  465.54
     55.8700	  697.00	  696.65	-2205.15	  465.58
     55.9700	  716.00	  703.90	-2193.40	  465.63
     56.0700	  698.00	  713.78	-2221.28	  465.67
     56.1700	  758.00	  727.63	-2175.13	  465.72
     56.2700	  681.00	  748.01	-2272.51	  465.76
     56.3700	  769.00	  779.35	-2215.85	  465.80
     56.4700	  825.00	  828.67	-2209.17	  465.84
     56.5700	  894.00	  906.10	-2217.60	  465.88
     56.6700	  991.00	 1024.06	-2238.56	  465.92
     56.7700	 1200.00	 1194.98	-2200.48	  465.95
     56.8700	 1387.00	 1426.83	-2245.33	  465.99
     56.9700	 1772.00	 1717.58	-2151.08	  466.02
     57.0700	 2077.00	 2049.15	-2177.65	  466.06
     57.1700	 2423.00	 2381.69	-2164.19	  466.09
     57.2700	 2616.00	 2651.55	-2241.05	  466.12
     57.3700	 2727.00	 2783.41	-2261.91	  466.15
     57.4700	 2761.00	 2730.56	-2175.06	  466.18
     57.5700	 2508.00	 2512.33	-2209.83	  466.21
     57.6700	 2132.00	 2198.57	-2272.07	  466.24
     57.7700	 1782.00	 1861.91	-2285.41	  466.27
     57.8700	 1520.00	 1552.80	-2238.30	  466.29
     57.9700	 1218.00	 1297.93	-2285.43	  466.32
     58.0700	 1077.00	 1105.57	-2234.07	  466.34
     58.1700	  971.00	  971.76	-2206.26	  466.36
     58.2700	  858.00	  886.20	-2233.70	  466.38
     58.3700	  784.00	  837.77	-2259.27	  466.40
     58.4700	  765.00	  817.82	-2258.32	  466.42
     58.5700	  788.00	  821.39	-2238.89	  466.44
     58.6700	  788.00	  846.68	-2264.18	  466.46
     58.7700	  880.00	  893.49	-2218.99	  466.48
     58.8700	  925.00	  960.81	-2241.31	  466.49
     58.9700	 1077.00	 1044.81	-2173.31	  466.50
     59.0700	 1181.00	 1137.30	-2161.80	  466.52
     59.1700	 1173.00	 1225.72	-2258.22	  466.53
     59.2700	 1265.00	 1297.12	-2237.62	  466.54
     59.3700	 1290.00	 1344.58	-2260.08	  466.55
     59.4700	 1367.00	 1367.62	-2206.12	  466.56
     59.5700	 1339.00	 1365.93	-2232.43	  466.56
     59.6700	 1320.00	 1339.64	-2225.14	  466.57
     59.7700	 1289.00	 1295.69	-2212.19	  466.57
     59.8700	 1245.00	 1248.56	-2209.06	  466.58
     59.9700	 1261.00	 1212.98	-2157.48	  466.58
     60.0700	 1314.00	 1199.04	-2090.54	  466.58
     60.1700	 1271.00	 1212.69	-2147.19	  466.58
     60.2700	 1326.00	 1257.47	-2136.97	  466.58
     60.3700	 1385.00	 1333.66	-2154.16	  466.58
     60.4700	 1493.00	 1434.61	-2147.11	  466.58
     60.5700	 1550.00	 1543.54	-2199.04	  466.57
     60.6700	 1654.00	 1633.50	-2185.00	  466.57
     60.7700	 1625.00	 1672.64	-2253.14	  466.56
     60.8700	 1586.00	 1639.51	-2259.01	  466.55
     60.9700	 1400.00	 1538.53	-2344.03	  466.54
     61.0700	 1289.00	 1395.98	-2312.48	  466.53
     61.1700	 1234.00	 1242.03	-2213.53	  466.52
     61.2700	 1062.00	 1099.63	-2243.13	  466.51
     61.3700	  939.00	  982.33	-2248.83	  466.50
     61.4700	  860.00	  895.68	-2241.18	  466.48
     61.5700	  832.00	  839.73	-2213.23	  466.46
     61.6700	  828.00	  811.92	-2189.42	  466.45
     61.7700	  837.00	  809.97	-2178.47	  466.43
     61.8700	  919.00	  833.61	-2120.11	  466.41
     61.9700	  875.00	  884.95	-2215.45	  466.39
     62.0700	 1004.00	  967.44	-2168.94	  466.37
     62.1700	 1161.00	 1083.54	-2128.04	  466.35
     62.2700	 1260.00	 1231.74	-2177.24	  466.32
     62.3700	 1415.00	 1403.79	-2194.29	  466.30
     62.4700	 1685.00	 1582.35	-2102.85	  466.27
     62.5700	 1687.00	 1739.87	-2258.37	  466.24
     62.6700	 1849.00	 1841.54	-2198.04	  466.22
     62.7700	 1759.00	 1857.69	-2304.19	  466.19
     62.8700	 1790.00	 1782.62	-2198.12	  466.15
     62.9700	 1625.00	 1639.14	-2219.64	  466.12
     63.0700	 1467.00	 1462.43	-2200.93	  466.09
     63.1700	 1241.00	 1283.34	-2247.84	  466.06
     63.2700	 1080.00	 1122.68	-2248.18	  466.02
     63.3700	 1006.00	  991.34	-2190.84	  465.98
     63.4700	  891.00	  892.33	-2206.83	  465.95
     63.5700	  876.00	  822.98	-2152.48	  465.91
     63.6700	  789.00	  777.76	-2194.26	  465.87
     63.7700	  792.00	  750.54	-2164.04	  465.82
     63.8700	  763.00	  736.05	-2178.55	  465.78
     63.9700	  738.00	  730.84	-2198.34	  465.74
     64.0700	  719.00	  733.21	-2219.71	  465.69
     64.1700	  736.00	  742.70	-2212.20	  465.65
     64.2700	  777.00	  761.86	-2190.36	  465.60
     64.3700	  858.00	  792.93	-2140.43	  465.55
     64.4700	  833.00	  839.40	-2211.90	  465.50
     64.5700	  921.00	  904.90	-2189.40	  465.45
     64.6700	 1006.00	  992.13	-2191.63	  465.40
     64.7700	 1142.00	 1101.55	-2165.05	  465.35
     64.8700	 1280.00	 1229.88	-2155.38	  465.29
     64.9700	 1468.00	 1368.56	-2106.06	  465.24
     65.0700	 1510.00	 1503.08	-2198.58	  465.18
     65.1700	 1571.00	 1614.25	-2248.75	  465.12
     65.2700	 1641.00	 1682.09	-2246.59	  465.07
     65.3700	 1616.00	 1692.19	-2281.69	  465.01
     65.4700	 1561.00	 1642.00	-2286.50	  464.95
     65.5700	 1519.00	 1543.20	-2229.70	  464.88
     65.6700	 1317.00	 1416.58	-2305.08	  464.82
     65.7700	 1207.00	 1282.82	-2281.32	  464.76
     65.8700	 1066.00	 1156.88	-2296.38	  464.69
     65.9700	  971.00	 1047.22	-2281.72	  464.62
     66.0700	  852.00	  957.02	-2310.52	  464.56
     66.1700	  788.00	  886.07	-2303.57	  464.49
     66.2700	  777.00	  832.40	-2260.90	  464.42
     66.3700	  754.00	  793.01	-2244.51	  464.35
     66.4700	  715.00	  764.85	-2255.35	  464.27
     66.5700	  731.00	  745.11	-2219.61	  464.20
     66.6700	  743.00	  731.55	-2194.05	  464.12
     66.7700	  693.00	  722.60	-2235.10	  464.05
     66.8700	  673.00	  717.26	-2249.76	  463.97
     66.9700	  664.00	  715.04	-2256.54	  463.89
     67.0700	  688.00	  715.54	-2233.04	  463.82
     67.1700	  715.00	  718.99	-2209.49	  463.73
     67.2700	  709.00	  725.99	-2222.49	  463.65
     67.3700	  715.00	  737.91	-2228.41	  463.57
     67.4700	  773.00	  756.74	-2189.24	  463.49
     67.5700	  830.00	  786.05	-2161.55	  463.40
     67.6700	  819.00	  830.64	-2217.14	  463.32
     67.7700	  934.00	  896.78	-2168.28	  463.23
     67.8700	 1007.00	  991.48	-2189.98	  463.14
     67.9700	 1116.00	 1121.34	-2210.84	  463.05
     68.0700	 1341.00	 1290.75	-2155.25	  462.96
     68.1700	 1551.00	 1499.74	-2154.24	  462.87
     68.2700	 1682.00	 1741.81	-2265.31	  462.78
     68.3700	 1982.00	 2001.85	-2225.35	  462.69
     68.4700	 2218.00	 2254.68	-2242.18	  462.59
     68.5700	 2521.00	 2464.98	-2149.48	  462.50
     68.6700	 2593.00	 2592.38	-2204.88	  462.40
     68.7700	 2577.00	 2606.04	-2234.54	  462.30
     68.8700	 2495.00	 2502.16	-2212.66	  462.20
     68.9700	 2274.00	 2306.69	-2238.19	  462.10
     69.0700	 2074.00	 2059.57	-2191.07	  462.00
     69.1700	 1800.00	 1798.09	-2203.59	  461.90
     69.2700	 1548.00	 1549.69	-2207.19	  461.80
     69.3700	 1309.00	 1331.70	-2228.20	  461.69
     69.4700	 1205.00	 1152.44	-2152.94	  461.59
     69.5700	 1071.00	 1013.20	-2147.70	  461.48
     69.6700	  997.00	  910.34	-2118.84	  461.37
     69.7700	  933.00	  837.52	-2110.02	  461.27
     69.8700	  846.00	  787.68	-2147.18	  461.16
     69.9700	  801.00	  754.30	-2158.80	  461.05
     70.0700	  765.00	  732.09	-2172.59	  460.94
     70.1700	  776.00	  717.21	-2146.71	  460.82
     70.2700	  734.00	  707.06	-2178.56	  460.71
     70.3700	  751.00	  700.00	-2154.50	  460.60
     70.4700	  765.00	  695.08	-2135.58	  460.48
     70.5700	  673.00	  691.74	-2224.24	  460.36
     70.6700	  687.00	  689.71	-2208.21	  460.25
     70.7700	  756.00	  688.86	-2138.36	  460.13
     70.8700	  714.00	  689.22	-2180.72	  460.01
     70.9700	  680.00	  690.92	-2216.42	  459.89
     71.0700	  679.00	  694.09	-2220.59	  459.77
     71.1700	  740.00	  699.76	-2165.26	  459.64
     71.2700	  709.00	  708.69	-2205.19	  459.52
     71.3700	  722.00	  722.42	-2205.92	  459.40
     71.4700	  792.00	  743.17	-2156.67	  459.27
     71.5700	  798.00	  773.95	-2181.46	  459.15
     71.6700	  871.00	  818.45	-2152.95	  459.02
     71.7700	  930.00	  880.76	-2156.26	  458.89
     71.8700	  968.00	  964.85	-2202.35	  458.76
     71.9700	 1100.00	 1073.55	-2179.05	  458.63
     72.0700	 1328.00	 1207.59	-2085.09	  458.50
     72.1700	 1278.00	 1364.42	-2291.92	  458.37
     72.2700	 1569.00	 1537.19	-2173.69	  458.24
     72.3700	 1671.00	 1713.96	-2248.46	  458.10
     72.4700	 1851.00	 1877.05	-2231.55	  457.97
     72.5700	 2017.00	 2003.90	-2192.40	  457.83
     72.6700	 2037.00	 2071.29	-2239.79	  457.70
     72.7700	 2020.00	 2064.37	-2249.87	  457.56
     72.8700	 1918.00	 1984.69	-2272.19	  457.42
     72.9700	 1767.00	 1849.32	-2287.82	  457.28
     73.0700	 1717.00	 1682.56	-2171.06	  457.14
     73.1700	 1528.00	 1504.89	-2182.39	  457.00
     73.2700	 1269.00	 1333.66	-2270.16	  456.86
     73.3700	 1147.00	 1179.74	-2238.24	  456.72
     73.4700	 1036.00	 1049.12	-2218.62	  456.57
     73.5700	  913.00	  943.61	-2236.11	  456.43
     73.6700	  870.00	  862.05	-2197.55	  456.28
     73.7700	  817.00	  801.38	-2189.88	  456.14
     73.8700	  778.00	  757.65	-2185.15	  455.99
     73.9700	  724.00	  726.91	-2208.41	  455.84
     74.0700	  723.00	  705.08	-2187.58	  455.69
     74.1700	  720.00	  690.51	-2176.01	  455.55
     74.2700	  703.00	  680.62	-2183.12	  455.40
     74.3700	  680.00	  674.05	-2199.55	  455.24
     74.4700	  659.00	  669.92	-2216.42	  455.09
     74.5700	  665.00	  667.69	-2208.19	  454.94
     74.6700	  654.00	  666.98	-2218.48	  454.79
     74.7700	  631.00	  667.52	-2242.02	  454.63
     74.8700	  685.00	  669.02	-2189.52	  454.48
     74.9700	  674.00	  671.08	-2202.58	  454.32
     75.0700	  739.00	  673.41	-2139.91	  454.17
     75.1700	  704.00	  675.45	-2176.95	  454.01
     75.2700	  707.00	  676.68	-2175.18	  453.85
     75.3700	  723.00	  676.71	-2159.21	  453.69
     75.4700	  752.00	  675.49	-2128.99	  453.53
     75.5700	  709.00	  673.38	-2169.88	  453.37
     75.6700	  745.00	  671.03	-2131.53	  453.21
     75.7700	  696.00	  669.26	-2178.76	  453.05
     75.8700	  729.00	  668.84	-2145.34	  452.89
     75.9700	  716.00	  670.84	-2160.34	  452.72
     76.0700	  657.00	  676.18	-2224.68	  452.56
     76.1700	  675.00	  685.89	-2216.39	  452.40
     76.2700	  690.00	  701.05	-2216.55	  452.23
     76.3700	  747.00	  722.65	-2181.15	  452.07
     76.4700	  744.00	  751.40	-2212.90	  451.90
     76.5700	  803.00	  787.56	-2190.06	  451.73
     76.6700	  819.00	  830.69	-2217.19	  451.56
     76.7700	  853.00	  879.46	-2231.96	  451.40
     76.8700	  878.00	  931.44	-2258.94	  451.23
     76.9700	  961.00	  982.92	-2227.42	  451.06
     77.0700	  995.00	 1028.93	-2239.43	  450.89
     77.1700	 1011.00	 1063.49	-2257.99	  450.72
     77.2700	 1008.00	 1080.90	-2278.40	  450.54
     77.3700	 1089.00	 1077.72	-2194.22	  450.37
     77.4700	  951.00	 1054.50	-2309.00	  450.20
     77.5700	 1040.00	 1015.43	-2180.93	  450.03
     77.6700	  985.00	  966.44	-2186.94	  449.85
     77.7700	  878.00	  913.11	-2240.61	  449.68
     77.8700	  798.00	  860.41	-2267.91	  449.50
     77.9700	  831.00	  811.48	-2185.98	  449.33
     78.0700	  781.00	  768.38	-2192.88	  449.15
     78.1700	  719.00	  732.11	-2218.61	  448.97
     78.2700	  711.00	  702.82	-2197.32	  448.80
     78.3700	  669.00	  680.03	-2216.53	  448.62
     78.4700	  705.00	  662.86	-2163.36	  448.44
     78.5700	  662.00	  650.29	-2193.79	  448.26
     78.6700	  651.00	  641.28	-2195.78	  448.08
     78.7700	  648.00	  634.92	-2192.42	  447.90
     78.8700	  639.00	  630.47	-2196.97	  447.72
     78.9700	  667.00	  627.31	-2165.81	  447.54
     79.0700	  616.00	  625.15	-2214.65	  447.36
     79.1700	  666.00	  623.68	-2163.18	  447.18
     79.2700	  627.00	  622.73	-2201.23	  446.99
     79.3700	  669.00	  622.21	-2158.71	  446.81
     79.4700	  643.00	  622.07	-2184.57	  446.63
     79.5700	  618.00	  622.32	-2209.82	  446.44
     79.6700	  599.00	  622.97	-2229.47	  446.26
     79.7700	  629.00	  624.09	-2200.59	  446.07
     79.8700	  592.00	  625.77	-2239.27	  445.89
     79.9700	  578.00	  628.17	-2255.67	  445.70
     80.0700	  605.00	  631.51	-2232.01	  445.52
     80.1700	  651.00	  636.18	-2190.68	  445.33
     80.2700	  679.00	  642.75	-2169.25	  445.14
     80.3700	  638.00	  652.03	-2219.53	  444.96
     80.4700	  637.00	  664.94	-2233.44	  444.77
     80.5700	  734.00	  683.48	-2154.98	  444.58
     80.6700	  719.00	  709.21	-2195.71	  444.39
     80.7700	  768.00	  744.14	-2181.64	  444.21
     80.8700	  856.00	  790.23	-2139.73	  444.02
     80.9700	  875.00	  849.05	-2179.55	  443.83
     81.0700	  969.00	  921.38	-2157.88	  443.64
     81.1700	 1021.00	 1006.71	-2191.21	  443.45
     81.2700	 1110.00	 1102.72	-2198.22	  443.26
     81.3700	 1295.00	 1205.04	-2115.54	  443.07
     81.4700	 1349.00	 1307.16	-2163.66	  442.88
     81.5700	 1397.00	 1400.80	-2209.30	  442.69
     81.6700	 1480.00	 1477.04	-2202.54	  442.49
     81.7700	 1580.00	 1528.24	-2153.74	  442.30
     81.8700	 1506.00	 1549.97	-2249.47	  442.11
     81.9700	 1535.00	 1541.56	-2212.06	  441.92
     82.0700	 1524.00	 1505.50	-2187.00	  441.73
     82.1700	 1353.00	 1446.68	-2299.18	  441.53
     82.2700	 1282.00	 1371.70	-2295.20	  441.34
     82.3700	 1250.00	 1287.79	-2243.29	  441.15
     82.4700	 1173.00	 1201.40	-2233.90	  440.96
     82.5700	 1092.00	 1117.62	-2231.12	  440.76
     82.6700	 1033.00	 1040.04	-2212.54	  440.57
     82.7700	 1002.00	  970.92	-2174.42	  440.37
     82.8700	  933.00	  911.17	-2183.67	  440.18
     82.9700	  848.00	  860.56	-2218.06	  439.99
     83.0700	  815.00	  818.06	-2208.56	  439.79
     83.1700	  776.00	  782.32	-2211.82	  439.60
     83.2700	  726.00	  752.19	-2231.69	  439.40
     83.3700	  678.00	  726.84	-2254.34	  439.21
     83.4700	  697.00	  705.78	-2214.28	  439.01
     83.5700	  636.00	  688.74	-2258.24	  438.82
     83.6700	  675.00	  675.55	-2206.05	  438.62
     83.7700	  665.00	  666.09	-2206.59	  438.43
     83.8700	  671.00	  660.24	-2194.74	  438.23
     83.9700	  648.00	  657.81	-2215.31	  438.04
     84.0700	  668.00	  658.49	-2195.99	  437.84
     84.1700	  612.00	  661.84	-2255.34	  437.65
     84.2700	  639.00	  667.25	-2233.75	  437.45
     84.3700	  644.00	  673.83	-2235.33	  437.26
     84.4700	  686.00	  680.96	-2200.46	  437.06
     84.5700	  680.00	  687.36	-2212.86	  436.87
     84.6700	  647.00	  692.17	-2250.67	  436.67
     84.7700	  663.00	  694.32	-2236.82	  436.48
     84.8700	  697.00	  693.23	-2201.73	  436.28
     84.9700	  682.00	  688.87	-2212.37	  436.09
     85.0700	  641.00	  681.73	-2246.23	  435.89
     85.1700	  655.00	  672.66	-2223.16	  435.70
     85.2700	  638.00	  662.58	-2230.08	  435.50
     85.3700	  693.00	  652.33	-2164.83	  435.31
     85.4700	  634.00	  642.62	-2214.12	  435.11
     85.5700	  656.00	  633.99	-2183.49	  434.92
     85.6700	  580.00	  626.82	-2252.32	  434.72
     85.7700	  565.00	  621.34	-2261.84	  434.53
     85.8700	  655.00	  617.69	-2168.19	  434.33
     85.9700	  679.00	  615.93	-2142.43	  434.14
     86.0700	  660.00	  616.04	-2161.54	  433.94
     86.1700	  624.00	  618.01	-2199.51	  433.75
     86.2700	  594.00	  621.78	-2233.28	  433.55
     86.3700	  606.00	  627.30	-2226.80	  433.36
     86.4700	  657.00	  634.44	-2182.94	  433.17
     86.5700	  601.00	  643.03	-2247.53	  432.97
     86.6700	  636.00	  652.84	-2222.34	  432.78
     86.7700	  635.00	  663.52	-2234.02	  432.59
     86.8700	  678.00	  674.67	-2202.17	  432.39
     86.9700	  665.00	  685.75	-2226.25	  432.20
     87.0700	  683.00	  696.20	-2218.70	  432.01
     87.1700	  707.00	  705.55	-2204.05	  431.82
     87.2700	  713.00	  713.51	-2206.01	  431.62
     87.3700	  684.00	  720.12	-2241.62	  431.43
     87.4700	  699.00	  725.76	-2232.26	  431.24
     87.5700	  723.00	  730.94	-2213.44	  431.05
     87.6700	  690.00	  736.13	-2251.63	  430.86
     87.7700	  728.00	  741.57	-2219.07	  430.67
     87.8700	  724.00	  747.23	-2228.73	  430.48
     87.9700	  772.00	  752.77	-2186.27	  430.29
     88.0700	  752.00	  757.53	-2211.03	  430.10
     88.1700	  725.00	  760.65	-2241.15	  429.91
     88.2700	  731.00	  761.21	-2235.71	  429.72
     88.3700	  766.00	  758.50	-2198.00	  429.53
     88.4700	  757.00	  752.29	-2200.79	  429.34
     88.5700	  782.00	  742.91	-2166.41	  429.15
     88.6700	  743.00	  731.10	-2193.60	  428.97
     88.7700	  695.00	  717.79	-2228.29	  428.78
     88.8700	  718.00	  703.46	-2190.96	  428.59
     88.9700	  665.00	  689.89	-2230.39	  428.41
     89.0700	  658.00	  677.32	-2224.82	  428.22
     89.1700	  688.00	  666.34	-2183.84	  428.03
     89.2700	  679.00	  657.32	-2183.82	  427.85
     89.3700	  627.00	  650.48	-2228.98	  427.66
     89.4700	  660.00	  645.87	-2191.37	  427.48
     89.5700	  670.00	  643.36	-2178.86	  427.30
     89.6700	  656.00	  642.70	-2192.20	  427.11
     89.7700	  628.00	  643.51	-2221.01	  426.93
     89.8700	  661.00	  645.29	-2189.79	  426.75
     89.9700	  736.00	  647.50	-2117.00	  426.57
     90.0700	  700.00	  649.55	-2155.05	  426.39
     90.1700	  738.00	  650.85	-2118.35	  426.21
     90.2700	  718.00	  650.93	-2138.43	  426.03
     90.3700	  705.00	  649.50	-2150.00	  425.85
     90.4700	  744.00	  646.55	-2108.05	  425.67
     90.5700	  656.00	  642.29	-2191.79	  425.49
     90.6700	  656.00	  637.08	-2186.58	  425.31
     90.7700	  653.00	  631.31	-2183.81	  425.13
     90.8700	  649.00	  625.37	-2181.87	  424.96
     90.9700	  621.00	  619.57	-2204.07	  424.78
     91.0700	  677.00	  614.17	-2142.67	  424.61
     91.1700	  614.00	  609.33	-2200.83	  424.43
     91.2700	  617.00	  605.18	-2193.68	  424.26
     91.3700	  588.00	  601.76	-2219.26	  424.08
     91.4700	  571.00	  599.06	-2233.56	  423.91
     91.5700	  575.00	  597.07	-2227.57	  423.74
     91.6700	  632.00	  595.71	-2169.21	  423.57
     91.7700	  611.00	  594.95	-2189.45	  423.40
     91.8700	  606.00	  594.72	-2194.22	  423.23
     91.9700	  585.00	  595.02	-2215.52	  423.06
     92.0700	  561.00	  595.84	-2240.34	  422.89
     92.1700	  623.00	  597.23	-2179.73	  422.72
     92.2700	  585.00	  599.27	-2219.77	  422.56
     92.3700	  613.00	  602.09	-2194.59	  422.39
     92.4700	  624.00	  605.85	-2187.35	  422.22
     92.5700	  571.00	  610.75	-2245.25	  422.06
     92.6700	  579.00	  617.02	-2243.52	  421.90
     92.7700	  645.00	  624.87	-2185.37	  421.73
     92.8700	  611.00	  634.54	-2229.04	  421.57
     92.9700	  638.00	  646.18	-2213.69	  421.41
     93.0700	  625.00	  659.93	-2240.43	  421.25
     93.1700	  624.00	  675.81	-2257.31	  421.09
     93.2700	  691.00	  693.72	-2208.22	  420.93
     93.3700	  683.00	  713.45	-2235.95	  420.77
     93.4700	  693.00	  734.62	-2247.12	  420.62
     93.5700	  694.00	  756.71	-2268.21	  420.46
     93.6700	  772.00	  779.04	-2212.54	  420.30
     93.7700	  796.00	  800.82	-2210.32	  420.15
     93.8700	  765.00	  821.20	-2261.70	  420.00
     93.9700	  805.00	  839.48	-2239.98	  419.84
     94.0700	  820.00	  855.29	-2240.79	  419.69
     94.1700	  841.00	  868.73	-2233.23	  419.54
     94.2700	  850.00	  880.34	-2235.84	  419.39
     94.3700	  918.00	  890.95	-2178.45	  419.24
     94.4700	  900.00	  901.06	-2206.56	  419.10
     94.5700	  943.00	  912.06	-2174.56	  418.95
     94.6700	  901.00	  924.07	-2228.57	  418.80
     94.7700	  942.00	  937.39	-2200.89	  418.66
     94.8700	  974.00	  952.17	-2183.67	  418.52
     94.9700	  936.00	  968.50	-2238.00	  418.37
     95.0700	 1028.00	  986.36	-2163.86	  418.23
     95.1700	  947.00	 1005.53	-2264.03	  418.09
     95.2700	 1025.00	 1025.42	-2205.92	  417.95
     95.3700	 1020.00	 1044.99	-2230.49	  417.81
     95.4700	 1080.00	 1062.71	-2188.21	  417.68
     95.5700	 1022.00	 1076.69	-2260.19	  417.54
     95.6700	 1049.00	 1084.92	-2241.42	  417.40
     95.7700	 1063.00	 1085.61	-2228.11	  417.27
     95.8700	 1051.00	 1077.64	-2232.14	  417.14
     95.9700	 1061.00	 1060.92	-2205.42	  417.01
     96.0700	 1048.00	 1036.41	-2193.91	  416.88
     96.1700	  995.00	 1005.92	-2216.42	  416.75
     96.2700	  932.00	  971.75	-2245.25	  416.62
     96.3700	  948.00	  936.33	-2193.83	  416.49
     96.4700	  911.00	  902.06	-2196.56	  416.37
     96.5700	  865.00	  871.11	-2211.61	  416.24
     96.6700	  840.00	  845.43	-2210.93	  416.12
     96.7700	  835.00	  826.65	-2197.15	  416.00
     96.8700	  860.00	  816.09	-2161.59	  415.88
     96.9700	  842.00	  814.79	-2178.29	  415.76
     97.0700	  856.00	  823.50	-2173.00	  415.64
     97.1700	  862.00	  842.74	-2186.24	  415.52
     97.2700	  886.00	  872.76	-2192.26	  415.41
     97.3700	  915.00	  913.54	-2204.04	  415.29
     97.4700	  978.00	  964.76	-2192.26	  415.18
     97.5700	 1097.00	 1025.73	-2134.23	  415.07
     97.6700	 1139.00	 1095.35	-2161.85	  414.96
     97.7700	 1184.00	 1171.96	-2193.46	  414.85
     97.8700	 1272.00	 1253.36	-2186.86	  414.74
     97.9700	 1311.00	 1336.70	-2231.20	  414.63
     98.0700	 1374.00	 1418.55	-2250.05	  414.53
     98.1700	 1549.00	 1494.86	-2151.36	  414.42
     98.2700	 1602.00	 1561.16	-2164.66	  414.32
     98.3700	 1603.00	 1612.93	-2215.43	  414.22
     98.4700	 1595.00	 1646.25	-2256.75	  414.12
     98.5700	 1630.00	 1658.52	-2234.02	  414.02
     98.6700	 1598.00	 1649.10	-2256.60	  413.93
     98.7700	 1562.00	 1619.37	-2262.87	  413.83
     98.8700	 1492.00	 1572.41	-2285.91	  413.74
     98.9700	 1475.00	 1512.29	-2242.79	  413.65
     99.0700	 1334.00	 1443.41	-2314.91	  413.55
     99.1700	 1367.00	 1370.05	-2208.55	  413.46
     99.2700	 1302.00	 1296.16	-2199.66	  413.38
     99.3700	 1211.00	 1225.19	-2219.69	  413.29
     99.4700	 1182.00	 1160.09	-2183.59	  413.21
     99.5700	 1078.00	 1103.28	-2230.78	  413.12
     99.6700	 1098.00	 1056.71	-2164.21	  413.04
     99.7700	 1043.00	 1021.94	-2184.44	  412.96
     99.8700	 1008.00	 1000.16	-2197.66	  412.88
     99.9700	 1021.00	  992.21	-2176.71	  412.81
    100.0700	 1064.00	  998.60	-2140.10	  412.73
    100.1700	  996.00	 1019.55	-2229.05	  412.66
    100.2700	 1080.00	 1054.95	-2180.45	  412.58
    100.3700	 1167.00	 1104.40	-2142.90	  412.51
    100.4700	 1181.00	 1167.11	-2191.61	  412.44
    100.5700	 1236.00	 1241.90	-2211.40	  412.38
    100.6700	 1368.00	 1327.20	-2164.70	  412.31
    100.7700	 1435.00	 1420.93	-2191.43	  412.25
    100.8700	 1496.00	 1520.49	-2229.99	  412.18
    100.9700	 1682.00	 1622.65	-2146.15	  412.12
    101.0700	 1697.00	 1724.06	-2232.56	  412.06
    101.1700	 1830.00	 1820.85	-2196.35	  412.01
    101.2700	 1861.00	 1909.25	-2253.75	  411.95
    101.3700	 1980.00	 1986.04	-2211.54	  411.90
    101.4700	 1991.00	 2048.82	-2263.32	  411.84
    101.5700	 2108.00	 2096.16	-2193.66	  411.79
    101.6700	 2168.00	 2127.39	-2164.89	  411.74
    101.7700	 2203.00	 2142.20	-2144.70	  411.70
    101.8700	 2203.00	 2140.48	-2142.98	  411.65
    101.9700	 2173.00	 2122.29	-2154.79	  411.61
    102.0700	 2062.00	 2088.17	-2231.67	  411.57
    102.1700	 2013.00	 2039.46	-2231.96	  411.53
    102.2700	 2042.00	 1978.53	-2142.03	  411.49
    102.3700	 1963.00	 1908.71	-2151.21	  411.45
    102.4700	 1867.00	 1833.84	-2172.34	  411.42
    102.5700	 1800.00	 1757.74	-2163.24	  411.39
    102.6700	 1708.00	 1683.80	-2181.30	  411.35
    102.7700	 1686.00	 1614.67	-2134.17	  411.33
    102.8700	 1605.00	 1552.24	-2152.74	  411.30
    102.9700	 1470.00	 1497.52	-2233.02	  411.27
    103.0700	 1452.00	 1450.76	-2204.26	  411.25
    103.1700	 1406.00	 1411.51	-2211.01	  411.23
    103.2700	 1393.00	 1378.73	-2191.23	  411.21
    103.3700	 1382.00	 1350.87	-2174.37	  411.19
    103.4700	 1287.00	 1325.98	-2244.48	  411.18
    103.5700	 1293.00	 1301.95	-2214.45	  411.16
    103.6700	 1298.00	 1276.74	-2184.24	  411.15
    103.7700	 1241.00	 1248.73	-2213.23	  411.14
    103.8700	 1189.00	 1216.90	-2233.40	  411.13
    103.9700	 1154.00	 1180.97	-2232.47	  411.13
    104.0700	 1156.00	 1141.32	-2190.82	  411.12
    104.1700	 1105.00	 1098.80	-2199.30	  411.12
    104.2700	 1055.00	 1054.48	-2204.98	  411.12
    104.3700	 1077.00	 1009.48	-2137.98	  411.12
    104.4700	 1057.00	  964.90	-2113.40	  411.13
    104.5700	  976.00	  921.67	-2151.17	  411.13
    104.6700	  914.00	  880.61	-2172.11	  411.14
    104.7700	  819.00	  842.34	-2228.84	  411.15
    104.8700	  843.00	  807.31	-2169.81	  411.16
    104.9700	  834.00	  775.74	-2147.24	  411.18
    105.0700	  802.00	  747.92	-2151.42	  411.19
    105.1700	  730.00	  723.75	-2199.25	  411.21
    105.2700	  768.00	  703.11	-2140.61	  411.23
    105.3700	  741.00	  685.78	-2150.28	  411.26
    105.4700	  680.00	  671.46	-2196.96	  411.28
    105.5700	  678.00	  659.85	-2187.35	  411.31
    105.6700	  650.00	  650.61	-2206.11	  411.34
    105.7700	  659.00	  643.39	-2189.89	  411.37
    105.8700	  649.00	  637.99	-2194.49	  411.40
    105.9700	  624.00	  634.12	-2215.62	  411.44
    106.0700	  623.00	  631.58	-2214.08	  411.47
    106.1700	  660.00	  630.22	-2175.72	  411.51
    106.2700	  642.00	  629.92	-2193.42	  411.56
    106.3700	  656.00	  630.63	-2180.13	  411.60
    106.4700	  604.00	  632.32	-2233.82	  411.65
    106.5700	  653.00	  634.99	-2187.49	  411.70
    106.6700	  627.00	  638.68	-2217.18	  411.75
    106.7700	  648.00	  643.45	-2200.95	  411.80
    106.8700	  660.00	  649.34	-2194.84	  411.86
    106.9700	  660.00	  656.43	-2201.93	  411.91
    107.0700	  662.00	  664.74	-2208.24	  411.97
    107.1700	  650.00	  674.32	-2229.82	  412.04
    107.2700	  677.00	  685.13	-2213.63	  412.10
    107.3700	  703.00	  697.11	-2199.61	  412.17
    107.4700	  759.00	  710.11	-2156.61	  412.24
    107.5700	  728.00	  723.96	-2201.46	  412.31
    107.6700	  740.00	  738.39	-2203.89	  412.38
    107.7700	  696.00	  753.08	-2262.58	  412.46
    107.8700	  723.00	  767.64	-2250.14	  412.54
    107.9700	  724.00	  781.64	-2263.14	  412.62
    108.0700	  738.00	  794.61	-2262.11	  412.70
    108.1700	  766.00	  806.06	-2245.56	  412.79
    108.2700	  760.00	  815.57	-2261.07	  412.88
    108.3700	  837.00	  822.82	-2191.32	  412.97
    108.4700	  779.00	  827.60	-2254.10	  413.06
    108.5700	  805.00	  830.03	-2230.53	  413.16
    108.6700	  777.00	  830.30	-2258.80	  413.25
    108.7700	  736.00	  828.84	-2298.34	  413.35
    108.8700	  770.00	  826.14	-2261.64	  413.46
    108.9700	  755.00	  822.74	-2273.24	  413.56
    109.0700	  798.00	  819.13	-2226.63	  413.67
    109.1700	  826.00	  815.74	-2195.24	  413.78
    109.2700	  729.00	  812.91	-2289.41	  413.89
    109.3700	  778.00	  810.85	-2238.35	  414.01
    109.4700	  751.00	  809.68	-2264.18	  414.12
    109.5700	  756.00	  809.36	-2258.86	  414.24
    109.6700	  767.00	  809.78	-2248.28	  414.37
    109.7700	  760.00	  810.68	-2256.18	  414.49
    109.8700	  776.00	  811.73	-2241.23	  414.62
    109.9700	  814.00	  812.51	-2204.01	  414.75
    110.0700	  767.00	  812.57	-2251.07	  414.88
    110.1700	  747.00	  811.47	-2269.97	  415.02
    110.2700	  839.00	  808.90	-2175.40	  415.16
    110.3700	  792.00	  804.62	-2218.12	  415.30
    110.4700	  741.00	  798.55	-2263.05	  415.44
    110.5700	  793.00	  790.79	-2203.29	  415.58
    110.6700	  733.00	  781.55	-2254.05	  415.73
    110.7700	  765.00	  771.13	-2211.63	  415.88
    110.8700	  689.00	  759.87	-2276.37	  416.04
    110.9700	  706.00	  748.12	-2247.62	  416.19
    111.0700	  723.00	  736.19	-2218.69	  416.35
    111.1700	  724.00	  724.40	-2205.90	  416.51
    111.2700	  706.00	  712.98	-2212.48	  416.68
    111.3700	  693.00	  702.17	-2214.67	  416.84
    111.4700	  701.00	  692.12	-2196.62	  417.01
    111.5700	  660.00	  682.98	-2228.48	  417.18
    111.6700	  667.00	  674.82	-2213.32	  417.36
    111.7700	  638.00	  667.72	-2235.22	  417.54
    111.8700	  626.00	  661.67	-2241.17	  417.72
    111.9700	  621.00	  656.68	-2241.18	  417.90
    112.0700	  633.00	  652.69	-2225.19	  418.08
    112.1700	  621.00	  649.65	-2234.15	  418.27
    112.2700	  668.00	  647.48	-2184.98	  418.46
    112.3700	  677.00	  646.09	-2174.59	  418.66
    112.4700	  646.00	  645.39	-2204.89	  418.85
    112.5700	  627.00	  645.29	-2223.79	  419.05
    112.6700	  635.00	  645.68	-2216.18	  419.25
    112.7700	  613.00	  646.47	-2238.97	  419.46
    112.8700	  630.00	  647.59	-2223.09	  419.67
    112.9700	  636.00	  648.95	-2218.45	  419.88
    113.0700	  621.00	  650.49	-2234.99	  420.09
    113.1700	  638.00	  652.17	-2219.67	  420.30
    113.2700	  584.00	  653.95	-2275.45	  420.52
    113.3700	  651.00	  655.83	-2210.33	  420.74
    113.4700	  637.00	  657.81	-2226.31	  420.97
    113.5700	  648.00	  659.92	-2217.42	  421.19
    113.6700	  700.00	  662.19	-2167.69	  421.42
    113.7700	  651.00	  664.67	-2219.17	  421.66
    113.8700	  580.00	  667.41	-2292.91	  421.89
    113.9700	  649.00	  670.51	-2227.01	  422.13
    114.0700	  663.00	  674.05	-2216.55	  422.37
    114.1700	  700.00	  678.14	-2183.64	  422.62
    114.2700	  648.00	  682.91	-2240.41	  422.86
    114.3700	  670.00	  688.57	-2224.07	  423.11
    114.4700	  673.00	  695.33	-2227.83	  423.37
    114.5700	  639.00	  703.50	-2270.00	  423.62
    114.6700	  719.00	  713.47	-2199.97	  423.88
    114.7700	  723.00	  725.73	-2208.23	  424.14
    114.8700	  722.00	  740.91	-2224.41	  424.41
    114.9700	  767.00	  759.80	-2198.30	  424.67
    115.0700	  772.00	  783.38	-2216.88	  424.94
    115.1700	  864.00	  812.85	-2154.35	  425.22
    115.2700	  902.00	  849.63	-2153.13	  425.49
    115.3700	  982.00	  895.43	-2118.93	  425.77
    115.4700	 1040.00	  952.19	-2117.69	  426.05
    115.5700	 1128.00	 1022.15	-2099.65	  426.34
    115.6700	 1181.00	 1107.79	-2132.29	  426.63
    115.7700	 1394.00	 1211.75	-2023.25	  426.92
    115.8700	 1567.00	 1336.82	-1975.32	  427.21
    115.9700	 1736.00	 1485.82	-1955.32	  427.51
    116.0700	 1794.00	 1661.46	-2072.96	  427.81
    116.1700	 2121.00	 1866.28	-1950.78	  428.11
    116.2700	 2345.00	 2102.30	-1962.80	  428.42
    116.3700	 2625.00	 2370.98	-1951.48	  428.73
    116.4700	 2979.00	 2672.91	-1899.41	  429.04
    116.5700	 3449.00	 3007.79	-1764.29	  429.36
    116.6700	 3542.00	 3374.16	-2037.66	  429.67
    116.7700	 3919.00	 3769.13	-2055.63	  429.99
    116.8700	 4260.00	 4188.46	-2133.96	  430.32
    116.9700	 4661.00	 4626.35	-2170.85	  430.65
    117.0700	 5045.00	 5075.74	-2236.24	  430.98
    117.1700	 5472.00	 5528.12	-2261.62	  431.31
    117.2700	 5883.00	 5973.60	-2296.10	  431.65
    117.3700	 6207.00	 6401.29	-2399.79	  431.99
    117.4700	 6612.00	 6799.43	-2392.93	  432.33
    117.5700	 7087.00	 7156.03	-2274.53	  432.68
    117.6700	 7132.00	 7459.22	-2532.72	  433.02
    117.7700	 7276.00	 7697.88	-2627.38	  433.38
    117.8700	 7557.00	 7862.67	-2511.17	  433.73
    117.9700	 7450.00	 7946.89	-2702.39	  434.09
    118.0700	 7640.00	 7947.18	-2512.68	  434.45
    118.1700	 7633.00	 7863.94	-2436.44	  434.82
    118.2700	 7537.00	 7701.28	-2369.78	  435.18
    118.3700	 7139.00	 7466.53	-2533.03	  435.56
    118.4700	 6892.00	 7169.45	-2482.95	  435.93
    118.5700	 6737.00	 6821.21	-2289.71	  436.31
    118.6700	 6181.00	 6433.61	-2458.11	  436.69
    118.7700	 5804.00	 6018.61	-2420.11	  437.07
    118.8700	 5646.00	 5587.55	-2147.05	  437.46
    118.9700	 5209.00	 5150.99	-2147.49	  437.85
    119.0700	 4891.00	 4718.19	-2032.69	  438.24
    119.1700	 4527.00	 4297.11	-1975.61	  438.64
    119.2700	 4163.00	 3894.43	-1936.93	  439.04
    119.3700	 3820.00	 3515.29	-1900.79	  439.44
    119.4700	 3515.00	 3163.45	-1853.95	  439.84
    119.5700	 2998.00	 2841.22	-2048.72	  440.25
    119.6700	 2836.00	 2549.68	-1919.18	  440.67
    119.7700	 2498.00	 2288.97	-1996.47	  441.08
    119.8700	 2329.00	 2058.31	-1934.81	  441.50
    119.9700	 2174.00	 1856.27	-1887.77	  441.92
    120.0700	 1948.00	 1680.87	-1938.37	  442.35
    120.1700	 1711.00	 1529.80	-2024.30	  442.78
    120.2700	 1662.00	 1400.64	-1944.14	  443.21
    120.3700	 1436.00	 1290.89	-2060.39	  443.64
    120.4700	 1327.00	 1198.10	-2076.60	  444.08
    120.5700	 1229.00	 1119.92	-2096.42	  444.52
    120.6700	 1234.00	 1054.20	-2025.70	  444.97
    120.7700	 1111.00	  999.02	-2093.52	  445.41
    120.8700	 1049.00	  952.69	-2109.19	  445.87
    120.9700	  978.00	  913.76	-2141.26	  446.32
    121.0700	  980.00	  880.99	-2106.49	  446.78
    121.1700	  959.00	  853.35	-2099.85	  447.24
    121.2700	  904.00	  830.01	-2131.51	  447.70
    121.3700	  854.00	  810.28	-2161.78	  448.17
    121.4700	  807.00	  793.62	-2192.12	  448.64
    121.5700	  788.00	  779.60	-2197.10	  449.12
    121.6700	  736.00	  767.85	-2237.35	  449.59
    121.7700	  781.00	  758.12	-2182.62	  450.08
    121.8700	  732.00	  750.18	-2223.68	  450.56
    121.9700	  708.00	  743.85	-2241.35	  451.05
    122.0700	  701.00	  739.01	-2243.51	  451.54
    122.1700	  700.00	  735.53	-2241.03	  452.03
    122.2700	  711.00	  733.33	-2227.83	  452.53
    122.3700	  708.00	  732.33	-2229.83	  453.03
    122.4700	  714.00	  732.46	-2223.96	  453.53
    122.5700	  688.00	  733.67	-2251.17	  454.04
    122.6700	  652.00	  735.89	-2289.39	  454.55
    122.7700	  700.00	  739.08	-2244.58	  455.07
    122.8700	  693.00	  743.17	-2255.67	  455.58
    122.9700	  697.00	  748.11	-2256.61	  456.11
    123.0700	  733.00	  753.83	-2226.33	  456.63
    123.1700	  684.00	  760.25	-2281.75	  457.16
    123.2700	  723.00	  767.30	-2249.80	  457.69
    123.3700	  702.00	  774.87	-2278.37	  458.22
    123.4700	  736.00	  782.87	-2252.36	  458.76
    123.5700	  734.00	  791.18	-2262.68	  459.30
    123.6700	  791.00	  799.68	-2214.18	  459.85
    123.7700	  771.00	  808.25	-2242.75	  460.39
    123.8700	  798.00	  816.76	-2224.26	  460.95
    123.9700	  802.00	  825.07	-2228.57	  461.50
    124.0700	  812.00	  833.05	-2226.55	  462.06
    124.1700	  837.00	  840.58	-2209.08	  462.62
    124.2700	  843.00	  847.55	-2210.05	  463.18
    124.3700	  801.00	  853.89	-2258.39	  463.75
    124.4700	  782.00	  859.56	-2283.06	  464.32
    124.5700	  847.00	  864.50	-2223.00	  464.90
    124.6700	  775.00	  868.80	-2299.30	  465.48
    124.7700	  859.00	  872.45	-2218.95	  466.06
    124.8700	  862.00	  875.53	-2219.03	  466.64
    124.9700	  845.00	  604.27	-1964.77	  467.23
    125.0700	  800.00	  604.87	-2205.50	  467.83
    125.1700	  839.00	  605.46	-2205.50	  468.42
    125.2700	  836.00	  606.06	-2205.50	  469.02
    125.3700	  850.00	  606.66	-2205.50	  469.62
    125.4700	  844.00	  607.27	-2205.50	  470.23
    125.5700	  820.00	  607.88	-2205.50	  470.84
    125.6700	  823.00	  608.49	-2205.50	  471.45
    125.7700	  854.00	  609.11	-2205.50	  472.07
    125.8700	  826.00	  609.72	-2205.50	  472.68
    125.9700	  805.00	  610.35	-2205.50	  473.31
    126.0700	  807.00	  610.97	-2205.50	  473.93
    126.1700	  803.00	  611.60	-2205.50	  474.56
    126.2700	  805.00	  612.24	-2205.50	  475.20
    126.3700	  789.00	  612.87	-2205.50	  475.83
    126.4700	  799.00	  613.51	-2205.50	  476.47
    126.5700	  753.00	  614.16	-2205.50	  477.12
    126.6700	  809.00	  614.80	-2205.50	  477.76
    126.7700	  748.00	  615.45	-2205.50	  478.41
    126.8700	  734.00	  616.11	-2205.50	  479.07
    126.9700	  743.00	  616.77	-2205.50	  479.73
    127.0700	  757.00	  617.43	-2205.50	  480.39
    127.1700	  746.00	  618.09	-2205.50	  481.05
    127.2700	  711.00	  618.76	-2205.50	  481.72
    127.3700	  727.00	  619.43	-2205.50	  482.39
    127.4700	  663.00	  620.10	-2205.50	  483.06
    127.5700	  707.00	  620.78	-2205.50	  483.74
    127.6700	  699.00	  621.46	-2205.50	  484.42
    127.7700	  650.00	  622.15	-2205.50	  485.11
    127.8700	  697.00	  622.84	-2205.50	  485.80
    127.9700	  614.00	  623.53	-2205.50	  486.49
    128.0700	  662.00	  624.22	-2205.50	  487.18
    128.1700	  647.00	  624.92	-2205.50	  487.88
    128.2700	  710.00	  625.62	-2205.50	  488.58
    128.3700	  676.00	  626.33	-2205.50	  489.29
    128.4700	  697.00	  627.04	-2205.50	  490.00
    128.5700	    0.00	  627.75	-2205.50	  490.71
    128.6700	    0.00	  628.47	-2205.50	  491.43
     12.4469	        	        	        	        	       0	(  0  0  2)	  0  1
     12.4469	        	        	        	        	    -551	(  0  0  2)	  0  1
     25.1323	        	        	        	        	       0	(  0  0  4)	  0  1
     25.1323	        	        	        	        	    -551	(  0  0  4)	  0  1
     28.5764	        	        	        	        	       0	(  1  0  0)	  0  1
     28.5764	        	        	        	        	    -551	(  1  0  0)	  0  1
     29.2801	        	        	        	        	       0	(  1  0  1)	  0  1
     29.2801	        	        	        	        	    -551	(  1  0  1)	  0  1
     31.3048	        	        	        	        	       0	(  1  0  2)	  0  1
     31.3048	        	        	        	        	    -551	(  1  0  2)	  0  1
     34.4418	        	        	        	        	       0	(  1  0  3)	  0  1
     34.4418	        	        	        	        	    -551	(  1  0  3)	  0  1
     38.1417	        	        	        	        	       0	(  0  0  6)	  0  1
     38.1417	        	        	        	        	    -551	(  0  0  6)	  0  1
     38.4557	        	        	        	        	       0	(  1  0  4)	  0  1
     38.4557	        	        	        	        	    -551	(  1  0  4)	  0  1
     43.1494	        	        	        	        	       0	(  1  0  5)	  0  1
     43.1494	        	        	        	        	    -551	(  1  0  5)	  0  1
     48.3832	        	        	        	        	       0	(  1  0  6)	  0  1
     48.3832	        	        	        	        	    -551	(  1  0  6)	  0  1
     50.6874	        	        	        	        	       0	(  1  1  0)	  0  1
     50.6874	        	        	        	        	    -551	(  1  1  0)	  0  1
     51.6874	        	        	        	        	       0	(  0  0  8)	  0  1
     51.6874	        	        	        	        	    -551	(  0  0  8)	  0  1
     52.4284	        	        	        	        	       0	(  1  1  2)	  0  1
     52.4284	        	        	        	        	    -551	(  1  1  2)	  0  1
     54.0696	        	        	        	        	       0	(  1  0  7)	  0  1
     54.0696	        	        	        	        	    -551	(  1  0  7)	  0  1
     57.4287	        	        	        	        	       0	(  1  1  4)	  0  1
     57.4287	        	        	        	        	    -551	(  1  1  4)	  0  1
     59.2600	        	        	        	        	       0	(  2  0  0)	  0  1
     59.2600	        	        	        	        	    -551	(  2  0  0)	  0  1
     59.6559	        	        	        	        	       0	(  2  0  1)	  0  1
     59.6559	        	        	        	        	    -551	(  2  0  1)	  0  1
     60.1626	        	        	        	        	       0	(  1  0  8)	  0  1
     60.1626	        	        	        	        	    -551	(  1  0  8)	  0  1
     60.8342	        	        	        	        	       0	(  2  0  2)	  0  1
     60.8342	        	        	        	        	    -551	(  2  0  2)	  0  1
     62.7690	        	        	        	        	       0	(  2  0  3)	  0  1
     62.7690	        	        	        	        	    -551	(  2  0  3)	  0  1
     65.2087	        	        	        	        	       0	(  1  1  6)	  0  1
     65.2087	        	        	        	        	    -551	(  1  1  6)	  0  1
     65.4232	        	        	        	        	       0	(  2  0  4)	  0  1
     65.4232	        	        	        	        	    -551	(  2  0  4)	  0  1
     66.0645	        	        	        	        	       0	(  0  0 10)	  0  1
     66.0645	        	        	        	        	    -551	(  0  0 10)	  0  1
     66.6496	        	        	        	        	       0	(  1  0  9)	  0  1
     66.6496	        	        	        	        	    -551	(  1  0  9)	  0  1
     68.7562	        	        	        	        	       0	(  2  0  5)	  0  1
     68.7562	        	        	        	        	    -551	(  2  0  5)	  0  1
     72.7315	        	        	        	        	       0	(  2  0  6)	  0  1
     72.7315	        	        	        	        	    -551	(  2  0  6)	  0  1
     73.5463	        	        	        	        	       0	(  1  0 10)	  0  1
     73.5463	        	        	        	        	    -551	(  1  0 10)	  0  1
     75.3674	        	        	        	        	       0	(  1  1  8)	  0  1
     75.3674	        	        	        	        	    -551	(  1  1  8)	  0  1
     77.3235	        	        	        	        	       0	(  2  0  7)	  0  1
     77.3235	        	        	        	        	    -551	(  2  0  7)	  0  1
     80.8979	        	        	        	        	       0	(  1  0 11)	  0  1
     80.8979	        	        	        	        	    -551	(  1  0 11)	  0  1
     81.7361	        	        	        	        	       0	(  2  1  0)	  0  1
     81.7361	        	        	        	        	    -551	(  2  1  0)	  0  1
     81.7361	        	        	        	        	       0	(  0  0 12)	  0  1
     81.7361	        	        	        	        	    -551	(  0  0 12)	  0  1
     82.0807	        	        	        	        	       0	(  2  1  1)	  0  1
     82.0807	        	        	        	        	    -551	(  2  1  1)	  0  1
     82.5234	        	        	        	        	       0	(  2  0  8)	  0  1
     82.5234	        	        	        	        	    -551	(  2  0  8)	  0  1
     83.1130	        	        	        	        	       0	(  2  1  2)	  0  1
     83.1130	        	        	        	        	    -551	(  2  1  2)	  0  1
     84.8287	        	        	        	        	       0	(  2  1  3)	  0  1
     84.8287	        	        	        	        	    -551	(  2  1  3)	  0  1
     87.2234	        	        	        	        	       0	(  2  1  4)	  0  1
     87.2234	        	        	        	        	    -551	(  2  1  4)	  0  1
     87.8090	        	        	        	        	       0	(  1  1 10)	  0  1
     87.8090	        	        	        	        	    -551	(  1  1 10)	  0  1
     88.3456	        	        	        	        	       0	(  2  0  9)	  0  1
     88.3456	        	        	        	        	    -551	(  2  0  9)	  0  1
     88.7845	        	        	        	        	       0	(  1  0 12)	  0  1
     88.7845	        	        	        	        	    -551	(  1  0 12)	  0  1
     90.2960	        	        	        	        	       0	(  2  1  5)	  0  1
     90.2960	        	        	        	        	    -551	(  2  1  5)	  0  1
     94.0537	        	        	        	        	       0	(  2  1  6)	  0  1
     94.0537	        	        	        	        	    -551	(  2  1  6)	  0  1
     94.8363	        	        	        	        	       0	(  2  0 10)	  0  1
     94.8363	        	        	        	        	    -551	(  2  0 10)	  0  1
     95.8157	        	        	        	        	       0	(  3  0  0)	  0  1
     95.8157	        	        	        	        	    -551	(  3  0  0)	  0  1
     96.1589	        	        	        	        	       0	(  3  0  1)	  0  1
     96.1589	        	        	        	        	    -551	(  3  0  1)	  0  1
     97.1899	        	        	        	        	       0	(  3  0  2)	  0  1
     97.1899	        	        	        	        	    -551	(  3  0  2)	  0  1
     97.3375	        	        	        	        	       0	(  1  0 13)	  0  1
     97.3375	        	        	        	        	    -551	(  1  0 13)	  0  1
     98.5191	        	        	        	        	       0	(  2  1  7)	  0  1
     98.5191	        	        	        	        	    -551	(  2  1  7)	  0  1
     98.9138	        	        	        	        	       0	(  3  0  3)	  0  1
     98.9138	        	        	        	        	    -551	(  3  0  3)	  0  1
     99.5562	        	        	        	        	       0	(  0  0 14)	  0  1
     99.5562	        	        	        	        	    -551	(  0  0 14)	  0  1
    101.3414	        	        	        	        	       0	(  3  0  4)	  0  1
    101.3414	        	        	        	        	    -551	(  3  0  4)	  0  1
    102.0886	        	        	        	        	       0	(  2  0 11)	  0  1
    102.0886	        	        	        	        	    -551	(  2  0 11)	  0  1
    102.9379	        	        	        	        	       0	(  1  1 12)	  0  1
    102.9379	        	        	        	        	    -551	(  1  1 12)	  0  1
    103.7399	        	        	        	        	       0	(  2  1  8)	  0  1
    103.7399	        	        	        	        	    -551	(  2  1  8)	  0  1
    104.4942	        	        	        	        	       0	(  3  0  5)	  0  1
    104.4942	        	        	        	        	    -551	(  3  0  5)	  0  1
    106.7737	        	        	        	        	       0	(  1  0 14)	  0  1
    106.7737	        	        	        	        	    -551	(  1  0 14)	  0  1
    108.4111	        	        	        	        	       0	(  3  0  6)	  0  1
    108.4111	        	        	        	        	    -551	(  3  0  6)	  0  1
    109.8051	        	        	        	        	       0	(  2  1  9)	  0  1
    109.8051	        	        	        	        	    -551	(  2  1  9)	  0  1
    110.2724	        	        	        	        	       0	(  2  0 12)	  0  1
    110.2724	        	        	        	        	    -551	(  2  0 12)	  0  1
    113.1608	        	        	        	        	       0	(  3  0  7)	  0  1
    113.1608	        	        	        	        	    -551	(  3  0  7)	  0  1
    116.8765	        	        	        	        	       0	(  2  1 10)	  0  1
    116.8765	        	        	        	        	    -551	(  2  1 10)	  0  1
    117.4799	        	        	        	        	       0	(  1  0 15)	  0  1
    117.4799	        	        	        	        	    -551	(  1  0 15)	  0  1
    117.9759	        	        	        	        	       0	(  2  2  0)	  0  1
    117.9759	        	        	        	        	    -551	(  2  2  0)	  0  1
    118.8636	        	        	        	        	       0	(  3  0  8)	  0  1
    118.8636	        	        	        	        	    -551	(  3  0  8)	  0  1
    119.5344	        	        	        	        	       0	(  2  2  2)	  0  1
    119.5344	        	        	        	        	    -551	(  2  2  2)	  0  1
    119.7029	        	        	        	        	       0	(  2  0 13)	  0  1
    119.7029	        	        	        	        	    -551	(  2  0 13)	  0  1
    121.5746	        	        	        	        	       0	(  0  0 16)	  0  1
    121.5746	        	        	        	        	    -551	(  0  0 16)	  0  1
    122.2645	        	        	        	        	       0	(  1  1 14)	  0  1
    122.2645	        	        	        	        	    -551	(  1  1 14)	  0  1
    124.3669	        	        	        	        	       0	(  2  2  4)	  0  1
    124.3669	        	        	        	        	    -551	(  2  2  4)	  0  1
    125.2587	        	        	        	        	       0	(  2  1 11)	  0  1
    125.2587	        	        	        	        	    -551	(  2  1 11)	  0  1
    125.7383	        	        	        	        	       0	(  3  0  9)	  0  1
    125.7383	        	        	        	        	    -551	(  3  0  9)	  0  1
    126.2813	        	        	        	        	       0	(  3  1  0)	  0  1
    126.2813	        	        	        	        	    -551	(  3  1  0)	  0  1
    126.7063	        	        	        	        	       0	(  3  1  1)	  0  1
    126.7063	        	        	        	        	    -551	(  3  1  1)	  0  1
    127.9957	        	        	        	        	       0	(  3  1  2)	  0  1
    127.9957	        	        	        	        	    -551	(  3  1  2)	  0  1
    130.1973	        	        	        	        	       0	(  3  1  3)	  0  1
    130.1973	        	        	        	        	    -551	(  3  1  3)	  0  1
    130.2614	        	        	        	        	       0	(  1  0 16)	  0  1
    130.2614	        	        	        	        	    -551	(  1  0 16)	  0  1
    131.0335	        	        	        	        	       0	(  2  0 14)	  0  1
    131.0335	        	        	        	        	    -551	(  2  0 14)	  0  1
    133.1386	        	        	        	        	       0	(  2  2  6)	  0  1
    133.1386	        	        	        	        	    -551	(  2  2  6)	  0  1
    133.4068	        	        	        	        	       0	(  3  1  4)	  0  1
    133.4068	        	        	        	        	    -551	(  3  1  4)	  0  1
    134.2188	        	        	        	        	       0	(  3  0 10)	  0  1
    134.2188	        	        	        	        	    -551	(  3  0 10)	  0  1
    135.5977	        	        	        	        	       0	(  2  1 12)	  0  1
    135.5977	        	        	        	        	    -551	(  2  1 12)	  0  1
    137.8051	        	        	        	        	       0	(  3  1  5)	  0  1
    137.8051	        	        	        	        	    -551	(  3  1  5)	  0  1
    143.7560	        	        	        	        	       0	(  3  1  6)	  0  1
    143.7560	        	        	        	        	    -551	(  3  1  6)	  0  1
    145.3569	        	        	        	        	       0	(  3  0 11)	  0  1
    145.3569	        	        	        	        	    -551	(  3  0 11)	  0  1
    146.0507	        	        	        	        	       0	(  2  0 15)	  0  1
    146.0507	        	        	        	        	    -551	(  2  0 15)	  0  1
    147.4774	        	        	        	        	       0	(  1  0 17)	  0  1
    147.4774	        	        	        	        	    -551	(  1  0 17)	  0  1
    148.3046	        	        	        	        	       0	(  2  2  8)	  0  1
    148.3046	        	        	        	        	    -551	(  2  2  8)	  0  1
    149.7290	        	        	        	        	       0	(  2  1 13)	  0  1
    149.7290	        	        	        	        	    -551	(  2  1 13)	  0  1
    152.1443	        	        	        	        	       0	(  3  1  7)	  0  1
    152.1443	        	        	        	        	    -551	(  3  1  7)	  0  1
    153.1015	        	        	        	        	       0	(  1  1 16)	  0  1
    153.1015	        	        	        	        	    -551	(  1  1 16)	  0  1
    158.3376	        	        	        	        	       0	(  0  0 18)	  0  1
    158.3376	        	        	        	        	    -551	(  0  0 18)	  0  1
    163.7684	        	        	        	        	       0	(  4  0  0)	  0  1
    163.7684	        	        	        	        	    -551	(  4  0  0)	  0  1
    163.7687	        	        	        	        	       0	(  3  0 12)	  0  1
    163.7687	        	        	        	        	    -551	(  3  0 12)	  0  1
    165.0449	        	        	        	        	       0	(  4  0  1)	  0  1
    165.0449	        	        	        	        	    -551	(  4  0  1)	  0  1
    166.8640	        	        	        	        	       0	(  3  1  8)	  0  1
    166.8640	        	        	        	        	    -551	(  3  1  8)	  0  1
    169.7750	        	        	        	        	       0	(  4  0  2)	  0  1
    169.7750	        	        	        	        	    -551	(  4  0  2)	  0  1
