MSG Master    CELL:    5.91927   5.91927  23.27706   90.0000   90.0000  120.0000   SPGR: P 63/m m c             TEMP:   1074.85
  1   1280     2.52000     0.00000    -0.13240     0.00000     0.00000    0
    99     0     2
       0.00000      10.00000
     125.00000     130.00000
 2Theta	Yobs	Ycal	Yobs-Ycal	Backg	Posr	(hkl)	K
      0.7700	    0.00	  580.91	-1727.52	  461.81
      0.8700	    0.00	  581.21	-1727.52	  462.11
      0.9700	   47.00	  581.49	-1727.52	  462.39
      1.0700	   42.00	  581.77	-1727.52	  462.67
      1.1700	   38.00	  582.04	-1727.52	  462.94
      1.2700	   34.00	  582.31	-1727.52	  463.21
      1.3700	   42.00	  582.56	-1727.52	  463.46
      1.4700	  109.00	  582.81	-1727.52	  463.71
      1.5700	  269.00	  583.05	-1727.52	  463.95
      1.6700	  473.00	  583.29	-1727.52	  464.19
      1.7700	  619.00	  583.52	-1727.52	  464.42
      1.8700	  657.00	  583.74	-1727.52	  464.64
      1.9700	  740.00	  583.95	-1727.52	  464.85
      2.0700	  785.00	  584.16	-1727.52	  465.06
      2.1700	  802.00	  584.36	-1727.52	  465.26
      2.2700	  758.00	  584.55	-1727.52	  465.45
      2.3700	  717.00	  584.74	-1727.52	  465.64
      2.4700	  699.00	  584.91	-1727.52	  465.82
      2.5700	  724.00	  585.09	-1727.52	  465.99
      2.6700	  627.00	  585.25	-1727.52	  466.15
      2.7700	  643.00	  585.41	-1727.52	  466.31
      2.8700	  639.00	  585.57	-1727.52	  466.47
      2.9700	  589.00	  585.71	-1727.52	  466.61
      3.0700	  645.00	  585.85	-1727.52	  466.75
      3.1700	  608.00	  585.99	-1727.52	  466.89
      3.2700	  620.00	  586.12	-1727.52	  467.02
      3.3700	  715.00	  586.24	-1727.52	  467.14
      3.4700	  773.00	  586.35	-1727.52	  467.25
      3.5700	  861.00	  586.46	-1727.52	  467.36
      3.6700	  880.00	  586.56	-1727.52	  467.47
      3.7700	  904.00	  586.66	-1727.52	  467.56
      3.8700	 1031.00	  586.75	-1727.52	  467.65
      3.9700	 1037.00	  586.84	-1727.52	  467.74
      4.0700	  979.00	  586.92	-1727.52	  467.82
      4.1700	 1051.00	  586.99	-1727.52	  467.89
      4.2700	 1144.00	  587.06	-1727.52	  467.96
      4.3700	 1149.00	  587.12	-1727.52	  468.02
      4.4700	 1077.00	  587.17	-1727.52	  468.08
      4.5700	 1039.00	  587.23	-1727.52	  468.13
      4.6700	  982.00	  587.27	-1727.52	  468.17
      4.7700	 1060.00	  587.31	-1727.52	  468.21
      4.8700	  940.00	  587.34	-1727.52	  468.24
      4.9700	  977.00	  587.37	-1727.52	  468.27
      5.0700	  968.00	  587.39	-1727.52	  468.29
      5.1700	  932.00	  587.41	-1727.52	  468.31
      5.2700	  944.00	  587.42	-1727.52	  468.32
      5.3700	  883.00	  587.43	-1727.52	  468.33
      5.4700	  874.00	  587.43	-1727.52	  468.33
      5.5700	  875.00	  587.43	-1727.52	  468.33
      5.6700	  817.00	  587.42	-1727.52	  468.32
      5.7700	  895.00	  587.41	-1727.52	  468.31
      5.8700	  846.00	  587.39	-1727.52	  468.29
      5.9700	  773.00	  587.36	-1727.52	  468.27
      6.0700	  808.00	  587.34	-1727.52	  468.24
      6.1700	  750.00	  587.30	-1727.52	  468.20
      6.2700	  838.00	  587.26	-1727.52	  468.17
      6.3700	  752.00	  587.22	-1727.52	  468.12
      6.4700	  741.00	  587.17	-1727.52	  468.07
      6.5700	  804.00	  587.12	-1727.52	  468.02
      6.6700	  743.00	  587.06	-1727.52	  467.96
      6.7700	  724.00	  587.00	-1727.52	  467.90
      6.8700	  672.00	  586.94	-1727.52	  467.84
      6.9700	  762.00	  586.86	-1727.52	  467.77
      7.0700	  692.00	  586.79	-1727.52	  467.69
      7.1700	  737.00	  586.71	-1727.52	  467.61
      7.2700	  703.00	  586.62	-1727.52	  467.53
      7.3700	  676.00	  586.54	-1727.52	  467.44
      7.4700	  683.00	  586.44	-1727.52	  467.34
      7.5700	  639.00	  586.35	-1727.52	  467.25
      7.6700	  690.00	  586.24	-1727.52	  467.15
      7.7700	  645.00	  586.14	-1727.52	  467.04
      7.8700	  652.00	  586.03	-1727.52	  466.93
      7.9700	  693.00	  585.92	-1727.52	  466.82
      8.0700	  582.00	  585.80	-1727.52	  466.70
      8.1700	  640.00	  585.68	-1727.52	  466.58
      8.2700	  632.00	  585.55	-1727.52	  466.45
      8.3700	  639.00	  585.42	-1727.52	  466.32
      8.4700	  674.00	  585.29	-1727.52	  466.19
      8.5700	  597.00	  585.15	-1727.52	  466.05
      8.6700	  616.00	  585.01	-1727.52	  465.91
      8.7700	  628.00	  584.86	-1727.52	  465.76
      8.8700	  632.00	  584.71	-1727.52	  465.62
      8.9700	  574.00	  584.56	-1727.52	  465.46
      9.0700	  615.00	  584.41	-1727.52	  465.31
      9.1700	  621.00	  584.25	-1727.52	  465.15
      9.2700	  613.00	  584.08	-1727.52	  464.98
      9.3700	  616.00	  583.92	-1727.52	  464.82
      9.4700	  607.00	  583.75	-1727.52	  464.65
      9.5700	  584.00	  583.57	-1727.52	  464.47
      9.6700	  625.00	  583.40	-1727.52	  464.30
      9.7700	  573.00	  583.21	-1727.52	  464.12
      9.8700	  588.00	  583.03	-1727.52	  463.93
      9.9700	  656.00	  582.84	-1727.52	  463.74
     10.0700	  591.00	  583.59	-1720.11	  463.55
     10.1700	  581.00	  583.50	-1730.02	  463.36
     10.2700	  619.00	  583.43	-1691.96	  463.16
     10.3700	  551.00	  583.40	-1759.93	  462.96
     10.4700	  594.00	  583.45	-1716.97	  462.76
     10.5700	  604.00	  583.63	-1707.15	  462.56
     10.6700	  622.00	  584.04	-1689.57	  462.35
     10.7700	  610.00	  584.82	-1702.34	  462.14
     10.8700	  563.00	  586.02	-1750.54	  461.92
     10.9700	  558.00	  587.62	-1757.15	  461.70
     11.0700	  609.00	  589.61	-1708.14	  461.48
     11.1700	  566.00	  591.98	-1753.51	  461.26
     11.2700	  623.00	  594.78	-1699.30	  461.03
     11.3700	  579.00	  598.08	-1746.61	  460.80
     11.4700	  593.00	  602.05	-1736.58	  460.57
     11.5700	  622.00	  606.92	-1712.45	  460.34
     11.6700	  603.00	  613.09	-1737.61	  460.10
     11.7700	  667.00	  621.22	-1681.75	  459.86
     11.8700	  657.00	  632.26	-1702.78	  459.62
     11.9700	  663.00	  646.58	-1711.11	  459.37
     12.0700	  688.00	  662.02	-1701.54	  459.13
     12.1700	  692.00	  671.79	-1707.32	  458.88
     12.2700	  691.00	  666.19	-1702.72	  458.62
     12.3700	  658.00	  643.71	-1713.24	  458.37
     12.4700	  618.00	  617.77	-1727.29	  458.11
     12.5700	  575.00	  598.95	-1751.48	  457.85
     12.6700	  626.00	  588.49	-1690.01	  457.59
     12.7700	  606.00	  583.49	-1705.02	  457.33
     12.8700	  558.00	  581.07	-1750.59	  457.06
     12.9700	  590.00	  579.65	-1717.18	  456.79
     13.0700	  563.00	  578.65	-1743.17	  456.52
     13.1700	  549.00	  577.85	-1756.37	  456.25
     13.2700	  581.00	  577.18	-1723.71	  455.97
     13.3700	  572.00	  576.60	-1732.13	  455.70
     13.4700	  575.00	  576.09	-1728.61	  455.42
     13.5700	  567.00	  575.61	-1736.14	  455.14
     13.6700	  552.00	  575.18	-1750.70	  454.85
     13.7700	  560.00	  574.77	-1742.29	  454.57
     13.8700	  555.00	  574.37	-1746.90	  454.28
     13.9700	  577.00	  573.99	-1724.52	  453.99
     14.0700	  584.00	  573.63	-1717.15	  453.70
     14.1700	  541.00	  573.27	-1759.80	  453.41
     14.2700	  550.00	  572.92	-1750.44	  453.12
     14.3700	  605.00	  572.58	-1695.10	  452.82
     14.4700	  596.00	  572.24	-1703.76	  452.52
     14.5700	  547.00	  571.90	-1752.42	  452.23
     14.6700	  604.00	  571.56	-1695.09	  451.92
     14.7700	  507.00	  571.23	-1791.76	  451.62
     14.8700	  613.00	  570.90	-1685.43	  451.32
     14.9700	  547.00	  570.57	-1751.10	  451.01
     15.0700	  613.00	  570.24	-1684.77	  450.70
     15.1700	  548.00	  569.91	-1749.44	  450.40
     15.2700	  567.00	  569.59	-1730.11	  450.09
     15.3700	  534.00	  569.26	-1762.78	  449.77
     15.4700	  566.00	  568.93	-1730.46	  449.46
     15.5700	  569.00	  568.60	-1727.13	  449.15
     15.6700	  574.00	  568.28	-1721.80	  448.83
     15.7700	  568.00	  567.95	-1727.47	  448.51
     15.8700	  579.00	  567.65	-1716.17	  448.20
     15.9700	  583.00	  567.32	-1711.84	  447.88
     16.0700	  589.00	  566.99	-1705.51	  447.56
     16.1700	  558.00	  566.66	-1736.18	  447.23
     16.2700	  525.00	  566.33	-1768.85	  446.91
     16.3700	  526.00	  566.00	-1767.52	  446.59
     16.4700	  549.00	  565.67	-1744.19	  446.26
     16.5700	  558.00	  565.33	-1734.86	  445.93
     16.6700	  569.00	  565.00	-1723.53	  445.60
     16.7700	  562.00	  564.67	-1730.19	  445.28
     16.8700	  550.00	  564.33	-1741.86	  444.95
     16.9700	  559.00	  564.00	-1732.52	  444.62
     17.0700	  566.00	  563.66	-1725.19	  444.28
     17.1700	  587.00	  563.33	-1703.85	  443.95
     17.2700	  606.00	  562.99	-1684.52	  443.62
     17.3700	  569.00	  562.65	-1721.18	  443.28
     17.4700	  578.00	  562.32	-1711.84	  442.95
     17.5700	  527.00	  561.98	-1762.50	  442.61
     17.6700	  573.00	  561.64	-1716.16	  442.27
     17.7700	  570.00	  561.30	-1718.82	  441.94
     17.8700	  568.00	  560.96	-1720.48	  441.60
     17.9700	  525.00	  560.62	-1763.14	  441.26
     18.0700	  589.00	  560.28	-1698.80	  440.92
     18.1700	  548.00	  560.04	-1739.56	  440.58
     18.2700	  576.00	  559.70	-1711.22	  440.23
     18.3700	  558.00	  559.36	-1728.88	  439.89
     18.4700	  571.00	  559.02	-1715.54	  439.55
     18.5700	  557.00	  558.67	-1729.20	  439.21
     18.6700	  553.00	  558.33	-1732.86	  438.86
     18.7700	  535.00	  557.99	-1750.52	  438.52
     18.8700	  554.00	  557.65	-1731.17	  438.17
     18.9700	  528.00	  557.40	-1756.92	  437.83
     19.0700	  544.00	  557.06	-1740.58	  437.48
     19.1700	  557.00	  556.71	-1727.24	  437.14
     19.2700	  536.00	  556.37	-1747.90	  436.79
     19.3700	  494.00	  556.03	-1789.56	  436.44
     19.4700	  546.00	  555.69	-1737.22	  436.09
     19.5700	  552.00	  555.35	-1730.88	  435.75
     19.6700	  539.00	  555.01	-1743.54	  435.40
     19.7700	  528.00	  554.67	-1754.19	  435.05
     19.8700	  522.00	  554.33	-1759.85	  434.70
     19.9700	  543.00	  553.99	-1738.51	  434.35
     20.0700	  579.00	  553.65	-1702.17	  434.00
     20.1700	  530.00	  553.31	-1750.83	  433.65
     20.2700	  529.00	  552.97	-1751.49	  433.30
     20.3700	  574.00	  552.63	-1706.16	  432.95
     20.4700	  545.00	  552.29	-1734.82	  432.60
     20.5700	  551.00	  551.96	-1728.48	  432.25
     20.6700	  563.00	  551.62	-1716.14	  431.90
     20.7700	  575.00	  551.28	-1703.81	  431.55
     20.8700	  512.00	  550.94	-1766.47	  431.20
     20.9700	  543.00	  550.61	-1735.14	  430.85
     21.0700	  550.00	  550.28	-1727.80	  430.50
     21.1700	  521.00	  549.95	-1756.47	  430.15
     21.2700	  516.00	  549.62	-1761.14	  429.80
     21.3700	  538.00	  549.29	-1738.81	  429.45
     21.4700	  544.00	  548.96	-1732.49	  429.10
     21.5700	  513.00	  548.64	-1763.16	  428.75
     21.6700	  548.00	  548.31	-1727.84	  428.40
     21.7700	  539.00	  547.99	-1736.51	  428.05
     21.8700	  558.00	  547.67	-1717.20	  427.70
     21.9700	  542.00	  547.35	-1732.88	  427.35
     22.0700	  567.00	  547.04	-1707.57	  427.00
     22.1700	  554.00	  546.73	-1720.26	  426.65
     22.2700	  534.00	  546.42	-1739.95	  426.30
     22.3700	  524.00	  546.12	-1749.65	  425.95
     22.4700	  564.00	  545.83	-1709.35	  425.60
     22.5700	  543.00	  545.54	-1730.06	  425.25
     22.6700	  557.00	  545.25	-1715.78	  424.91
     22.7700	  529.00	  544.98	-1743.50	  424.56
     22.8700	  570.00	  544.71	-1702.23	  424.21
     22.9700	  550.00	  544.46	-1721.98	  423.86
     23.0700	  534.00	  544.22	-1737.74	  423.52
     23.1700	  530.00	  544.00	-1741.52	  423.17
     23.2700	  531.00	  543.80	-1740.32	  422.82
     23.3700	  530.00	  543.63	-1741.15	  422.48
     23.4700	  506.00	  543.50	-1765.02	  422.13
     23.5700	  528.00	  543.42	-1742.95	  421.79
     23.6700	  515.00	  543.57	-1756.09	  421.44
     23.7700	  528.00	  543.71	-1743.23	  421.10
     23.8700	  561.00	  544.09	-1710.61	  420.76
     23.9700	  575.00	  544.95	-1697.48	  420.41
     24.0700	  554.00	  546.74	-1720.26	  420.07
     24.1700	  561.00	  550.11	-1716.63	  419.73
     24.2700	  579.00	  555.87	-1704.40	  419.39
     24.3700	  565.00	  564.94	-1727.47	  419.05
     24.4700	  588.00	  578.15	-1717.67	  418.71
     24.5700	  610.00	  595.31	-1712.83	  418.37
     24.6700	  637.00	  613.20	-1703.72	  418.03
     24.7700	  669.00	  624.18	-1682.71	  417.69
     24.8700	  657.00	  619.10	-1689.62	  417.36
     24.9700	  575.00	  598.56	-1751.08	  417.02
     25.0700	  573.00	  575.27	-1729.79	  416.68
     25.1700	  553.00	  558.11	-1732.64	  416.35
     25.2700	  559.00	  548.31	-1716.83	  416.01
     25.3700	  528.00	  543.54	-1743.06	  415.68
     25.4700	  570.00	  541.26	-1698.79	  415.35
     25.5700	  537.00	  540.01	-1730.54	  415.01
     25.6700	  545.00	  539.19	-1721.72	  414.68
     25.7700	  625.00	  538.59	-1641.11	  414.35
     25.8700	  545.00	  538.13	-1720.65	  414.02
     25.9700	  557.00	  537.78	-1708.30	  413.69
     26.0700	  567.00	  537.52	-1698.04	  413.36
     26.1700	  573.00	  537.33	-1691.86	  413.04
     26.2700	  528.00	  537.23	-1736.75	  412.71
     26.3700	  561.00	  537.20	-1703.73	  412.38
     26.4700	  561.00	  537.26	-1703.78	  412.06
     26.5700	  557.00	  537.41	-1707.94	  411.74
     26.6700	  572.00	  537.68	-1693.20	  411.41
     26.7700	  571.00	  538.08	-1694.61	  411.09
     26.8700	  557.00	  538.66	-1709.18	  410.77
     26.9700	  574.00	  539.45	-1692.98	  410.45
     27.0700	  521.00	  540.55	-1747.07	  410.13
     27.1700	  539.00	  542.07	-1730.60	  409.81
     27.2700	  576.00	  544.28	-1695.80	  409.49
     27.3700	  558.00	  547.68	-1717.20	  409.18
     27.4700	  569.00	  553.27	-1711.79	  408.86
     27.5700	  574.00	  562.85	-1716.37	  408.55
     27.6700	  566.00	  579.25	-1740.78	  408.24
     27.7700	  542.00	  606.11	-1791.63	  407.92
     27.8700	  584.00	  646.53	-1790.05	  407.61
     27.9700	  624.00	  700.50	-1804.03	  407.30
     28.0700	  825.00	  761.51	-1664.03	  407.00
     28.1700	  942.00	  813.62	-1599.14	  406.69
     28.2700	  908.00	  833.61	-1653.13	  406.38
     28.3700	  846.00	  809.75	-1691.28	  406.08
     28.4700	  851.00	  766.47	-1643.00	  405.77
     28.5700	  706.00	  739.26	-1760.79	  405.47
     28.6700	  702.00	  742.83	-1768.36	  405.17
     28.7700	  761.00	  770.69	-1737.22	  404.87
     28.8700	  760.00	  800.93	-1768.45	  404.57
     28.9700	  856.00	  803.93	-1675.45	  404.27
     29.0700	  766.00	  762.95	-1724.48	  403.97
     29.1700	  690.00	  696.86	-1734.38	  403.67
     29.2700	  656.00	  635.42	-1706.94	  403.38
     29.3700	  559.00	  591.84	-1760.37	  403.09
     29.4700	  558.00	  565.88	-1735.41	  402.79
     29.5700	  563.00	  552.00	-1716.52	  402.50
     29.6700	  613.00	  544.69	-1659.22	  402.21
     29.7700	  599.00	  540.54	-1669.07	  401.92
     29.8700	  566.00	  537.94	-1699.46	  401.64
     29.9700	  604.00	  536.28	-1659.81	  401.35
     30.0700	  537.00	  535.42	-1725.95	  401.07
     30.1700	  571.00	  535.53	-1692.06	  400.78
     30.2700	  575.00	  537.12	-1689.65	  400.50
     30.3700	  555.00	  541.21	-1713.74	  400.22
     30.4700	  537.00	  549.30	-1739.83	  399.94
     30.5700	  543.00	  562.89	-1747.41	  399.66
     30.6700	  565.00	  582.23	-1744.75	  399.39
     30.7700	  603.00	  604.68	-1729.20	  399.11
     30.8700	  590.00	  623.60	-1761.12	  398.84
     30.9700	  617.00	  629.13	-1739.65	  398.57
     31.0700	  572.00	  615.41	-1770.93	  398.29
     31.1700	  612.00	  589.85	-1705.37	  398.03
     31.2700	  620.00	  564.92	-1672.44	  397.76
     31.3700	  552.00	  546.76	-1722.28	  397.49
     31.4700	  567.00	  535.80	-1696.33	  397.22
     31.5700	  530.00	  529.96	-1727.49	  396.96
     31.6700	  544.00	  526.95	-1710.47	  396.70
     31.7700	  548.00	  525.28	-1704.81	  396.44
     31.8700	  520.00	  524.24	-1731.76	  396.18
     31.9700	  555.00	  523.53	-1696.05	  395.92
     32.0700	  554.00	  523.04	-1696.57	  395.66
     32.1700	  538.00	  522.74	-1712.26	  395.41
     32.2700	  546.00	  522.59	-1704.12	  395.15
     32.3700	  541.00	  522.61	-1709.13	  394.90
     32.4700	  525.00	  522.78	-1725.31	  394.65
     32.5700	  509.00	  523.14	-1741.67	  394.40
     32.6700	  546.00	  523.72	-1705.24	  394.15
     32.7700	  553.00	  524.56	-1699.09	  393.91
     32.8700	  550.00	  525.76	-1703.28	  393.66
     32.9700	  549.00	  527.44	-1705.96	  393.42
     33.0700	  532.00	  529.85	-1725.37	  393.18
     33.1700	  538.00	  533.54	-1723.06	  392.94
     33.2700	  525.00	  539.73	-1742.26	  392.70
     33.3700	  585.00	  551.04	-1693.57	  392.46
     33.4700	  562.00	  572.34	-1737.87	  392.22
     33.5700	  589.00	  611.13	-1749.66	  391.99
     33.6700	  621.00	  675.55	-1782.08	  391.76
     33.7700	  765.00	  768.26	-1730.79	  391.53
     33.8700	  922.00	  877.88	-1683.41	  391.30
     33.9700	 1023.00	  973.69	-1678.21	  391.07
     34.0700	 1089.00	 1010.77	-1649.30	  390.84
     34.1700	 1036.00	  959.52	-1651.05	  390.62
     34.2700	  869.00	  847.48	-1706.01	  390.40
     34.3700	  772.00	  730.60	-1686.12	  390.17
     34.4700	  635.00	  641.24	-1733.77	  389.95
     34.5700	  604.00	  585.25	-1708.77	  389.74
     34.6700	  536.00	  554.82	-1746.34	  389.52
     34.7700	  536.00	  539.39	-1730.91	  389.30
     34.8700	  486.00	  531.24	-1772.76	  389.09
     34.9700	  549.00	  526.33	-1704.86	  388.88
     35.0700	  522.00	  522.96	-1728.48	  388.67
     35.1700	  533.00	  520.40	-1714.92	  388.46
     35.2700	  485.00	  518.38	-1760.90	  388.25
     35.3700	  482.00	  516.74	-1762.27	  388.05
     35.4700	  536.00	  515.39	-1706.92	  387.84
     35.5700	  537.00	  514.25	-1704.78	  387.64
     35.6700	  545.00	  513.29	-1695.81	  387.44
     35.7700	  478.00	  512.45	-1761.97	  387.24
     35.8700	  535.00	  511.72	-1704.24	  387.05
     35.9700	  494.00	  511.07	-1744.59	  386.85
     36.0700	  547.00	  510.96	-1691.48	  386.66
     36.1700	  525.00	  510.45	-1712.97	  386.46
     36.2700	  498.00	  510.00	-1739.52	  386.27
     36.3700	  452.00	  509.59	-1785.12	  386.09
     36.4700	  516.00	  509.23	-1720.75	  385.90
     36.5700	  512.00	  508.91	-1724.44	  385.71
     36.6700	  532.00	  508.64	-1704.16	  385.53
     36.7700	  491.00	  508.42	-1744.95	  385.35
     36.8700	  504.00	  508.29	-1731.82	  385.17
     36.9700	  511.00	  508.33	-1724.85	  384.99
     37.0700	  516.00	  508.68	-1720.20	  384.81
     37.1700	  530.00	  509.63	-1707.15	  384.64
     37.2700	  480.00	  511.55	-1759.08	  384.46
     37.3700	  540.00	  514.75	-1702.28	  384.29
     37.4700	  549.00	  519.08	-1697.61	  384.12
     37.5700	  534.00	  523.61	-1717.13	  383.95
     37.6700	  526.00	  526.65	-1728.18	  383.79
     37.7700	  481.00	  526.51	-1773.03	  383.62
     37.8700	  517.00	  523.17	-1733.70	  383.46
     37.9700	  511.00	  518.50	-1735.03	  383.29
     38.0700	  517.00	  514.10	-1724.63	  383.14
     38.1700	  490.00	  510.61	-1748.13	  382.98
     38.2700	  529.00	  508.12	-1706.64	  382.82
     38.3700	  490.00	  506.47	-1744.00	  382.67
     38.4700	  528.00	  505.42	-1704.95	  382.51
     38.5700	  503.00	  504.75	-1729.27	  382.36
     38.6700	  542.00	  504.20	-1689.72	  382.21
     38.7700	  475.00	  503.86	-1756.39	  382.06
     38.8700	  507.00	  503.60	-1724.13	  381.92
     38.9700	  473.00	  503.38	-1757.90	  381.77
     39.0700	  532.00	  503.18	-1698.70	  381.63
     39.1700	  508.00	  502.91	-1722.44	  381.49
     39.2700	  510.00	  502.75	-1720.27	  381.35
     39.3700	  492.00	  502.74	-1738.26	  381.21
     39.4700	  500.00	  502.60	-1730.12	  381.07
     39.5700	  529.00	  502.47	-1700.99	  380.94
     39.6700	  499.00	  502.35	-1730.87	  380.81
     39.7700	  513.00	  502.24	-1716.76	  380.68
     39.8700	  532.00	  502.14	-1697.66	  380.55
     39.9700	  545.00	  502.05	-1684.57	  380.42
     40.0700	  584.00	  501.97	-1645.49	  380.29
     40.1700	  508.00	  501.90	-1721.42	  380.17
     40.2700	  497.00	  501.84	-1732.36	  380.05
     40.3700	  484.00	  501.79	-1745.31	  379.93
     40.4700	  504.00	  501.75	-1725.28	  379.81
     40.5700	  464.00	  501.73	-1765.26	  379.69
     40.6700	  501.00	  501.73	-1728.26	  379.57
     40.7700	  491.00	  501.75	-1738.27	  379.46
     40.8700	  508.00	  501.79	-1721.31	  379.35
     40.9700	  480.00	  501.86	-1749.38	  379.24
     41.0700	  497.00	  501.96	-1732.48	  379.13
     41.1700	  474.00	  502.10	-1755.63	  379.02
     41.2700	  485.00	  502.26	-1744.79	  378.92
     41.3700	  511.00	  502.53	-1719.05	  378.81
     41.4700	  480.00	  503.31	-1750.84	  378.71
     41.5700	  476.00	  503.79	-1755.31	  378.61
     41.6700	  512.00	  504.45	-1719.98	  378.51
     41.7700	  506.00	  505.45	-1726.97	  378.42
     41.8700	  489.00	  507.12	-1745.64	  378.32
     41.9700	  467.00	  510.18	-1770.71	  378.23
     42.0700	  520.00	  516.00	-1723.52	  378.14
     42.1700	  501.00	  526.61	-1753.13	  378.04
     42.2700	  505.00	  544.22	-1766.74	  377.96
     42.3700	  546.00	  569.80	-1751.33	  377.87
     42.4700	  577.00	  601.08	-1751.60	  377.78
     42.5700	  580.00	  630.78	-1778.31	  377.70
     42.6700	  626.00	  647.90	-1749.42	  377.62
     42.7700	  575.00	  643.20	-1795.73	  377.54
     42.8700	  567.00	  618.72	-1779.25	  377.46
     42.9700	  573.00	  586.17	-1740.69	  377.38
     43.0700	  533.00	  556.30	-1750.82	  377.31
     43.1700	  519.00	  534.09	-1742.62	  377.24
     43.2700	  506.00	  520.01	-1741.53	  377.16
     43.3700	  481.00	  512.10	-1758.62	  377.09
     43.4700	  479.00	  507.96	-1756.48	  377.03
     43.5700	  536.00	  505.78	-1697.31	  376.96
     43.6700	  534.00	  504.53	-1698.06	  376.89
     43.7700	  490.00	  503.90	-1741.42	  376.83
     43.8700	  489.00	  503.36	-1741.88	  376.77
     43.9700	  502.00	  502.92	-1728.45	  376.71
     44.0700	  521.00	  502.59	-1709.11	  376.65
     44.1700	  503.00	  502.33	-1726.86	  376.59
     44.2700	  522.00	  502.14	-1707.67	  376.54
     44.3700	  464.00	  502.00	-1765.52	  376.48
     44.4700	  492.00	  501.90	-1737.42	  376.43
     44.5700	  510.00	  501.84	-1719.36	  376.38
     44.6700	  521.00	  501.80	-1708.33	  376.33
     44.7700	  512.00	  501.66	-1717.19	  376.28
     44.8700	  465.00	  501.69	-1764.21	  376.24
     44.9700	  526.00	  501.73	-1703.26	  376.19
     45.0700	  514.00	  501.80	-1715.33	  376.15
     45.1700	  530.00	  502.07	-1699.59	  376.11
     45.2700	  468.00	  502.18	-1761.71	  376.07
     45.3700	  490.00	  502.32	-1739.84	  376.03
     45.4700	  499.00	  502.48	-1731.00	  376.00
     45.5700	  508.00	  502.66	-1722.18	  375.96
     45.6700	  488.00	  502.86	-1742.39	  375.93
     45.7700	  522.00	  503.10	-1708.62	  375.90
     45.8700	  535.00	  503.36	-1695.88	  375.87
     45.9700	  503.00	  503.65	-1728.18	  375.84
     46.0700	  493.00	  503.98	-1738.50	  375.81
     46.1700	  471.00	  504.35	-1760.87	  375.79
     46.2700	  540.00	  504.76	-1692.28	  375.77
     46.3700	  528.00	  505.22	-1704.75	  375.74
     46.4700	  537.00	  505.75	-1696.27	  375.72
     46.5700	  489.00	  506.35	-1744.87	  375.70
     46.6700	  510.00	  507.04	-1724.56	  375.69
     46.7700	  544.00	  507.85	-1691.38	  375.67
     46.8700	  538.00	  508.86	-1698.38	  375.66
     46.9700	  519.00	  510.19	-1718.72	  375.64
     47.0700	  514.00	  512.17	-1725.70	  375.63
     47.1700	  502.00	  515.45	-1740.97	  375.62
     47.2700	  514.00	  520.79	-1734.32	  375.61
     47.3700	  530.00	  529.47	-1726.99	  375.61
     47.4700	  559.00	  542.43	-1710.96	  375.60
     47.5700	  543.00	  559.64	-1744.17	  375.60
     47.6700	  543.00	  579.15	-1763.67	  375.59
     47.7700	  576.00	  596.64	-1748.16	  375.59
     47.8700	  580.00	  606.25	-1753.78	  375.59
     47.9700	  559.00	  603.98	-1772.51	  375.60
     48.0700	  578.00	  591.60	-1741.12	  375.60
     48.1700	  546.00	  575.13	-1756.65	  375.60
     48.2700	  566.00	  559.89	-1721.41	  375.61
     48.3700	  521.00	  548.81	-1755.34	  375.62
     48.4700	  494.00	  542.60	-1776.13	  375.63
     48.5700	  510.00	  540.63	-1758.16	  375.64
     48.6700	  594.00	  541.83	-1675.36	  375.65
     48.7700	  515.00	  545.33	-1757.85	  375.66
     48.8700	  518.00	  550.68	-1760.20	  375.68
     48.9700	  571.00	  557.96	-1714.48	  375.69
     49.0700	  567.00	  567.86	-1728.38	  375.71
     49.1700	  568.00	  582.04	-1741.56	  375.73
     49.2700	  615.00	  604.05	-1716.58	  375.75
     49.3700	  638.00	  640.69	-1730.22	  375.77
     49.4700	  699.00	  703.80	-1732.32	  375.79
     49.5700	  665.00	  809.18	-1871.70	  375.82
     49.6700	  933.00	  975.79	-1770.32	  375.84
     49.7700	 1184.00	 1217.13	-1760.66	  375.87
     49.8700	 1504.00	 1530.25	-1753.78	  375.90
     49.9700	 1887.00	 1883.82	-1724.35	  375.93
     50.0700	 2202.00	 2209.15	-1734.68	  375.96
     50.1700	 2567.00	 2407.25	-1567.78	  375.99
     50.2700	 2507.00	 2394.76	-1615.28	  376.03
     50.3700	 2297.00	 2175.54	-1606.06	  376.06
     50.4700	 1783.00	 1840.63	-1785.15	  376.10
     50.5700	 1468.00	 1491.25	-1750.77	  376.14
     50.6700	  994.00	 1192.14	-1925.66	  376.17
     50.7700	  813.00	  970.03	-1884.55	  376.21
     50.8700	  696.00	  823.91	-1855.44	  376.26
     50.9700	  693.00	  736.89	-1771.41	  376.30
     51.0700	  642.00	  687.20	-1772.73	  376.34
     51.1700	  641.00	  655.96	-1742.49	  376.39
     51.2700	  593.00	  631.54	-1766.06	  376.43
     51.3700	  530.00	  609.81	-1807.33	  376.48
     51.4700	  575.00	  590.72	-1743.25	  376.53
     51.5700	  597.00	  575.06	-1705.59	  376.58
     51.6700	  578.00	  563.19	-1712.72	  376.63
     51.7700	  567.00	  554.84	-1715.36	  376.68
     51.8700	  610.00	  549.32	-1666.84	  376.74
     51.9700	  551.00	  545.87	-1722.40	  376.79
     52.0700	  538.00	  543.90	-1733.43	  376.85
     52.1700	  558.00	  543.28	-1712.81	  376.91
     52.2700	  531.00	  543.44	-1739.96	  376.97
     52.3700	  554.00	  544.73	-1718.26	  377.02
     52.4700	  566.00	  547.69	-1709.22	  377.09
     52.5700	  550.00	  553.57	-1731.09	  377.15
     52.6700	  582.00	  564.87	-1710.40	  377.21
     52.7700	  637.00	  586.01	-1676.53	  377.28
     52.8700	  643.00	  623.40	-1707.93	  377.34
     52.9700	  701.00	  684.47	-1711.00	  377.41
     53.0700	  853.00	  774.70	-1649.22	  377.47
     53.1700	  904.00	  893.15	-1716.67	  377.54
     53.2700	 1082.00	 1028.02	-1673.54	  377.61
     53.3700	 1167.00	 1153.95	-1714.47	  377.68
     53.4700	 1272.00	 1234.93	-1690.45	  377.76
     53.5700	 1207.00	 1239.44	-1759.97	  377.83
     53.6700	 1105.00	 1164.98	-1787.51	  377.90
     53.7700	  976.00	 1041.26	-1792.78	  377.98
     53.8700	  867.00	  905.70	-1766.22	  378.05
     53.9700	  703.00	  785.11	-1809.63	  378.13
     54.0700	  717.00	  692.46	-1702.98	  378.21
     54.1700	  695.00	  629.43	-1661.96	  378.29
     54.2700	  560.00	  590.82	-1758.35	  378.37
     54.3700	  611.00	  569.15	-1685.67	  378.45
     54.4700	  575.00	  557.74	-1710.27	  378.53
     54.5700	  572.00	  552.00	-1707.52	  378.62
     54.6700	  542.00	  549.22	-1734.75	  378.70
     54.7700	  576.00	  548.16	-1699.68	  378.78
     54.8700	  564.00	  548.16	-1711.69	  378.87
     54.9700	  539.00	  549.02	-1737.54	  378.96
     55.0700	  579.00	  550.63	-1699.16	  379.05
     55.1700	  575.00	  553.05	-1705.58	  379.14
     55.2700	  535.00	  556.29	-1748.81	  379.22
     55.3700	  578.00	  560.50	-1710.02	  379.32
     55.4700	  545.00	  565.91	-1748.43	  379.41
     55.5700	  547.00	  572.95	-1753.48	  379.50
     55.6700	  615.00	  582.51	-1695.03	  379.59
     55.7700	  609.00	  596.38	-1714.90	  379.69
     55.8700	  601.00	  618.11	-1744.64	  379.78
     55.9700	  601.00	  654.33	-1780.86	  379.88
     56.0700	  684.00	  715.88	-1759.41	  379.98
     56.1700	  747.00	  818.18	-1798.70	  380.07
     56.2700	  874.00	  979.14	-1832.66	  380.17
     56.3700	 1136.00	 1213.55	-1805.07	  380.27
     56.4700	 1473.00	 1524.47	-1779.00	  380.37
     56.5700	 1836.00	 1893.35	-1784.87	  380.47
     56.6700	 2232.00	 2272.75	-1768.28	  380.58
     56.7700	 2467.00	 2584.84	-1845.37	  380.68
     56.8700	 2675.00	 2737.55	-1790.07	  380.78
     56.9700	 2556.00	 2673.50	-1845.03	  380.89
     57.0700	 2366.00	 2417.48	-1779.01	  380.99
     57.1700	 2052.00	 2055.73	-1731.26	  381.10
     57.2700	 1694.00	 1676.77	-1710.29	  381.20
     57.3700	 1289.00	 1341.12	-1779.65	  381.31
     57.4700	 1006.00	 1078.32	-1799.84	  381.42
     57.5700	  908.00	  893.22	-1712.74	  381.53
     57.6700	  810.00	  774.92	-1692.45	  381.64
     57.7700	  688.00	  706.61	-1746.14	  381.75
     57.8700	  729.00	  672.68	-1671.20	  381.86
     57.9700	  694.00	  662.25	-1695.77	  381.97
     58.0700	  731.00	  669.61	-1666.14	  382.08
     58.1700	  727.00	  692.88	-1693.40	  382.20
     58.2700	  772.00	  732.08	-1687.61	  382.31
     58.3700	  817.00	  787.33	-1697.85	  382.42
     58.4700	  893.00	  857.14	-1691.67	  382.54
     58.5700	 1062.00	  937.04	-1602.56	  382.65
     58.6700	 1181.00	 1019.06	-1565.59	  382.77
     58.7700	 1333.00	 1094.24	-1488.76	  382.89
     58.8700	 1363.00	 1156.59	-1521.11	  383.00
     58.9700	 1430.00	 1202.77	-1500.30	  383.12
     59.0700	 1442.00	 1228.04	-1513.57	  383.24
     59.1700	 1478.00	 1228.41	-1477.94	  383.36
     59.2700	 1410.00	 1207.83	-1525.35	  383.48
     59.3700	 1390.00	 1178.00	-1515.52	  383.60
     59.4700	 1236.00	 1150.56	-1642.09	  383.72
     59.5700	 1115.00	 1133.65	-1746.17	  383.84
     59.6700	 1177.00	 1134.93	-1685.46	  383.96
     59.7700	 1172.00	 1163.31	-1718.83	  384.09
     59.8700	 1229.00	 1223.80	-1722.33	  384.21
     59.9700	 1359.00	 1311.45	-1679.97	  384.33
     60.0700	 1464.00	 1408.71	-1672.24	  384.46
     60.1700	 1596.00	 1486.41	-1617.93	  384.58
     60.2700	 1575.00	 1511.56	-1664.08	  384.70
     60.3700	 1543.00	 1465.05	-1649.57	  384.83
     60.4700	 1378.00	 1355.52	-1705.04	  384.96
     60.5700	 1243.00	 1210.96	-1695.48	  385.08
     60.6700	 1113.00	 1060.50	-1675.02	  385.21
     60.7700	  919.00	  924.99	-1733.51	  385.34
     60.8700	  758.00	  815.97	-1785.49	  385.46
     60.9700	  705.00	  737.12	-1759.64	  385.59
     61.0700	  683.00	  687.00	-1731.53	  385.72
     61.1700	  626.00	  662.13	-1763.65	  385.85
     61.2700	  653.00	  659.71	-1734.24	  385.98
     61.3700	  611.00	  679.31	-1795.83	  386.11
     61.4700	  709.00	  722.88	-1741.40	  386.24
     61.5700	  735.00	  793.48	-1786.00	  386.37
     61.6700	  887.00	  892.74	-1733.27	  386.50
     61.7700	  988.00	 1018.02	-1757.55	  386.63
     61.8700	 1083.00	 1159.72	-1804.25	  386.76
     61.9700	 1216.00	 1299.72	-1811.25	  386.89
     62.0700	 1359.00	 1411.56	-1780.09	  387.02
     62.1700	 1399.00	 1465.93	-1794.46	  387.15
     62.2700	 1333.00	 1444.89	-1839.41	  387.28
     62.3700	 1243.00	 1354.94	-1839.46	  387.42
     62.4700	 1139.00	 1222.04	-1810.57	  387.55
     62.5700	  941.00	 1075.30	-1861.83	  387.68
     62.6700	  853.00	  937.04	-1811.57	  387.82
     62.7700	  735.00	  820.53	-1813.06	  387.95
     62.8700	  684.00	  731.01	-1774.54	  388.08
     62.9700	  641.00	  667.58	-1754.10	  388.22
     63.0700	  592.00	  625.73	-1761.26	  388.35
     63.1700	  601.00	  599.84	-1726.36	  388.48
     63.2700	  569.00	  584.76	-1743.28	  388.62
     63.3700	  566.00	  576.76	-1738.29	  388.75
     63.4700	  555.00	  573.69	-1746.22	  388.89
     63.5700	  548.00	  574.83	-1754.36	  389.02
     63.6700	  623.00	  580.67	-1685.20	  389.16
     63.7700	  665.00	  592.66	-1655.18	  389.29
     63.8700	  696.00	  612.87	-1644.39	  389.43
     63.9700	  680.00	  643.43	-1690.95	  389.56
     64.0700	  714.00	  685.77	-1699.30	  389.70
     64.1700	  817.00	  739.64	-1650.17	  389.83
     64.2700	  861.00	  802.19	-1668.72	  389.97
     64.3700	  924.00	  867.38	-1670.91	  390.11
     64.4700	 1007.00	  925.41	-1645.94	  390.24
     64.5700	 1045.00	  966.33	-1648.85	  390.38
     64.6700	 1010.00	  981.29	-1698.81	  390.51
     64.7700	  965.00	  968.42	-1730.95	  390.65
     64.8700	  989.00	  932.23	-1670.75	  390.79
     64.9700	  940.00	  881.28	-1668.80	  390.92
     65.0700	  900.00	  825.12	-1652.65	  391.06
     65.1700	  758.00	  771.46	-1740.99	  391.19
     65.2700	  679.00	  724.63	-1773.16	  391.33
     65.3700	  656.00	  685.79	-1757.31	  391.47
     65.4700	  630.00	  654.28	-1751.80	  391.60
     65.5700	  630.00	  629.04	-1726.57	  391.74
     65.6700	  607.00	  609.21	-1729.73	  391.87
     65.7700	  619.00	  594.02	-1702.55	  392.01
     65.8700	  554.00	  582.83	-1756.35	  392.14
     65.9700	  545.00	  575.04	-1757.56	  392.28
     66.0700	  609.00	  570.12	-1688.65	  392.42
     66.1700	  583.00	  567.60	-1712.13	  392.55
     66.2700	  550.00	  567.04	-1744.57	  392.69
     66.3700	  546.00	  568.12	-1749.65	  392.82
     66.4700	  528.00	  570.64	-1770.17	  392.96
     66.5700	  523.00	  574.78	-1779.31	  393.09
     66.6700	  577.00	  580.74	-1731.27	  393.23
     66.7700	  615.00	  589.60	-1702.12	  393.36
     66.8700	  567.00	  603.21	-1763.73	  393.49
     66.9700	  588.00	  624.76	-1764.29	  393.63
     67.0700	  658.00	  659.27	-1728.79	  393.76
     67.1700	  639.00	  713.77	-1802.30	  393.90
     67.2700	  808.00	  797.04	-1716.57	  394.03
     67.3700	  899.00	  918.34	-1746.87	  394.16
     67.4700	 1053.00	 1085.04	-1759.56	  394.30
     67.5700	 1307.00	 1299.03	-1719.56	  394.43
     67.6700	 1581.00	 1553.77	-1700.29	  394.56
     67.7700	 1794.00	 1831.17	-1764.70	  394.70
     67.8700	 2103.00	 2100.54	-1725.06	  394.83
     67.9700	 2317.00	 2319.95	-1730.48	  394.96
     68.0700	 2399.00	 2443.29	-1771.82	  395.09
     68.1700	 2494.00	 2438.50	-1672.02	  395.22
     68.2700	 2346.00	 2306.92	-1688.44	  395.35
     68.3700	 2150.00	 2082.47	-1659.99	  395.48
     68.4700	 1824.00	 1811.35	-1714.88	  395.61
     68.5700	 1630.00	 1535.02	-1632.55	  395.74
     68.6700	 1256.00	 1283.25	-1754.78	  395.87
     68.7700	 1088.00	 1073.22	-1712.74	  396.00
     68.8700	  916.00	  910.61	-1722.13	  396.13
     68.9700	  779.00	  792.94	-1741.47	  396.26
     69.0700	  702.00	  712.63	-1738.16	  396.39
     69.1700	  665.00	  660.41	-1722.93	  396.52
     69.2700	  611.00	  627.58	-1744.11	  396.65
     69.3700	  593.00	  607.24	-1741.76	  396.77
     69.4700	  585.00	  594.53	-1737.05	  396.90
     69.5700	  569.00	  586.34	-1744.87	  397.03
     69.6700	  591.00	  580.87	-1717.39	  397.15
     69.7700	  602.00	  577.08	-1702.61	  397.28
     69.8700	  575.00	  574.47	-1727.00	  397.40
     69.9700	  584.00	  572.76	-1716.28	  397.53
     70.0700	  603.00	  571.81	-1696.34	  397.65
     70.1700	  601.00	  571.62	-1698.14	  397.77
     70.2700	  566.00	  572.16	-1733.69	  397.90
     70.3700	  584.00	  573.57	-1717.10	  398.02
     70.4700	  582.00	  576.12	-1721.64	  398.14
     70.5700	  578.00	  580.32	-1729.84	  398.26
     70.6700	  622.00	  587.11	-1692.64	  398.38
     70.7700	  578.00	  598.11	-1747.64	  398.50
     70.8700	  592.00	  615.86	-1751.38	  398.62
     70.9700	  606.00	  644.06	-1765.58	  398.74
     71.0700	  641.00	  687.58	-1774.11	  398.86
     71.1700	  754.00	  752.18	-1725.71	  398.98
     71.2700	  830.00	  843.45	-1740.97	  399.10
     71.3700	  952.00	  965.41	-1740.94	  399.22
     71.4700	 1074.00	 1118.59	-1772.12	  399.33
     71.5700	 1253.00	 1298.17	-1772.70	  399.45
     71.6700	 1511.00	 1493.42	-1709.94	  399.56
     71.7700	 1653.00	 1683.85	-1758.37	  399.68
     71.8700	 1803.00	 1844.84	-1769.37	  399.79
     71.9700	 1861.00	 1947.89	-1814.41	  399.91
     72.0700	 1966.00	 1970.42	-1731.94	  400.02
     72.1700	 1923.00	 1906.96	-1711.48	  400.13
     72.2700	 1789.00	 1772.56	-1711.09	  400.24
     72.3700	 1600.00	 1594.18	-1721.70	  400.35
     72.4700	 1458.00	 1399.10	-1668.62	  400.46
     72.5700	 1276.00	 1210.46	-1661.99	  400.57
     72.6700	 1149.00	 1042.97	-1621.50	  400.68
     72.7700	 1009.00	  904.66	-1623.18	  400.79
     72.8700	  847.00	  797.42	-1677.95	  400.90
     72.9700	  845.00	  718.81	-1601.33	  401.00
     73.0700	  721.00	  663.84	-1670.36	  401.11
     73.1700	  747.00	  626.83	-1607.35	  401.22
     73.2700	  707.00	  602.53	-1623.05	  401.32
     73.3700	  610.00	  586.70	-1704.23	  401.42
     73.4700	  632.00	  576.32	-1671.84	  401.53
     73.5700	  650.00	  569.36	-1646.89	  401.63
     73.6700	  594.00	  564.61	-1698.14	  401.73
     73.7700	  546.00	  561.35	-1742.88	  401.83
     73.8700	  591.00	  559.18	-1695.71	  401.93
     73.9700	  572.00	  557.88	-1713.40	  402.03
     74.0700	  596.00	  557.27	-1688.79	  402.13
     74.1700	  632.00	  557.19	-1652.72	  402.23
     74.2700	  595.00	  557.48	-1690.00	  402.32
     74.3700	  652.00	  557.90	-1633.42	  402.42
     74.4700	  642.00	  558.21	-1643.73	  402.51
     74.5700	  591.00	  558.16	-1694.68	  402.61
     74.6700	  595.00	  557.57	-1690.09	  402.70
     74.7700	  624.00	  556.42	-1659.94	  402.79
     74.8700	  662.00	  554.85	-1620.38	  402.88
     74.9700	  624.00	  553.14	-1656.66	  402.98
     75.0700	  586.00	  551.58	-1693.10	  403.06
     75.1700	  568.00	  550.44	-1709.96	  403.15
     75.2700	  572.00	  550.17	-1705.70	  403.24
     75.3700	  569.00	  551.11	-1709.64	  403.33
     75.4700	  565.00	  553.67	-1716.20	  403.41
     75.5700	  532.00	  558.35	-1753.88	  403.50
     75.6700	  578.00	  565.82	-1715.34	  403.58
     75.7700	  606.00	  576.46	-1697.98	  403.67
     75.8700	  610.00	  590.54	-1708.07	  403.75
     75.9700	  584.00	  607.99	-1751.52	  403.83
     76.0700	  635.00	  628.22	-1720.75	  403.91
     76.1700	  675.00	  650.04	-1702.56	  403.99
     76.2700	  681.00	  671.57	-1718.10	  404.07
     76.3700	  740.00	  690.40	-1677.93	  404.15
     76.4700	  753.00	  703.76	-1678.28	  404.22
     76.5700	  674.00	  709.21	-1762.73	  404.30
     76.6700	  730.00	  705.59	-1703.12	  404.37
     76.7700	  697.00	  693.65	-1724.18	  404.45
     76.8700	  643.00	  675.60	-1760.12	  404.52
     76.9700	  657.00	  654.01	-1724.53	  404.59
     77.0700	  613.00	  631.78	-1746.30	  404.66
     77.1700	  578.00	  610.72	-1760.24	  404.73
     77.2700	  587.00	  592.16	-1732.68	  404.80
     77.3700	  539.00	  576.79	-1765.31	  404.87
     77.4700	  541.00	  564.75	-1751.28	  404.94
     77.5700	  581.00	  555.80	-1702.33	  405.00
     77.6700	  537.00	  549.45	-1739.97	  405.06
     77.7700	  562.00	  545.10	-1710.63	  405.13
     77.8700	  494.00	  542.23	-1775.76	  405.19
     77.9700	  514.00	  540.38	-1753.90	  405.25
     78.0700	  490.00	  539.19	-1776.72	  405.31
     78.1700	  533.00	  538.44	-1732.96	  405.37
     78.2700	  485.00	  537.96	-1780.48	  405.43
     78.3700	  527.00	  537.66	-1738.18	  405.48
     78.4700	  535.00	  537.49	-1730.01	  405.54
     78.5700	  525.00	  537.43	-1739.95	  405.59
     78.6700	  519.00	  537.48	-1746.00	  405.65
     78.7700	  545.00	  537.65	-1720.17	  405.70
     78.8700	  488.00	  537.96	-1777.49	  405.75
     78.9700	  497.00	  538.45	-1768.98	  405.80
     79.0700	  537.00	  539.17	-1729.70	  405.85
     79.1700	  509.00	  540.17	-1758.69	  405.90
     79.2700	  520.00	  541.50	-1749.02	  405.94
     79.3700	  522.00	  543.04	-1748.57	  405.99
     79.4700	  526.00	  545.19	-1746.72	  406.03
     79.5700	  513.00	  547.84	-1762.36	  406.08
     79.6700	  546.00	  551.02	-1732.54	  406.12
     79.7700	  520.00	  554.80	-1762.33	  406.16
     79.8700	  563.00	  559.29	-1723.82	  406.20
     79.9700	  563.00	  564.61	-1729.14	  406.24
     80.0700	  533.00	  570.96	-1765.49	  406.27
     80.1700	  574.00	  578.62	-1732.14	  406.31
     80.2700	  563.00	  587.91	-1752.44	  406.34
     80.3700	  585.00	  599.15	-1741.67	  406.38
     80.4700	  557.00	  612.48	-1783.01	  406.41
     80.5700	  564.00	  627.83	-1791.36	  406.44
     80.6700	  651.00	  644.79	-1721.31	  406.47
     80.7700	  621.00	  662.58	-1769.11	  406.50
     80.8700	  643.00	  680.13	-1764.66	  406.52
     80.9700	  656.00	  696.18	-1767.71	  406.55
     81.0700	  734.00	  709.58	-1703.10	  406.57
     81.1700	  748.00	  719.41	-1698.94	  406.60
     81.2700	  741.00	  725.10	-1711.62	  406.62
     81.3700	  760.00	  726.32	-1693.84	  406.64
     81.4700	  737.00	  723.07	-1713.59	  406.66
     81.5700	  769.00	  715.63	-1674.15	  406.68
     81.6700	  766.00	  704.46	-1665.99	  406.70
     81.7700	  730.00	  690.23	-1687.75	  406.71
     81.8700	  747.00	  673.83	-1654.36	  406.73
     81.9700	  715.00	  656.38	-1668.91	  406.74
     82.0700	  700.00	  638.97	-1666.50	  406.75
     82.1700	  678.00	  622.42	-1671.95	  406.76
     82.2700	  675.00	  607.42	-1659.95	  406.77
     82.3700	  589.00	  594.26	-1732.78	  406.78
     82.4700	  631.00	  583.08	-1679.60	  406.79
     82.5700	  571.00	  573.93	-1730.45	  406.79
     82.6700	  564.00	  566.76	-1730.28	  406.79
     82.7700	  591.00	  561.53	-1698.06	  406.80
     82.8700	  566.00	  558.12	-1719.65	  406.80
     82.9700	  573.00	  556.43	-1710.95	  406.80
     83.0700	  525.00	  556.33	-1758.86	  406.80
     83.1700	  559.00	  557.72	-1726.25	  406.80
     83.2700	  573.00	  560.46	-1714.99	  406.79
     83.3700	  542.00	  564.36	-1749.88	  406.79
     83.4700	  515.00	  569.15	-1781.67	  406.78
     83.5700	  532.00	  574.46	-1769.98	  406.77
     83.6700	  516.00	  579.83	-1791.36	  406.76
     83.7700	  562.00	  584.72	-1750.25	  406.75
     83.8700	  557.00	  588.52	-1759.05	  406.74
     83.9700	  552.00	  590.66	-1766.19	  406.73
     84.0700	  600.00	  590.75	-1718.28	  406.71
     84.1700	  601.00	  588.74	-1715.26	  406.70
     84.2700	  606.00	  584.90	-1706.43	  406.68
     84.3700	  552.00	  579.75	-1755.27	  406.66
     84.4700	  516.00	  573.85	-1785.37	  406.64
     84.5700	  552.00	  567.72	-1743.25	  406.62
     84.6700	  555.00	  561.81	-1734.33	  406.59
     84.7700	  544.00	  556.41	-1739.93	  406.57
     84.8700	  543.00	  551.73	-1736.25	  406.54
     84.9700	  517.00	  547.85	-1758.37	  406.52
     85.0700	  520.00	  544.78	-1752.30	  406.49
     85.1700	  577.00	  542.45	-1692.98	  406.46
     85.2700	  517.00	  540.78	-1751.31	  406.43
     85.3700	  536.00	  539.65	-1731.18	  406.39
     85.4700	  498.00	  538.96	-1768.49	  406.36
     85.5700	  592.00	  538.64	-1674.16	  406.33
     85.6700	  509.00	  538.63	-1757.16	  406.29
     85.7700	  488.00	  538.93	-1778.46	  406.25
     85.8700	  543.00	  539.58	-1724.10	  406.21
     85.9700	  490.00	  540.63	-1778.16	  406.17
     86.0700	  537.00	  542.21	-1732.73	  406.13
     86.1700	  537.00	  544.47	-1734.99	  406.08
     86.2700	  551.00	  547.57	-1724.10	  406.04
     86.3700	  560.00	  551.72	-1719.25	  405.99
     86.4700	  505.00	  557.07	-1779.60	  405.94
     86.5700	  567.00	  563.75	-1724.27	  405.89
     86.6700	  544.00	  571.76	-1755.29	  405.84
     86.7700	  595.00	  581.01	-1713.53	  405.79
     86.8700	  601.00	  590.87	-1717.40	  405.74
     86.9700	  646.00	  601.55	-1683.08	  405.68
     87.0700	  563.00	  612.08	-1776.60	  405.63
     87.1700	  632.00	  621.67	-1717.19	  405.57
     87.2700	  653.00	  629.42	-1703.95	  405.51
     87.3700	  657.00	  634.48	-1705.01	  405.45
     87.4700	  678.00	  636.22	-1685.75	  405.39
     87.5700	  666.00	  634.45	-1695.97	  405.32
     87.6700	  686.00	  629.48	-1671.00	  405.26
     87.7700	  607.00	  622.05	-1742.58	  405.19
     87.8700	  611.00	  613.11	-1729.64	  405.12
     87.9700	  655.00	  603.61	-1676.14	  405.05
     88.0700	  635.00	  594.42	-1686.95	  404.98
     88.1700	  636.00	  586.28	-1677.81	  404.91
     88.2700	  609.00	  579.74	-1698.26	  404.84
     88.3700	  557.00	  575.17	-1745.69	  404.76
     88.4700	  588.00	  572.74	-1712.26	  404.69
     88.5700	  583.00	  572.45	-1716.98	  404.61
     88.6700	  557.00	  574.14	-1744.66	  404.53
     88.7700	  583.00	  577.48	-1722.01	  404.45
     88.8700	  595.00	  582.07	-1714.59	  404.37
     88.9700	  607.00	  587.36	-1707.89	  404.29
     89.0700	  590.00	  592.78	-1730.30	  404.20
     89.1700	  615.00	  597.67	-1710.19	  404.12
     89.2700	  614.00	  601.39	-1714.92	  404.03
     89.3700	  578.00	  603.41	-1752.93	  403.94
     89.4700	  585.00	  603.36	-1745.88	  403.85
     89.5700	  640.00	  601.20	-1688.72	  403.76
     89.6700	  616.00	  597.17	-1708.70	  403.67
     89.7700	  590.00	  591.73	-1729.25	  403.57
     89.8700	  593.00	  585.39	-1719.92	  403.48
     89.9700	  560.00	  578.68	-1746.20	  403.38
     90.0700	  519.00	  572.02	-1780.54	  403.28
     90.1700	  576.00	  565.76	-1717.29	  403.18
     90.2700	  514.00	  560.16	-1773.68	  403.08
     90.3700	  555.00	  555.35	-1727.87	  402.98
     90.4700	  557.00	  551.39	-1721.91	  402.87
     90.5700	  511.00	  548.27	-1764.80	  402.77
     90.6700	  526.00	  545.94	-1747.46	  402.66
     90.7700	  569.00	  544.29	-1702.82	  402.55
     90.8700	  537.00	  543.24	-1733.76	  402.44
     90.9700	  546.00	  542.69	-1724.21	  402.33
     91.0700	  569.00	  542.58	-1701.10	  402.22
     91.1700	  516.00	  542.87	-1754.40	  402.11
     91.2700	  524.00	  543.58	-1747.10	  401.99
     91.3700	  558.00	  544.74	-1714.26	  401.87
     91.4700	  511.00	  546.45	-1762.97	  401.76
     91.5700	  514.00	  548.83	-1762.36	  401.64
     91.6700	  539.00	  552.06	-1740.59	  401.52
     91.7700	  537.00	  556.34	-1746.86	  401.40
     91.8700	  524.00	  561.88	-1765.40	  401.27
     91.9700	  538.00	  568.90	-1758.42	  401.15
     92.0700	  546.00	  577.36	-1758.89	  401.02
     92.1700	  561.00	  587.87	-1754.39	  400.90
     92.2700	  601.00	  600.24	-1726.76	  400.77
     92.3700	  600.00	  614.42	-1741.95	  400.64
     92.4700	  571.00	  630.25	-1786.78	  400.51
     92.5700	  619.00	  647.41	-1755.93	  400.38
     92.6700	  660.00	  665.43	-1732.95	  400.24
     92.7700	  686.00	  683.71	-1725.23	  400.11
     92.8700	  685.00	  701.54	-1744.07	  399.97
     92.9700	  737.00	  718.19	-1708.71	  399.84
     93.0700	  773.00	  733.03	-1687.56	  399.70
     93.1700	  828.00	  745.73	-1645.25	  399.56
     93.2700	  825.00	  756.31	-1658.84	  399.42
     93.3700	  818.00	  765.16	-1674.69	  399.27
     93.4700	  811.00	  772.83	-1689.35	  399.13
     93.5700	  799.00	  779.89	-1708.41	  398.99
     93.6700	  800.00	  786.86	-1714.38	  398.84
     93.7700	  910.00	  794.21	-1611.73	  398.69
     93.8700	  842.00	  802.40	-1687.93	  398.54
     93.9700	  864.00	  811.92	-1675.44	  398.39
     94.0700	  830.00	  823.16	-1720.69	  398.24
     94.1700	  840.00	  836.34	-1723.87	  398.09
     94.2700	  897.00	  851.31	-1681.84	  397.94
     94.3700	  858.00	  867.46	-1736.98	  397.78
     94.4700	  893.00	  883.71	-1718.23	  397.63
     94.5700	  939.00	  898.58	-1687.10	  397.47
     94.6700	  922.00	  910.30	-1715.82	  397.31
     94.7700	  898.00	  917.03	-1746.56	  397.15
     94.8700	  952.00	  917.25	-1692.78	  396.99
     94.9700	  919.00	  910.13	-1718.65	  396.83
     95.0700	  912.00	  895.78	-1711.31	  396.67
     95.1700	  862.00	  875.25	-1740.78	  396.50
     95.2700	  851.00	  850.21	-1726.73	  396.34
     95.3700	  842.00	  822.61	-1708.13	  396.17
     95.4700	  775.00	  794.47	-1747.00	  396.00
     95.5700	  711.00	  767.71	-1784.24	  395.84
     95.6700	  737.00	  744.08	-1734.61	  395.67
     95.7700	  738.00	  725.17	-1714.70	  395.50
     95.8700	  637.00	  712.39	-1802.92	  395.32
     95.9700	  645.00	  706.99	-1789.51	  395.15
     96.0700	  679.00	  710.03	-1758.55	  394.98
     96.1700	  664.00	  722.39	-1785.91	  394.80
     96.2700	  729.00	  744.76	-1743.29	  394.63
     96.3700	  782.00	  777.56	-1723.08	  394.45
     96.4700	  788.00	  820.84	-1760.36	  394.27
     96.5700	  848.00	  874.23	-1753.75	  394.09
     96.6700	  890.00	  936.81	-1774.33	  393.91
     96.7700	 1003.00	 1007.03	-1731.56	  393.73
     96.8700	 1134.00	 1082.66	-1676.18	  393.55
     96.9700	 1158.00	 1160.73	-1730.26	  393.36
     97.0700	 1233.00	 1237.61	-1732.14	  393.18
     97.1700	 1352.00	 1309.12	-1684.64	  392.99
     97.2700	 1408.00	 1370.70	-1690.22	  392.81
     97.3700	 1404.00	 1417.85	-1741.37	  392.62
     97.4700	 1391.00	 1446.74	-1783.27	  392.43
     97.5700	 1430.00	 1455.02	-1752.54	  392.24
     97.6700	 1432.00	 1442.29	-1737.82	  392.05
     97.7700	 1428.00	 1410.21	-1709.73	  391.86
     97.8700	 1320.00	 1361.99	-1769.52	  391.67
     97.9700	 1254.00	 1301.76	-1775.28	  391.48
     98.0700	 1207.00	 1233.91	-1754.44	  391.28
     98.1700	 1149.00	 1162.68	-1741.21	  391.09
     98.2700	 1050.00	 1092.00	-1769.52	  390.89
     98.3700	 1031.00	 1025.25	-1721.77	  390.70
     98.4700	  940.00	  965.26	-1752.79	  390.50
     98.5700	  864.00	  914.33	-1777.85	  390.30
     98.6700	  817.00	  874.20	-1784.73	  390.10
     98.7700	  874.00	  846.20	-1699.72	  389.90
     98.8700	  789.00	  831.27	-1769.80	  389.70
     98.9700	  776.00	  830.06	-1781.58	  389.50
     99.0700	  833.00	  842.98	-1737.50	  389.30
     99.1700	  880.00	  870.22	-1717.74	  389.09
     99.2700	  883.00	  911.79	-1756.32	  388.89
     99.3700	  979.00	  967.47	-1716.00	  388.69
     99.4700	 1031.00	 1036.72	-1733.24	  388.48
     99.5700	 1160.00	 1118.59	-1686.11	  388.27
     99.6700	 1226.00	 1211.64	-1713.16	  388.07
     99.7700	 1313.00	 1313.86	-1728.38	  387.86
     99.8700	 1428.00	 1422.55	-1722.07	  387.65
     99.9700	 1534.00	 1534.27	-1727.80	  387.44
    100.0700	 1647.00	 1644.94	-1725.47	  387.23
    100.1700	 1797.00	 1750.06	-1680.59	  387.02
    100.2700	 1857.00	 1845.11	-1715.64	  386.81
    100.3700	 2029.00	 1926.03	-1624.55	  386.60
    100.4700	 1917.00	 1989.60	-1800.12	  386.39
    100.5700	 2002.00	 2033.57	-1759.09	  386.18
    100.6700	 2070.00	 2056.54	-1714.07	  385.96
    100.7700	 2058.00	 2057.72	-1727.25	  385.75
    100.8700	 2046.00	 2036.96	-1718.48	  385.54
    100.9700	 2053.00	 1995.06	-1669.59	  385.32
    101.0700	 1957.00	 1934.15	-1704.67	  385.11
    101.1700	 1900.00	 1857.73	-1685.25	  384.89
    101.2700	 1784.00	 1770.42	-1713.94	  384.67
    101.3700	 1733.00	 1677.37	-1671.89	  384.46
    101.4700	 1632.00	 1583.64	-1679.16	  384.24
    101.5700	 1496.00	 1493.69	-1725.21	  384.02
    101.6700	 1434.00	 1411.05	-1704.58	  383.80
    101.7700	 1339.00	 1338.21	-1726.73	  383.59
    101.8700	 1295.00	 1276.57	-1709.09	  383.37
    101.9700	 1187.00	 1226.47	-1766.99	  383.15
    102.0700	 1163.00	 1187.29	-1751.81	  382.93
    102.1700	 1207.00	 1157.50	-1678.03	  382.71
    102.2700	 1165.00	 1134.91	-1697.44	  382.49
    102.3700	 1122.00	 1116.90	-1722.42	  382.26
    102.4700	 1148.00	 1100.63	-1680.16	  382.04
    102.5700	 1027.00	 1083.49	-1784.02	  381.82
    102.6700	 1066.00	 1063.36	-1724.89	  381.60
    102.7700	 1026.00	 1038.92	-1740.44	  381.38
    102.8700	  992.00	 1009.72	-1745.25	  381.16
    102.9700	 1025.00	  976.12	-1678.65	  380.93
    103.0700	  960.00	  939.00	-1706.53	  380.71
    103.1700	  918.00	  899.56	-1709.08	  380.49
    103.2700	  872.00	  859.08	-1714.60	  380.26
    103.3700	  785.00	  818.81	-1761.34	  380.04
    103.4700	  760.00	  779.90	-1747.43	  379.82
    103.5700	  684.00	  743.28	-1786.81	  379.59
    103.6700	  736.00	  709.68	-1701.20	  379.37
    103.7700	  666.00	  679.59	-1741.12	  379.14
    103.8700	  675.00	  653.27	-1705.80	  378.92
    103.9700	  634.00	  630.79	-1724.31	  378.70
    104.0700	  555.00	  612.01	-1784.54	  378.47
    104.1700	  595.00	  596.70	-1729.22	  378.25
    104.2700	  585.00	  584.51	-1727.03	  378.02
    104.3700	  595.00	  575.05	-1707.58	  377.80
    104.4700	  571.00	  567.94	-1724.46	  377.58
    104.5700	  583.00	  562.77	-1707.30	  377.35
    104.6700	  500.00	  559.20	-1786.73	  377.13
    104.7700	  588.00	  556.93	-1696.45	  376.90
    104.8700	  565.00	  555.67	-1718.19	  376.68
    104.9700	  510.00	  555.24	-1772.77	  376.45
    105.0700	  527.00	  555.48	-1756.01	  376.23
    105.1700	  571.00	  556.25	-1712.78	  376.01
    105.2700	  556.00	  557.50	-1729.02	  375.78
    105.3700	  568.00	  559.20	-1718.72	  375.56
    105.4700	  532.00	  561.35	-1756.87	  375.34
    105.5700	  534.00	  563.98	-1757.51	  375.11
    105.6700	  579.00	  567.18	-1715.71	  374.89
    105.7700	  560.00	  571.04	-1738.56	  374.67
    105.8700	  566.00	  575.65	-1737.17	  374.45
    105.9700	  567.00	  581.10	-1741.62	  374.23
    106.0700	  600.00	  587.45	-1714.97	  374.00
    106.1700	  612.00	  594.71	-1710.23	  373.78
    106.2700	  572.00	  602.84	-1758.36	  373.56
    106.3700	  583.00	  611.74	-1756.27	  373.34
    106.4700	  639.00	  621.26	-1709.78	  373.12
    106.5700	  609.00	  631.15	-1749.68	  372.90
    106.6700	  645.00	  641.15	-1723.68	  372.68
    106.7700	  659.00	  650.93	-1719.46	  372.47
    106.8700	  607.00	  660.12	-1780.65	  372.25
    106.9700	  630.00	  668.37	-1765.89	  372.03
    107.0700	  667.00	  675.32	-1735.85	  371.81
    107.1700	  694.00	  680.73	-1714.26	  371.60
    107.2700	  670.00	  684.45	-1741.98	  371.38
    107.3700	  706.00	  686.52	-1708.04	  371.17
    107.4700	  665.00	  687.12	-1749.64	  370.95
    107.5700	  679.00	  686.57	-1735.09	  370.74
    107.6700	  684.00	  685.27	-1728.80	  370.53
    107.7700	  702.00	  683.66	-1709.18	  370.31
    107.8700	  652.00	  682.11	-1757.63	  370.10
    107.9700	  694.00	  680.94	-1714.46	  369.89
    108.0700	  655.00	  680.37	-1752.89	  369.68
    108.1700	  672.00	  680.50	-1736.03	  369.47
    108.2700	  691.00	  681.34	-1717.86	  369.26
    108.3700	  731.00	  682.76	-1679.28	  369.05
    108.4700	  692.00	  684.52	-1720.05	  368.85
    108.5700	  714.00	  686.32	-1699.84	  368.64
    108.6700	  660.00	  687.75	-1755.28	  368.44
    108.7700	  659.00	  688.43	-1756.95	  368.23
    108.8700	  680.00	  687.93	-1735.45	  368.03
    108.9700	  682.00	  685.97	-1731.49	  367.83
    109.0700	  653.00	  682.34	-1756.86	  367.63
    109.1700	  682.00	  677.00	-1722.52	  367.43
    109.2700	  705.00	  670.05	-1692.57	  367.23
    109.3700	  674.00	  661.71	-1715.24	  367.03
    109.4700	  636.00	  652.30	-1743.83	  366.83
    109.5700	  664.00	  642.15	-1705.67	  366.64
    109.6700	  621.00	  631.61	-1738.13	  366.44
    109.7700	  619.00	  621.00	-1729.53	  366.25
    109.8700	  613.00	  610.64	-1725.17	  366.06
    109.9700	  636.00	  600.78	-1692.31	  365.87
    110.0700	  597.00	  591.63	-1722.16	  365.68
    110.1700	  573.00	  583.35	-1737.88	  365.49
    110.2700	  568.00	  576.04	-1735.56	  365.30
    110.3700	  599.00	  569.75	-1698.28	  365.12
    110.4700	  577.00	  564.50	-1715.03	  364.93
    110.5700	  556.00	  560.26	-1731.79	  364.75
    110.6700	  572.00	  556.97	-1712.50	  364.57
    110.7700	  616.00	  554.56	-1666.08	  364.39
    110.8700	  555.00	  552.93	-1725.45	  364.21
    110.9700	  551.00	  551.99	-1728.52	  364.03
    111.0700	  579.00	  551.66	-1700.18	  363.86
    111.1700	  514.00	  551.84	-1765.36	  363.69
    111.2700	  606.00	  552.45	-1673.98	  363.51
    111.3700	  517.00	  553.43	-1763.95	  363.34
    111.4700	  540.00	  554.72	-1742.24	  363.17
    111.5700	  536.00	  556.26	-1747.79	  363.01
    111.6700	  550.00	  558.04	-1735.56	  362.84
    111.7700	  571.00	  560.01	-1716.53	  362.68
    111.8700	  556.00	  562.16	-1733.69	  362.52
    111.9700	  557.00	  564.50	-1735.02	  362.36
    112.0700	  586.00	  567.01	-1708.54	  362.20
    112.1700	  565.00	  569.73	-1732.25	  362.04
    112.2700	  573.00	  572.65	-1727.18	  361.89
    112.3700	  534.00	  575.83	-1769.35	  361.74
    112.4700	  617.00	  579.29	-1689.82	  361.59
    112.5700	  586.00	  583.10	-1724.62	  361.44
    112.6700	  556.00	  587.31	-1758.84	  361.29
    112.7700	  588.00	  592.02	-1731.54	  361.15
    112.8700	  615.00	  597.33	-1709.85	  361.01
    112.9700	  628.00	  603.39	-1702.91	  360.87
    113.0700	  616.00	  610.39	-1721.91	  360.73
    113.1700	  647.00	  618.56	-1699.08	  360.59
    113.2700	  732.00	  628.22	-1623.74	  360.46
    113.3700	  740.00	  639.76	-1627.28	  360.33
    113.4700	  728.00	  653.71	-1653.23	  360.20
    113.5700	  765.00	  670.69	-1633.21	  360.07
    113.6700	  821.00	  691.49	-1598.01	  359.95
    113.7700	  824.00	  717.08	-1620.60	  359.83
    113.8700	  861.00	  748.61	-1615.14	  359.71
    113.9700	  894.00	  787.47	-1620.99	  359.59
    114.0700	  936.00	  835.23	-1626.76	  359.47
    114.1700	  992.00	  893.71	-1629.24	  359.36
    114.2700	 1095.00	  964.94	-1597.47	  359.25
    114.3700	 1161.00	 1051.13	-1617.66	  359.15
    114.4700	 1275.00	 1154.60	-1607.12	  359.04
    114.5700	 1396.00	 1277.72	-1609.24	  358.94
    114.6700	 1570.00	 1422.80	-1580.33	  358.84
    114.7700	 1683.00	 1592.04	-1636.57	  358.75
    114.8700	 1864.00	 1787.35	-1650.87	  358.65
    114.9700	 2022.00	 2010.11	-1715.63	  358.56
    115.0700	 2339.00	 2261.14	-1649.67	  358.47
    115.1700	 2649.00	 2540.44	-1618.96	  358.39
    115.2700	 2899.00	 2847.14	-1675.66	  358.31
    115.3700	 3124.00	 3179.35	-1782.88	  358.23
    115.4700	 3463.00	 3533.93	-1798.46	  358.15
    115.5700	 3788.00	 3906.55	-1846.08	  358.08
    115.6700	 4194.00	 4291.56	-1825.09	  358.01
    115.7700	 4507.00	 4682.19	-1902.71	  357.94
    115.8700	 4832.00	 5070.47	-1966.00	  357.88
    115.9700	 5251.00	 5447.26	-1923.78	  357.82
    116.0700	 5691.00	 5802.52	-1839.04	  357.76
    116.1700	 5980.00	 6125.57	-1873.09	  357.70
    116.2700	 6277.00	 6405.61	-1856.13	  357.65
    116.3700	 6624.00	 6632.23	-1735.75	  357.60
    116.4700	 6624.00	 6796.12	-1899.64	  357.56
    116.5700	 6673.00	 6890.14	-1944.66	  357.52
    116.6700	 6900.00	 6910.10	-1737.62	  357.48
    116.7700	 6904.00	 6855.31	-1678.84	  357.45
    116.8700	 6819.00	 6728.64	-1637.16	  357.41
    116.9700	 6569.00	 6536.15	-1694.67	  357.39
    117.0700	 6402.00	 6286.35	-1611.87	  357.36
    117.1700	 6046.00	 5989.31	-1670.84	  357.34
    117.2700	 5488.00	 5655.70	-1895.22	  357.33
    117.3700	 5380.00	 5296.13	-1643.65	  357.31
    117.4700	 4947.00	 4920.82	-1701.34	  357.30
    117.5700	 4573.00	 4539.11	-1693.63	  357.30
    117.6700	 4155.00	 4159.34	-1731.86	  357.30
    117.7700	 3995.00	 3788.57	-1521.09	  357.30
    117.8700	 3567.00	 3432.63	-1593.15	  357.31
    117.9700	 3277.00	 3096.23	-1546.75	  357.32
    118.0700	 2866.00	 2782.78	-1644.31	  357.33
    118.1700	 2499.00	 2494.62	-1723.14	  357.35
    118.2700	 2217.00	 2232.93	-1743.45	  357.37
    118.3700	 1960.00	 1998.01	-1765.54	  357.40
    118.4700	 1745.00	 1789.48	-1772.01	  357.43
    118.5700	 1555.00	 1606.27	-1778.80	  357.46
    118.6700	 1402.00	 1446.88	-1772.41	  357.50
    118.7700	 1302.00	 1309.42	-1734.94	  357.54
    118.8700	 1160.00	 1191.80	-1759.32	  357.59
    118.9700	  986.00	 1091.89	-1833.41	  357.64
    119.0700	  939.00	 1007.54	-1796.06	  357.69
    119.1700	  917.00	  936.70	-1747.23	  357.75
    119.2700	  833.00	  877.44	-1771.96	  357.82
    119.3700	  786.00	  827.99	-1769.52	  357.89
    119.4700	  786.00	  786.82	-1728.34	  357.96
    119.5700	  722.00	  752.56	-1758.08	  358.04
    119.6700	  715.00	  724.05	-1736.58	  358.12
    119.7700	  678.00	  700.31	-1749.83	  358.21
    119.8700	  656.00	  680.50	-1752.02	  358.30
    119.9700	  583.00	  663.95	-1808.47	  358.40
    120.0700	  592.00	  650.11	-1785.63	  358.50
    120.1700	  638.00	  638.52	-1728.04	  358.61
    120.2700	  579.00	  628.83	-1777.35	  358.72
    120.3700	  609.00	  620.73	-1739.26	  358.83
    120.4700	  581.00	  614.01	-1760.54	  358.96
    120.5700	  589.00	  608.48	-1747.01	  359.08
    120.6700	  576.00	  604.00	-1755.52	  359.21
    120.7700	  559.00	  600.46	-1768.98	  359.35
    120.8700	  588.00	  597.76	-1737.28	  359.49
    120.9700	  546.00	  595.84	-1777.36	  359.64
    121.0700	  582.00	  594.64	-1740.16	  359.79
    121.1700	  549.00	  594.11	-1772.64	  359.95
    121.2700	  595.00	  594.22	-1726.74	  360.11
    121.3700	  566.00	  594.91	-1756.43	  360.28
    121.4700	  553.00	  596.13	-1770.66	  360.45
    121.5700	  570.00	  597.85	-1755.37	  360.63
    121.6700	  601.00	  600.00	-1726.53	  360.82
    121.7700	  634.00	  602.53	-1696.05	  361.01
    121.8700	  590.00	  605.36	-1742.88	  361.20
    121.9700	  575.00	  608.40	-1760.92	  361.40
    122.0700	  647.00	  611.59	-1692.11	  361.61
    122.1700	  678.00	  614.83	-1664.36	  361.82
    122.2700	  642.00	  618.02	-1703.54	  362.04
    122.3700	  646.00	  621.05	-1702.57	  362.27
    122.4700	  604.00	  623.82	-1747.34	  362.50
    122.5700	  599.00	  626.23	-1754.75	  362.73
    122.6700	  616.00	  628.19	-1739.71	  362.98
    122.7700	  641.00	  629.61	-1716.13	  363.22
    122.8700	  646.00	  630.46	-1711.99	  363.48
    122.9700	  648.00	  630.71	-1710.23	  363.74
    123.0700	  640.00	  630.34	-1717.86	  364.01
    123.1700	  650.00	  629.37	-1706.89	  364.28
    123.2700	  637.00	  627.84	-1718.37	  364.56
    123.3700	  609.00	  625.80	-1744.33	  364.84
    123.4700	  596.00	  623.32	-1754.84	  365.14
    123.5700	  605.00	  620.46	-1742.98	  365.44
    123.6700	  643.00	  617.29	-1701.81	  365.74
    123.7700	  641.00	  613.89	-1700.41	  366.05
    123.8700	  625.00	  610.33	-1712.85	  366.37
    123.9700	  651.00	  606.67	-1683.20	  366.70
    124.0700	  583.00	  602.99	-1747.52	  367.03
    124.1700	  610.00	  599.34	-1716.87	  367.37
    124.2700	  582.00	  595.77	-1741.30	  367.71
    124.3700	  601.00	  592.33	-1718.85	  368.06
    124.4700	  568.00	  589.04	-1748.57	  368.42
    124.5700	  583.00	  585.94	-1730.47	  368.79
    124.6700	  609.00	  583.06	-1701.58	  369.16
    124.7700	  620.00	  580.40	-1687.93	  369.54
    124.8700	  612.00	  577.99	-1693.52	  369.93
    124.9700	  579.00	  489.43	-1637.95	  370.33
    125.0700	  588.00	  489.83	-1727.52	  370.73
    125.1700	  557.00	  490.24	-1727.52	  371.14
    125.2700	  554.00	  490.65	-1727.52	  371.55
    125.3700	  574.00	  491.08	-1727.52	  371.98
    125.4700	  584.00	  491.51	-1727.52	  372.41
    125.5700	  629.00	  491.95	-1727.52	  372.85
    125.6700	  546.00	  492.39	-1727.52	  373.29
    125.7700	  527.00	  492.85	-1727.52	  373.75
    125.8700	  560.00	  493.31	-1727.52	  374.21
    125.9700	  587.00	  493.78	-1727.52	  374.68
    126.0700	  515.00	  494.26	-1727.52	  375.16
    126.1700	  586.00	  494.74	-1727.52	  375.64
    126.2700	  595.00	  495.24	-1727.52	  376.14
    126.3700	  579.00	  495.74	-1727.52	  376.64
    126.4700	  574.00	  496.25	-1727.52	  377.15
    126.5700	  603.00	  496.76	-1727.52	  377.66
    126.6700	  574.00	  497.29	-1727.52	  378.19
    126.7700	  573.00	  497.82	-1727.52	  378.72
    126.8700	  670.00	  498.36	-1727.52	  379.26
    126.9700	  607.00	  498.91	-1727.52	  379.82
    127.0700	  631.00	  499.47	-1727.52	  380.37
    127.1700	  631.00	  500.04	-1727.52	  380.94
    127.2700	  625.00	  500.62	-1727.52	  381.52
    127.3700	  626.00	  501.20	-1727.52	  382.10
    127.4700	  735.00	  501.79	-1727.52	  382.69
    127.5700	  688.00	  502.39	-1727.52	  383.29
    127.6700	  686.00	  503.00	-1727.52	  383.90
    127.7700	  745.00	  503.62	-1727.52	  384.52
    127.8700	  700.00	  504.25	-1727.52	  385.15
    127.9700	  720.00	  504.89	-1727.52	  385.79
    128.0700	  767.00	  505.53	-1727.52	  386.43
    128.1700	  805.00	  506.19	-1727.52	  387.09
    128.2700	  776.00	  506.85	-1727.52	  387.75
    128.3700	  834.00	  507.52	-1727.52	  388.42
    128.4700	  842.00	  508.20	-1727.52	  389.11
    128.5700	    0.00	  508.90	-1727.52	  389.80
    128.6700	    0.00	  509.60	-1727.52	  390.50
     12.2978	        	        	        	        	       0	(  0  0  2)	  0  1
     24.8773	        	        	        	        	       0	(  0  0  4)	  0  1
     28.3251	        	        	        	        	       0	(  1  0  0)	  0  1
     29.0220	        	        	        	        	       0	(  1  0  1)	  0  1
     31.0272	        	        	        	        	       0	(  1  0  2)	  0  1
     34.1340	        	        	        	        	       0	(  1  0  3)	  0  1
     37.7725	        	        	        	        	       0	(  0  0  6)	  0  1
     38.1093	        	        	        	        	       0	(  1  0  4)	  0  1
     42.7574	        	        	        	        	       0	(  1  0  5)	  0  1
     47.9392	        	        	        	        	       0	(  1  0  6)	  0  1
     50.2611	        	        	        	        	       0	(  1  1  0)	  0  1
     51.1895	        	        	        	        	       0	(  0  0  8)	  0  1
     51.9832	        	        	        	        	       0	(  1  1  2)	  0  1
     53.5672	        	        	        	        	       0	(  1  0  7)	  0  1
     56.9285	        	        	        	        	       0	(  1  1  4)	  0  1
     58.7576	        	        	        	        	       0	(  2  0  0)	  0  1
     59.1490	        	        	        	        	       0	(  2  0  1)	  0  1
     59.5950	        	        	        	        	       0	(  1  0  8)	  0  1
     60.3138	        	        	        	        	       0	(  2  0  2)	  0  1
     62.2260	        	        	        	        	       0	(  2  0  3)	  0  1
     64.6192	        	        	        	        	       0	(  1  1  6)	  0  1
     64.8486	        	        	        	        	       0	(  2  0  4)	  0  1
     65.4128	        	        	        	        	       0	(  0  0 10)	  0  1
     66.0084	        	        	        	        	       0	(  1  0  9)	  0  1
     68.1411	        	        	        	        	       0	(  2  0  5)	  0  1
     72.0665	        	        	        	        	       0	(  2  0  6)	  0  1
     72.8212	        	        	        	        	       0	(  1  0 10)	  0  1
     74.6518	        	        	        	        	       0	(  1  1  8)	  0  1
     76.5982	        	        	        	        	       0	(  2  0  7)	  0  1
     80.0751	        	        	        	        	       0	(  1  0 11)	  0  1
     80.8856	        	        	        	        	       0	(  0  0 12)	  0  1
     80.9976	        	        	        	        	       0	(  2  1  0)	  0  1
     81.3372	        	        	        	        	       0	(  2  1  1)	  0  1
     81.7256	        	        	        	        	       0	(  2  0  8)	  0  1
     82.3545	        	        	        	        	       0	(  2  1  2)	  0  1
     84.0448	        	        	        	        	       0	(  2  1  3)	  0  1
     86.4031	        	        	        	        	       0	(  2  1  4)	  0  1
     86.9163	        	        	        	        	       0	(  1  1 10)	  0  1
     87.4604	        	        	        	        	       0	(  2  0  9)	  0  1
     87.8449	        	        	        	        	       0	(  1  0 12)	  0  1
     89.4271	        	        	        	        	       0	(  2  1  5)	  0  1
     93.1223	        	        	        	        	       0	(  2  1  6)	  0  1
     93.8438	        	        	        	        	       0	(  2  0 10)	  0  1
     94.8854	        	        	        	        	       0	(  3  0  0)	  0  1
     95.2225	        	        	        	        	       0	(  3  0  1)	  0  1
     96.2352	        	        	        	        	       0	(  3  0  2)	  0  1
     96.2527	        	        	        	        	       0	(  1  0 13)	  0  1
     97.5082	        	        	        	        	       0	(  2  1  7)	  0  1
     97.9275	        	        	        	        	       0	(  3  0  3)	  0  1
     98.4139	        	        	        	        	       0	(  0  0 14)	  0  1
    100.3090	        	        	        	        	       0	(  3  0  4)	  0  1
    100.9609	        	        	        	        	       0	(  2  0 11)	  0  1
    101.7770	        	        	        	        	       0	(  1  1 12)	  0  1
    102.6273	        	        	        	        	       0	(  2  1  8)	  0  1
    103.3986	        	        	        	        	       0	(  3  0  5)	  0  1
    105.4984	        	        	        	        	       0	(  1  0 14)	  0  1
    107.2312	        	        	        	        	       0	(  3  0  6)	  0  1
    108.5599	        	        	        	        	       0	(  2  1  9)	  0  1
    108.9661	        	        	        	        	       0	(  2  0 12)	  0  1
    111.8683	        	        	        	        	       0	(  3  0  7)	  0  1
    115.4514	        	        	        	        	       0	(  2  1 10)	  0  1
    115.9323	        	        	        	        	       0	(  1  0 15)	  0  1
    116.6083	        	        	        	        	       0	(  2  2  0)	  0  1
    117.4175	        	        	        	        	       0	(  3  0  8)	  0  1
    118.1225	        	        	        	        	       0	(  2  2  2)	  0  1
    118.1423	        	        	        	        	       0	(  2  0 13)	  0  1
    119.8824	        	        	        	        	       0	(  0  0 16)	  0  1
    120.6045	        	        	        	        	       0	(  1  1 14)	  0  1
    122.8047	        	        	        	        	       0	(  2  2  4)	  0  1
    123.5712	        	        	        	        	       0	(  2  1 11)	  0  1
    124.0719	        	        	        	        	       0	(  3  0  9)	  0  1
    124.6725	        	        	        	        	       0	(  3  1  0)	  0  1
    125.0824	        	        	        	        	       0	(  3  1  1)	  0  1
    126.3250	        	        	        	        	       0	(  3  1  2)	  0  1
    128.2607	        	        	        	        	       0	(  1  0 16)	  0  1
    128.4416	        	        	        	        	       0	(  3  1  3)	  0  1
    129.0600	        	        	        	        	       0	(  2  0 14)	  0  1
    131.2379	        	        	        	        	       0	(  2  2  6)	  0  1
    131.5152	        	        	        	        	       0	(  3  1  4)	  0  1
    132.2046	        	        	        	        	       0	(  3  0 10)	  0  1
    133.4725	        	        	        	        	       0	(  2  1 12)	  0  1
    135.6988	        	        	        	        	       0	(  3  1  5)	  0  1
    141.2889	        	        	        	        	       0	(  3  1  6)	  0  1
    142.6700	        	        	        	        	       0	(  3  0 11)	  0  1
    143.1770	        	        	        	        	       0	(  2  0 15)	  0  1
    144.3997	        	        	        	        	       0	(  1  0 17)	  0  1
    145.4571	        	        	        	        	       0	(  2  2  8)	  0  1
    146.6073	        	        	        	        	       0	(  2  1 13)	  0  1
    148.9532	        	        	        	        	       0	(  3  1  7)	  0  1
    149.4900	        	        	        	        	       0	(  1  1 16)	  0  1
    153.8580	        	        	        	        	       0	(  0  0 18)	  0  1
    158.5125	        	        	        	        	       0	(  3  0 12)	  0  1
    158.8183	        	        	        	        	       0	(  4  0  0)	  0  1
    159.7739	        	        	        	        	       0	(  4  0  1)	  0  1
    160.9241	        	        	        	        	       0	(  3  1  8)	  0  1
    162.9478	        	        	        	        	       0	(  4  0  2)	  0  1
    169.4580	        	        	        	        	       0	(  2  0 16)	  0  1
    170.2738	        	        	        	        	       0	(  4  0  3)	  0  1
    173.8094	        	        	        	        	       0	(  2  1 14)	  0  1
