MSG Master    CELL:    5.91859   5.91859  23.27811   90.0000   90.0000  120.0000   SPGR: P 63/m m c             TEMP:   1051.85
  1   1280     2.52000     0.00000    -0.12556     0.00000     0.00000    0
    99     0     2
       0.00000      10.00000
     125.00000     130.00000
 2Theta	Yobs	Ycal	Yobs-Ycal	Backg	Posr	(hkl)	K
      0.7700	    0.00	  551.42	-1754.25	  432.59
      0.8700	    0.00	  552.11	-1754.25	  433.27
      0.9700	   36.00	  552.78	-1754.25	  433.95
      1.0700	   42.00	  553.45	-1754.25	  434.61
      1.1700	   40.00	  554.10	-1754.25	  435.27
      1.2700	   46.00	  554.74	-1754.25	  435.91
      1.3700	   46.00	  555.38	-1754.25	  436.54
      1.4700	   69.00	  556.00	-1754.25	  437.16
      1.5700	  314.00	  556.61	-1754.25	  437.77
      1.6700	  455.00	  557.21	-1754.25	  438.38
      1.7700	  596.00	  557.80	-1754.25	  438.97
      1.8700	  681.00	  558.38	-1754.25	  439.55
      1.9700	  789.00	  558.96	-1754.25	  440.12
      2.0700	  773.00	  559.52	-1754.25	  440.68
      2.1700	  792.00	  560.07	-1754.25	  441.23
      2.2700	  747.00	  560.61	-1754.25	  441.77
      2.3700	  754.00	  561.14	-1754.25	  442.30
      2.4700	  675.00	  561.66	-1754.25	  442.83
      2.5700	  713.00	  562.17	-1754.25	  443.34
      2.6700	  698.00	  562.68	-1754.25	  443.84
      2.7700	  624.00	  563.17	-1754.25	  444.33
      2.8700	  640.00	  563.65	-1754.25	  444.82
      2.9700	  620.00	  564.13	-1754.25	  445.29
      3.0700	  579.00	  564.59	-1754.25	  445.76
      3.1700	  595.00	  565.05	-1754.25	  446.21
      3.2700	  627.00	  565.49	-1754.25	  446.66
      3.3700	  710.00	  565.93	-1754.25	  447.10
      3.4700	  760.00	  566.36	-1754.25	  447.52
      3.5700	  830.00	  566.78	-1754.25	  447.94
      3.6700	  863.00	  567.19	-1754.25	  448.35
      3.7700	  913.00	  567.59	-1754.25	  448.76
      3.8700	 1012.00	  567.99	-1754.25	  449.15
      3.9700	 1039.00	  568.37	-1754.25	  449.53
      4.0700	 1058.00	  568.75	-1754.25	  449.91
      4.1700	 1106.00	  569.11	-1754.25	  450.28
      4.2700	 1167.00	  569.47	-1754.25	  450.63
      4.3700	 1170.00	  569.82	-1754.25	  450.99
      4.4700	 1048.00	  570.16	-1754.25	  451.33
      4.5700	 1043.00	  570.50	-1754.25	  451.66
      4.6700	 1092.00	  570.82	-1754.25	  451.99
      4.7700	 1033.00	  571.14	-1754.25	  452.30
      4.8700	 1000.00	  571.45	-1754.25	  452.61
      4.9700	  955.00	  571.75	-1754.25	  452.91
      5.0700	  971.00	  572.04	-1754.25	  453.21
      5.1700	  928.00	  572.33	-1754.25	  453.49
      5.2700	  938.00	  572.60	-1754.25	  453.77
      5.3700	  909.00	  572.87	-1754.25	  454.04
      5.4700	  862.00	  573.14	-1754.25	  454.30
      5.5700	  889.00	  573.39	-1754.25	  454.55
      5.6700	  877.00	  573.64	-1754.25	  454.80
      5.7700	  857.00	  573.87	-1754.25	  455.04
      5.8700	  875.00	  574.11	-1754.25	  455.27
      5.9700	  832.00	  574.33	-1754.25	  455.49
      6.0700	  733.00	  574.55	-1754.25	  455.71
      6.1700	  785.00	  574.76	-1754.25	  455.92
      6.2700	  786.00	  574.96	-1754.25	  456.12
      6.3700	  711.00	  575.15	-1754.25	  456.32
      6.4700	  795.00	  575.34	-1754.25	  456.50
      6.5700	  750.00	  575.52	-1754.25	  456.68
      6.6700	  753.00	  575.69	-1754.25	  456.86
      6.7700	  764.00	  575.86	-1754.25	  457.02
      6.8700	  697.00	  576.02	-1754.25	  457.18
      6.9700	  730.00	  576.17	-1754.25	  457.34
      7.0700	  705.00	  576.32	-1754.25	  457.48
      7.1700	  718.00	  576.46	-1754.25	  457.62
      7.2700	  723.00	  576.59	-1754.25	  457.75
      7.3700	  707.00	  576.72	-1754.25	  457.88
      7.4700	  691.00	  576.84	-1754.25	  458.00
      7.5700	  656.00	  576.95	-1754.25	  458.11
      7.6700	  598.00	  577.06	-1754.25	  458.22
      7.7700	  589.00	  577.16	-1754.25	  458.32
      7.8700	  623.00	  577.25	-1754.25	  458.41
      7.9700	  601.00	  577.34	-1754.25	  458.50
      8.0700	  650.00	  577.42	-1754.25	  458.58
      8.1700	  612.00	  577.49	-1754.25	  458.66
      8.2700	  664.00	  577.56	-1754.25	  458.73
      8.3700	  623.00	  577.63	-1754.25	  458.79
      8.4700	  647.00	  577.68	-1754.25	  458.85
      8.5700	  588.00	  577.73	-1754.25	  458.90
      8.6700	  688.00	  577.78	-1754.25	  458.94
      8.7700	  637.00	  577.82	-1754.25	  458.98
      8.8700	  589.00	  577.85	-1754.25	  459.02
      8.9700	  577.00	  577.88	-1754.25	  459.04
      9.0700	  637.00	  577.90	-1754.25	  459.07
      9.1700	  657.00	  577.92	-1754.25	  459.08
      9.2700	  577.00	  577.93	-1754.25	  459.09
      9.3700	  601.00	  577.93	-1754.25	  459.10
      9.4700	  630.00	  577.93	-1754.25	  459.10
      9.5700	  649.00	  577.93	-1754.25	  459.09
      9.6700	  581.00	  577.92	-1754.25	  459.08
      9.7700	  551.00	  577.90	-1754.25	  459.07
      9.8700	  604.00	  577.88	-1754.25	  459.04
      9.9700	  565.00	  577.85	-1754.25	  459.02
     10.0700	  597.00	  579.09	-1736.34	  458.99
     10.1700	  590.00	  579.19	-1743.44	  458.95
     10.2700	  595.00	  579.33	-1738.58	  458.91
     10.3700	  595.00	  579.52	-1738.77	  458.86
     10.4700	  578.00	  579.79	-1756.04	  458.81
     10.5700	  597.00	  580.21	-1737.46	  458.75
     10.6700	  555.00	  580.88	-1780.13	  458.69
     10.7700	  592.00	  581.91	-1744.16	  458.62
     10.8700	  602.00	  583.36	-1735.61	  458.55
     10.9700	  615.00	  585.23	-1724.48	  458.48
     11.0700	  607.00	  587.52	-1734.77	  458.40
     11.1700	  582.00	  590.22	-1762.47	  458.31
     11.2700	  590.00	  593.38	-1757.63	  458.22
     11.3700	  590.00	  597.10	-1761.35	  458.13
     11.4700	  630.00	  601.51	-1725.76	  458.03
     11.5700	  603.00	  606.88	-1758.12	  457.93
     11.6700	  588.00	  613.58	-1779.83	  457.82
     11.7700	  634.00	  622.23	-1742.48	  457.71
     11.8700	  635.00	  633.44	-1752.69	  457.59
     11.9700	  648.00	  647.13	-1753.38	  457.47
     12.0700	  653.00	  661.08	-1762.33	  457.35
     12.1700	  697.00	  669.69	-1726.94	  457.22
     12.2700	  737.00	  665.13	-1682.38	  457.09
     12.3700	  674.00	  645.69	-1725.94	  456.95
     12.4700	  644.00	  621.89	-1732.14	  456.81
     12.5700	  596.00	  603.18	-1761.43	  456.67
     12.6700	  628.00	  591.55	-1717.80	  456.52
     12.7700	  607.00	  585.28	-1732.53	  456.36
     12.8700	  612.00	  582.03	-1724.28	  456.21
     12.9700	  563.00	  580.18	-1771.43	  456.05
     13.0700	  605.00	  578.95	-1728.20	  455.89
     13.1700	  606.00	  578.04	-1726.29	  455.72
     13.2700	  541.00	  577.32	-1790.57	  455.55
     13.3700	  595.00	  576.72	-1735.97	  455.37
     13.4700	  560.00	  576.21	-1770.46	  455.19
     13.5700	  541.00	  575.76	-1789.01	  455.01
     13.6700	  593.00	  575.35	-1736.60	  454.83
     13.7700	  582.00	  574.99	-1747.24	  454.64
     13.8700	  568.00	  574.64	-1760.89	  454.45
     13.9700	  546.00	  574.32	-1782.57	  454.25
     14.0700	  564.00	  574.02	-1764.27	  454.05
     14.1700	  549.00	  573.72	-1778.97	  453.85
     14.2700	  535.00	  573.44	-1792.69	  453.65
     14.3700	  561.00	  573.16	-1766.41	  453.44
     14.4700	  578.00	  572.89	-1749.14	  453.23
     14.5700	  578.00	  572.62	-1748.87	  453.01
     14.6700	  543.00	  572.36	-1783.61	  452.80
     14.7700	  597.00	  572.09	-1729.34	  452.58
     14.8700	  559.00	  571.83	-1767.08	  452.35
     14.9700	  564.00	  571.57	-1761.82	  452.13
     15.0700	  578.00	  571.34	-1747.59	  451.90
     15.1700	  566.00	  571.09	-1759.34	  451.67
     15.2700	  593.00	  570.83	-1732.08	  451.43
     15.3700	  543.00	  570.57	-1781.82	  451.19
     15.4700	  558.00	  570.31	-1766.56	  450.95
     15.5700	  514.00	  570.05	-1810.30	  450.71
     15.6700	  577.00	  569.78	-1747.03	  450.46
     15.7700	  642.00	  569.52	-1681.77	  450.22
     15.8700	  524.00	  569.26	-1799.51	  449.97
     15.9700	  545.00	  568.99	-1778.24	  449.71
     16.0700	  587.00	  568.72	-1735.97	  449.46
     16.1700	  557.00	  568.45	-1765.70	  449.20
     16.2700	  555.00	  568.18	-1767.43	  448.94
     16.3700	  539.00	  567.91	-1783.16	  448.67
     16.4700	  557.00	  567.64	-1764.89	  448.41
     16.5700	  597.00	  567.36	-1724.61	  448.14
     16.6700	  557.00	  567.09	-1764.34	  447.87
     16.7700	  523.00	  566.81	-1798.06	  447.60
     16.8700	  522.00	  566.53	-1798.78	  447.33
     16.9700	  595.00	  566.25	-1725.50	  447.05
     17.0700	  553.00	  565.96	-1767.21	  446.77
     17.1700	  566.00	  565.68	-1753.93	  446.49
     17.2700	  555.00	  565.39	-1764.64	  446.21
     17.3700	  572.00	  565.10	-1747.35	  445.92
     17.4700	  569.00	  564.81	-1750.06	  445.64
     17.5700	  557.00	  564.52	-1761.77	  445.35
     17.6700	  557.00	  564.23	-1761.48	  445.06
     17.7700	  558.00	  563.93	-1760.18	  444.76
     17.8700	  573.00	  563.64	-1744.89	  444.47
     17.9700	  542.00	  563.34	-1775.59	  444.17
     18.0700	  513.00	  563.04	-1804.29	  443.88
     18.1700	  605.00	  562.84	-1712.09	  443.58
     18.2700	  564.00	  562.54	-1752.79	  443.28
     18.3700	  551.00	  562.24	-1765.49	  442.97
     18.4700	  536.00	  561.93	-1780.18	  442.67
     18.5700	  581.00	  561.63	-1734.88	  442.36
     18.6700	  545.00	  561.32	-1770.57	  442.05
     18.7700	  530.00	  561.10	-1785.35	  441.74
     18.8700	  544.00	  560.80	-1771.05	  441.43
     18.9700	  552.00	  560.49	-1762.74	  441.12
     19.0700	  567.00	  560.18	-1747.43	  440.81
     19.1700	  557.00	  559.87	-1757.12	  440.49
     19.2700	  549.00	  559.56	-1764.81	  440.18
     19.3700	  562.00	  559.25	-1751.50	  439.86
     19.4700	  567.00	  558.94	-1746.19	  439.54
     19.5700	  570.00	  558.62	-1742.87	  439.22
     19.6700	  539.00	  558.31	-1773.56	  438.90
     19.7700	  546.00	  558.00	-1766.25	  438.57
     19.8700	  554.00	  557.68	-1757.93	  438.25
     19.9700	  577.00	  557.37	-1734.62	  437.92
     20.0700	  506.00	  557.05	-1805.30	  437.60
     20.1700	  533.00	  556.73	-1777.98	  437.27
     20.2700	  511.00	  556.42	-1799.67	  436.94
     20.3700	  524.00	  556.10	-1786.35	  436.61
     20.4700	  568.00	  555.78	-1742.03	  436.28
     20.5700	  555.00	  555.50	-1754.75	  435.95
     20.6700	  550.00	  555.18	-1759.43	  435.62
     20.7700	  513.00	  554.86	-1796.11	  435.29
     20.8700	  514.00	  554.55	-1794.80	  434.95
     20.9700	  567.00	  554.23	-1741.48	  434.62
     21.0700	  523.00	  553.92	-1785.17	  434.28
     21.1700	  568.00	  553.60	-1739.85	  433.94
     21.2700	  543.00	  553.28	-1764.53	  433.61
     21.3700	  528.00	  552.97	-1779.22	  433.27
     21.4700	  537.00	  552.66	-1769.91	  432.93
     21.5700	  541.00	  552.35	-1765.60	  432.59
     21.6700	  585.00	  551.99	-1721.24	  432.25
     21.7700	  606.00	  551.69	-1699.94	  431.91
     21.8700	  562.00	  551.38	-1743.63	  431.57
     21.9700	  556.00	  551.08	-1749.33	  431.22
     22.0700	  547.00	  550.78	-1758.03	  430.88
     22.1700	  531.00	  550.48	-1773.73	  430.54
     22.2700	  554.00	  550.19	-1750.44	  430.19
     22.3700	  532.00	  549.90	-1772.15	  429.85
     22.4700	  540.00	  549.62	-1763.87	  429.51
     22.5700	  532.00	  549.34	-1771.59	  429.16
     22.6700	  559.00	  549.08	-1744.33	  428.81
     22.7700	  523.00	  548.82	-1780.07	  428.47
     22.8700	  548.00	  548.57	-1754.82	  428.12
     22.9700	  552.00	  548.34	-1750.59	  427.78
     23.0700	  538.00	  548.13	-1764.38	  427.43
     23.1700	  546.00	  548.08	-1756.33	  427.08
     23.2700	  552.00	  547.92	-1750.17	  426.73
     23.3700	  571.00	  547.80	-1731.05	  426.39
     23.4700	  580.00	  547.73	-1721.98	  426.04
     23.5700	  520.00	  547.72	-1781.97	  425.69
     23.6700	  532.00	  547.82	-1770.06	  425.34
     23.7700	  568.00	  548.07	-1734.32	  424.99
     23.8700	  603.00	  548.62	-1699.87	  424.65
     23.9700	  563.00	  549.69	-1740.94	  424.30
     24.0700	  547.00	  551.70	-1758.95	  423.95
     24.1700	  604.00	  555.24	-1705.49	  423.60
     24.2700	  550.00	  561.07	-1765.32	  423.25
     24.3700	  552.00	  569.91	-1772.16	  422.90
     24.4700	  525.00	  582.23	-1811.48	  422.56
     24.5700	  637.00	  597.45	-1714.70	  422.21
     24.6700	  610.00	  612.73	-1756.98	  421.86
     24.7700	  582.00	  622.09	-1794.34	  421.51
     24.8700	  650.00	  618.40	-1722.65	  421.16
     24.9700	  635.00	  601.60	-1720.85	  420.81
     25.0700	  615.00	  581.36	-1720.61	  420.47
     25.1700	  565.00	  565.25	-1754.50	  420.12
     25.2700	  576.00	  554.98	-1733.23	  419.77
     25.3700	  502.00	  549.29	-1801.54	  419.42
     25.4700	  533.00	  546.29	-1767.54	  419.08
     25.5700	  552.00	  544.61	-1746.86	  418.73
     25.6700	  566.00	  543.53	-1731.78	  418.38
     25.7700	  533.00	  542.75	-1764.00	  418.04
     25.8700	  557.00	  542.16	-1739.41	  417.69
     25.9700	  527.00	  541.70	-1768.95	  417.35
     26.0700	  588.00	  541.35	-1707.60	  417.00
     26.1700	  567.00	  541.10	-1728.35	  416.66
     26.2700	  567.00	  540.94	-1728.19	  416.31
     26.3700	  564.00	  540.85	-1731.10	  415.97
     26.4700	  582.00	  540.86	-1713.11	  415.63
     26.5700	  540.00	  540.97	-1755.22	  415.28
     26.6700	  506.00	  541.19	-1789.44	  414.94
     26.7700	  549.00	  541.55	-1746.80	  414.60
     26.8700	  563.00	  542.08	-1733.33	  414.26
     26.9700	  560.00	  542.83	-1737.08	  413.92
     27.0700	  561.00	  543.87	-1737.12	  413.58
     27.1700	  553.00	  545.33	-1746.58	  413.24
     27.2700	  569.00	  547.45	-1732.70	  412.90
     27.3700	  568.00	  550.71	-1736.96	  412.56
     27.4700	  561.00	  556.07	-1749.32	  412.22
     27.5700	  550.00	  565.29	-1769.54	  411.89
     27.6700	  598.00	  581.19	-1737.44	  411.55
     27.7700	  582.00	  607.50	-1779.75	  411.22
     27.8700	  585.00	  647.67	-1816.92	  410.88
     27.9700	  696.00	  702.25	-1760.50	  410.55
     28.0700	  762.00	  765.36	-1757.60	  410.21
     28.1700	  906.00	  821.38	-1669.63	  409.88
     28.2700	  958.00	  846.18	-1642.43	  409.55
     28.3700	  902.00	  824.38	-1676.63	  409.22
     28.4700	  798.00	  777.39	-1733.64	  408.89
     28.5700	  702.00	  742.82	-1795.07	  408.56
     28.6700	  684.00	  738.25	-1808.50	  408.23
     28.7700	  720.00	  759.34	-1793.59	  407.90
     28.8700	  753.00	  786.40	-1787.65	  407.57
     28.9700	  866.00	  791.83	-1680.08	  407.25
     29.0700	  779.00	  757.51	-1732.76	  406.92
     29.1700	  738.00	  697.32	-1713.57	  406.60
     29.2700	  648.00	  638.98	-1745.23	  406.28
     29.3700	  591.00	  596.26	-1759.51	  405.95
     29.4700	  609.00	  570.03	-1715.28	  405.63
     29.5700	  608.00	  555.63	-1701.88	  405.31
     29.6700	  578.00	  547.96	-1724.21	  404.99
     29.7700	  566.00	  543.63	-1731.88	  404.67
     29.8700	  565.00	  540.95	-1730.20	  404.36
     29.9700	  574.00	  539.27	-1719.52	  404.04
     30.0700	  563.00	  538.41	-1729.66	  403.73
     30.1700	  558.00	  538.53	-1734.78	  403.41
     30.2700	  551.00	  540.15	-1743.40	  403.10
     30.3700	  567.00	  544.13	-1731.38	  402.79
     30.4700	  594.00	  551.90	-1712.15	  402.47
     30.5700	  557.00	  564.80	-1762.05	  402.17
     30.6700	  616.00	  583.07	-1721.32	  401.86
     30.7700	  587.00	  604.39	-1771.64	  401.55
     30.8700	  603.00	  622.85	-1774.10	  401.24
     30.9700	  633.00	  629.52	-1750.77	  400.94
     31.0700	  587.00	  618.19	-1785.44	  400.63
     31.1700	  603.00	  594.54	-1745.79	  400.33
     31.2700	  586.00	  570.24	-1738.49	  400.03
     31.3700	  572.00	  551.76	-1734.01	  399.73
     31.4700	  569.00	  540.07	-1725.32	  399.43
     31.5700	  543.00	  533.53	-1744.78	  399.13
     31.6700	  527.00	  530.04	-1757.29	  398.84
     31.7700	  573.00	  528.10	-1709.35	  398.54
     31.8700	  550.00	  526.90	-1731.15	  398.25
     31.9700	  592.00	  526.10	-1688.35	  397.95
     32.0700	  538.00	  525.55	-1741.80	  397.66
     32.1700	  547.00	  525.21	-1732.46	  397.37
     32.2700	  569.00	  525.04	-1710.29	  397.08
     32.3700	  573.00	  525.04	-1706.29	  396.80
     32.4700	  531.00	  525.22	-1748.47	  396.51
     32.5700	  542.00	  525.60	-1737.85	  396.22
     32.6700	  551.00	  526.22	-1729.47	  395.94
     32.7700	  563.00	  527.13	-1718.38	  395.66
     32.8700	  509.00	  528.41	-1773.66	  395.38
     32.9700	  514.00	  530.21	-1770.46	  395.10
     33.0700	  510.00	  532.81	-1777.06	  394.82
     33.1700	  574.00	  536.75	-1717.00	  394.54
     33.2700	  538.00	  543.24	-1759.49	  394.27
     33.3700	  520.00	  554.74	-1788.99	  394.00
     33.4700	  613.00	  575.62	-1716.87	  393.72
     33.5700	  642.00	  612.35	-1724.60	  393.45
     33.6700	  637.00	  671.65	-1788.90	  393.18
     33.7700	  763.00	  755.50	-1746.75	  392.92
     33.8700	  860.00	  854.23	-1748.48	  392.65
     33.9700	 1007.00	  942.25	-1689.50	  392.39
     34.0700	 1035.00	  981.14	-1700.39	  392.12
     34.1700	 1012.00	  942.53	-1684.78	  391.86
     34.2700	  907.00	  845.48	-1692.73	  391.60
     34.3700	  784.00	  738.52	-1708.77	  391.34
     34.4700	  645.00	  652.65	-1761.90	  391.08
     34.5700	  613.00	  595.66	-1736.91	  390.83
     34.6700	  573.00	  562.62	-1743.87	  390.57
     34.7700	  566.00	  544.89	-1733.14	  390.32
     34.8700	  541.00	  535.26	-1748.51	  390.07
     34.9700	  539.00	  529.50	-1744.75	  389.82
     35.0700	  545.00	  525.57	-1734.82	  389.57
     35.1700	  541.00	  522.65	-1735.90	  389.33
     35.2700	  535.00	  520.35	-1739.60	  389.08
     35.3700	  502.00	  518.49	-1770.74	  388.84
     35.4700	  496.00	  516.96	-1775.21	  388.60
     35.5700	  543.00	  515.66	-1726.91	  388.36
     35.6700	  500.00	  514.56	-1768.81	  388.12
     35.7700	  507.00	  513.61	-1760.86	  387.88
     35.8700	  545.00	  512.77	-1722.02	  387.65
     35.9700	  473.00	  512.04	-1793.29	  387.41
     36.0700	  510.00	  511.39	-1755.64	  387.18
     36.1700	  500.00	  511.25	-1765.50	  386.95
     36.2700	  461.00	  510.74	-1803.99	  386.72
     36.3700	  517.00	  510.28	-1747.53	  386.50
     36.4700	  530.00	  509.87	-1734.12	  386.27
     36.5700	  484.00	  509.52	-1779.77	  386.05
     36.6700	  504.00	  509.22	-1759.47	  385.83
     36.7700	  543.00	  509.00	-1720.25	  385.61
     36.8700	  491.00	  508.91	-1772.16	  385.39
     36.9700	  498.00	  509.01	-1765.26	  385.17
     37.0700	  535.00	  509.48	-1728.73	  384.96
     37.1700	  511.00	  510.60	-1753.85	  384.74
     37.2700	  540.00	  512.67	-1726.92	  384.53
     37.3700	  508.00	  515.90	-1762.15	  384.32
     37.4700	  499.00	  520.09	-1775.34	  384.11
     37.5700	  531.00	  524.37	-1747.62	  383.91
     37.6700	  514.00	  527.23	-1767.48	  383.70
     37.7700	  532.00	  527.12	-1749.37	  383.50
     37.8700	  500.00	  523.95	-1778.20	  383.30
     37.9700	  478.00	  519.34	-1795.59	  383.10
     38.0700	  519.00	  514.86	-1750.11	  382.90
     38.1700	  495.00	  511.17	-1770.42	  382.71
     38.2700	  504.00	  508.45	-1758.70	  382.51
     38.3700	  503.00	  506.59	-1757.84	  382.32
     38.4700	  506.00	  505.37	-1753.62	  382.13
     38.5700	  512.00	  504.46	-1746.71	  381.94
     38.6700	  474.00	  504.05	-1784.30	  381.75
     38.7700	  497.00	  503.63	-1760.88	  381.57
     38.8700	  469.00	  503.29	-1788.54	  381.38
     38.9700	  505.00	  503.01	-1752.26	  381.20
     39.0700	  548.00	  502.75	-1709.00	  381.02
     39.1700	  518.00	  502.51	-1738.76	  380.84
     39.2700	  498.00	  502.30	-1758.55	  380.67
     39.3700	  476.00	  502.02	-1780.27	  380.49
     39.4700	  463.00	  501.83	-1793.08	  380.32
     39.5700	  507.00	  501.66	-1748.91	  380.15
     39.6700	  531.00	  501.50	-1724.75	  379.98
     39.7700	  496.00	  501.35	-1759.60	  379.81
     39.8700	  482.00	  501.21	-1773.46	  379.64
     39.9700	  468.00	  501.08	-1787.33	  379.48
     40.0700	  495.00	  500.96	-1760.21	  379.32
     40.1700	  484.00	  500.85	-1771.10	  379.16
     40.2700	  459.00	  500.76	-1796.01	  379.00
     40.3700	  485.00	  500.68	-1769.93	  378.84
     40.4700	  493.00	  500.61	-1761.86	  378.69
     40.5700	  488.00	  500.56	-1766.81	  378.53
     40.6700	  496.00	  500.53	-1758.78	  378.38
     40.7700	  467.00	  500.53	-1787.78	  378.23
     40.8700	  527.00	  500.54	-1727.79	  378.08
     40.9700	  512.00	  500.59	-1742.84	  377.94
     41.0700	  501.00	  500.68	-1753.93	  377.79
     41.1700	  532.00	  501.26	-1723.51	  377.65
     41.2700	  453.00	  501.45	-1802.70	  377.51
     41.3700	  506.00	  501.72	-1749.97	  377.37
     41.4700	  489.00	  502.08	-1767.33	  377.23
     41.5700	  495.00	  502.57	-1761.82	  377.10
     41.6700	  475.00	  503.24	-1782.49	  376.97
     41.7700	  454.00	  504.31	-1804.56	  376.83
     41.8700	  491.00	  506.08	-1769.33	  376.70
     41.9700	  481.00	  509.20	-1782.45	  376.58
     42.0700	  518.00	  514.83	-1751.08	  376.45
     42.1700	  477.00	  524.57	-1801.82	  376.33
     42.2700	  510.00	  540.02	-1784.27	  376.20
     42.3700	  588.00	  561.78	-1728.03	  376.08
     42.4700	  565.00	  588.00	-1777.25	  375.96
     42.5700	  569.00	  613.07	-1798.32	  375.85
     42.6700	  549.00	  628.30	-1833.55	  375.73
     42.7700	  568.00	  626.02	-1812.27	  375.62
     42.8700	  617.00	  606.73	-1743.98	  375.51
     42.9700	  574.00	  579.69	-1759.94	  375.40
     43.0700	  559.00	  553.86	-1749.11	  375.29
     43.1700	  523.00	  533.63	-1764.88	  375.18
     43.2700	  538.00	  519.96	-1736.21	  375.08
     43.3700	  526.00	  511.70	-1739.95	  374.97
     43.4700	  488.00	  507.05	-1773.30	  374.87
     43.5700	  515.00	  504.46	-1743.71	  374.77
     43.6700	  534.00	  503.13	-1723.38	  374.68
     43.7700	  523.00	  502.14	-1733.39	  374.58
     43.8700	  519.00	  501.43	-1736.68	  374.49
     43.9700	  459.00	  500.90	-1796.15	  374.39
     44.0700	  481.00	  500.48	-1773.73	  374.30
     44.1700	  493.00	  500.16	-1761.41	  374.22
     44.2700	  477.00	  499.90	-1777.15	  374.13
     44.3700	  534.00	  499.70	-1719.95	  374.04
     44.4700	  516.00	  499.55	-1737.80	  373.96
     44.5700	  515.00	  499.44	-1738.69	  373.88
     44.6700	  543.00	  499.36	-1710.61	  373.80
     44.7700	  492.00	  499.32	-1761.57	  373.72
     44.8700	  524.00	  499.30	-1729.55	  373.65
     44.9700	  513.00	  499.49	-1740.74	  373.57
     45.0700	  478.00	  499.52	-1775.77	  373.50
     45.1700	  528.00	  499.44	-1725.69	  373.43
     45.2700	  489.00	  499.53	-1764.78	  373.36
     45.3700	  504.00	  499.64	-1749.89	  373.29
     45.4700	  504.00	  499.77	-1750.02	  373.23
     45.5700	  491.00	  499.93	-1763.18	  373.16
     45.6700	  511.00	  500.12	-1743.37	  373.10
     45.7700	  455.00	  500.33	-1799.58	  373.04
     45.8700	  503.00	  500.58	-1751.83	  372.98
     45.9700	  507.00	  500.86	-1748.11	  372.92
     46.0700	  539.00	  501.18	-1716.43	  372.87
     46.1700	  524.00	  501.55	-1731.80	  372.82
     46.2700	  493.00	  501.97	-1763.22	  372.76
     46.3700	  503.00	  502.45	-1753.70	  372.71
     46.4700	  525.00	  503.00	-1732.25	  372.67
     46.5700	  531.00	  503.63	-1726.88	  372.62
     46.6700	  497.00	  504.44	-1761.69	  372.57
     46.7700	  492.00	  505.34	-1767.59	  372.53
     46.8700	  508.00	  506.51	-1752.76	  372.49
     46.9700	  502.00	  508.12	-1760.37	  372.45
     47.0700	  488.00	  510.45	-1776.70	  372.41
     47.1700	  493.00	  514.16	-1775.41	  372.38
     47.2700	  514.00	  520.14	-1760.39	  372.34
     47.3700	  533.00	  529.45	-1750.70	  372.31
     47.4700	  563.00	  542.89	-1734.14	  372.28
     47.5700	  570.00	  560.31	-1744.56	  372.25
     47.6700	  521.00	  579.86	-1813.11	  372.22
     47.7700	  539.00	  597.55	-1812.80	  372.19
     47.8700	  589.00	  607.77	-1773.02	  372.17
     47.9700	  594.00	  606.36	-1766.61	  372.14
     48.0700	  590.00	  594.58	-1758.83	  372.12
     48.1700	  586.00	  578.05	-1746.30	  372.10
     48.2700	  569.00	  562.12	-1747.37	  372.08
     48.3700	  509.00	  549.83	-1795.08	  372.07
     48.4700	  575.00	  542.15	-1721.40	  372.05
     48.5700	  513.00	  538.75	-1780.00	  372.04
     48.6700	  510.00	  538.73	-1782.98	  372.03
     48.7700	  544.00	  541.25	-1751.50	  372.02
     48.8700	  571.00	  545.76	-1729.01	  372.01
     48.9700	  574.00	  552.23	-1732.48	  372.00
     49.0700	  561.00	  561.49	-1754.74	  372.00
     49.1700	  537.00	  574.26	-1791.51	  371.99
     49.2700	  607.00	  593.97	-1741.22	  371.99
     49.3700	  598.00	  626.70	-1782.95	  371.99
     49.4700	  665.00	  682.99	-1772.24	  371.99
     49.5700	  758.00	  778.40	-1774.65	  371.99
     49.6700	  854.00	  931.35	-1831.60	  372.00
     49.7700	 1117.00	 1156.51	-1793.76	  372.00
     49.8700	 1392.00	 1454.04	-1816.29	  372.01
     49.9700	 1812.00	 1797.65	-1739.90	  372.02
     50.0700	 2172.00	 2124.91	-1707.16	  372.03
     50.1700	 2405.00	 2341.14	-1690.39	  372.04
     50.2700	 2448.00	 2358.36	-1664.61	  372.05
     50.3700	 2178.00	 2166.65	-1742.90	  372.07
     50.4700	 1833.00	 1847.85	-1769.10	  372.08
     50.5700	 1411.00	 1503.74	-1846.99	  372.10
     50.6700	 1077.00	 1202.95	-1880.20	  372.12
     50.7700	  847.00	  975.77	-1883.02	  372.14
     50.8700	  754.00	  823.90	-1824.15	  372.16
     50.9700	  676.00	  732.08	-1810.33	  372.18
     51.0700	  616.00	  679.40	-1817.65	  372.21
     51.1700	  613.00	  647.22	-1788.47	  372.24
     51.2700	  646.00	  623.58	-1731.83	  372.26
     51.3700	  604.00	  603.55	-1753.80	  372.29
     51.4700	  606.00	  586.28	-1734.53	  372.32
     51.5700	  561.00	  572.05	-1765.30	  372.36
     51.6700	  532.00	  561.30	-1783.55	  372.39
     51.7700	  563.00	  553.37	-1744.62	  372.42
     51.8700	  525.00	  548.03	-1777.28	  372.46
     51.9700	  530.00	  544.72	-1768.97	  372.50
     52.0700	  555.00	  542.96	-1742.21	  372.54
     52.1700	  548.00	  542.45	-1748.70	  372.58
     52.2700	  549.00	  543.09	-1748.34	  372.62
     52.3700	  558.00	  545.09	-1741.34	  372.66
     52.4700	  571.00	  549.06	-1732.31	  372.71
     52.5700	  578.00	  556.35	-1732.60	  372.75
     52.6700	  598.00	  569.45	-1725.70	  372.80
     52.7700	  608.00	  592.39	-1738.64	  372.85
     52.8700	  633.00	  630.64	-1751.89	  372.90
     52.9700	  733.00	  690.04	-1711.29	  372.95
     53.0700	  857.00	  774.46	-1671.71	  373.00
     53.1700	  927.00	  882.53	-1709.78	  373.05
     53.2700	 1101.00	 1004.18	-1657.43	  373.11
     53.3700	 1128.00	 1118.33	-1744.58	  373.16
     53.4700	 1138.00	 1194.20	-1810.45	  373.22
     53.5700	 1233.00	 1203.50	-1724.75	  373.28
     53.6700	 1055.00	 1141.81	-1841.06	  373.34
     53.7700	 1003.00	 1033.49	-1784.74	  373.40
     53.8700	  824.00	  911.16	-1841.41	  373.46
     53.9700	  859.00	  798.84	-1694.09	  373.53
     54.0700	  701.00	  708.96	-1762.21	  373.59
     54.1700	  654.00	  644.56	-1744.81	  373.66
     54.2700	  601.00	  602.59	-1755.84	  373.73
     54.3700	  570.00	  577.35	-1761.60	  373.79
     54.4700	  545.00	  563.08	-1772.33	  373.86
     54.5700	  549.00	  555.38	-1760.63	  373.93
     54.6700	  541.00	  551.38	-1764.63	  374.01
     54.7700	  615.00	  549.52	-1688.77	  374.08
     54.8700	  568.00	  549.02	-1735.27	  374.15
     54.9700	  578.00	  549.54	-1725.79	  374.23
     55.0700	  582.00	  550.96	-1723.21	  374.31
     55.1700	  584.00	  553.24	-1723.49	  374.38
     55.2700	  601.00	  556.42	-1709.67	  374.46
     55.3700	  606.00	  560.68	-1708.93	  374.54
     55.4700	  579.00	  566.24	-1741.49	  374.62
     55.5700	  542.00	  573.54	-1785.79	  374.71
     55.6700	  581.00	  583.46	-1756.71	  374.79
     55.7700	  609.00	  597.79	-1743.04	  374.87
     55.8700	  620.00	  619.96	-1754.21	  374.96
     55.9700	  623.00	  656.09	-1787.34	  375.04
     56.0700	  687.00	  716.02	-1783.27	  375.13
     56.1700	  803.00	  813.42	-1764.67	  375.22
     56.2700	  899.00	  963.97	-1819.22	  375.31
     56.3700	 1088.00	 1180.61	-1846.86	  375.40
     56.4700	 1442.00	 1466.33	-1778.58	  375.49
     56.5700	 1750.00	 1806.07	-1810.32	  375.58
     56.6700	 2141.00	 2159.73	-1772.98	  375.68
     56.7700	 2352.00	 2459.71	-1861.96	  375.77
     56.8700	 2563.00	 2621.99	-1813.24	  375.87
     56.9700	 2671.00	 2587.54	-1670.79	  375.96
     57.0700	 2383.00	 2369.43	-1740.68	  376.06
     57.1700	 2040.00	 2042.45	-1756.70	  376.16
     57.2700	 1611.00	 1688.98	-1832.23	  376.26
     57.3700	 1284.00	 1367.54	-1837.79	  376.36
     57.4700	 1056.00	 1108.75	-1807.00	  376.46
     57.5700	  913.00	  920.49	-1761.74	  376.56
     57.6700	  800.00	  795.71	-1749.96	  376.66
     57.7700	  768.00	  720.38	-1706.63	  376.77
     57.8700	  658.00	  680.30	-1776.55	  376.87
     57.9700	  704.00	  664.82	-1715.07	  376.98
     58.0700	  706.00	  667.85	-1716.10	  377.08
     58.1700	  701.00	  687.01	-1740.26	  377.19
     58.2700	  745.00	  721.97	-1731.22	  377.30
     58.3700	  747.00	  772.76	-1780.01	  377.40
     58.4700	  834.00	  838.09	-1758.34	  377.51
     58.5700	  912.00	  913.97	-1756.22	  377.62
     58.6700	 1114.00	  993.02	-1633.27	  377.74
     58.7700	 1146.00	 1066.43	-1674.68	  377.85
     58.8700	 1329.00	 1127.92	-1553.17	  377.96
     58.9700	 1352.00	 1174.29	-1576.54	  378.07
     59.0700	 1437.00	 1201.50	-1518.75	  378.19
     59.1700	 1401.00	 1205.33	-1558.58	  378.30
     59.2700	 1333.00	 1188.30	-1609.55	  378.42
     59.3700	 1254.00	 1160.98	-1661.23	  378.53
     59.4700	 1261.00	 1134.96	-1628.21	  378.65
     59.5700	 1199.00	 1118.66	-1673.91	  378.77
     59.6700	 1191.00	 1119.72	-1682.97	  378.89
     59.7700	 1067.00	 1146.68	-1833.93	  379.00
     59.8700	 1278.00	 1204.77	-1681.02	  379.12
     59.9700	 1313.00	 1290.05	-1731.30	  379.24
     60.0700	 1451.00	 1386.72	-1689.97	  379.36
     60.1700	 1517.00	 1467.73	-1704.98	  379.49
     60.2700	 1554.00	 1500.89	-1701.14	  379.61
     60.3700	 1533.00	 1464.94	-1686.19	  379.73
     60.4700	 1391.00	 1364.75	-1728.00	  379.85
     60.5700	 1327.00	 1226.18	-1653.43	  379.98
     60.6700	 1088.00	 1078.14	-1744.39	  380.10
     60.7700	  886.00	  942.21	-1810.46	  380.23
     60.8700	  841.00	  830.81	-1744.06	  380.35
     60.9700	  714.00	  748.66	-1788.91	  380.48
     61.0700	  638.00	  695.10	-1811.35	  380.61
     61.1700	  614.00	  667.11	-1807.36	  380.73
     61.2700	  641.00	  661.90	-1775.15	  380.86
     61.3700	  669.00	  678.67	-1763.92	  380.99
     61.4700	  667.00	  718.82	-1806.07	  381.12
     61.5700	  741.00	  784.88	-1798.13	  381.25
     61.6700	  866.00	  878.44	-1766.69	  381.38
     61.7700	  981.00	  997.31	-1770.56	  381.51
     61.8700	 1064.00	 1133.20	-1823.45	  381.64
     61.9700	 1164.00	 1269.89	-1860.14	  381.77
     62.0700	 1360.00	 1383.09	-1777.34	  381.90
     62.1700	 1453.00	 1444.48	-1745.73	  382.03
     62.2700	 1370.00	 1434.41	-1818.66	  382.16
     62.3700	 1302.00	 1355.67	-1807.92	  382.30
     62.4700	 1122.00	 1231.46	-1863.71	  382.43
     62.5700	 1052.00	 1090.01	-1792.26	  382.56
     62.6700	  889.00	  953.72	-1818.97	  382.70
     62.7700	  755.00	  836.52	-1835.77	  382.83
     62.8700	  711.00	  744.55	-1787.80	  382.97
     62.9700	  656.00	  677.94	-1776.19	  383.10
     63.0700	  577.00	  633.04	-1810.29	  383.24
     63.1700	  609.00	  604.66	-1749.91	  383.37
     63.2700	  586.00	  587.86	-1756.11	  383.51
     63.3700	  627.00	  578.85	-1706.10	  383.64
     63.4700	  578.00	  575.32	-1751.57	  383.78
     63.5700	  564.00	  576.38	-1766.63	  383.92
     63.6700	  536.00	  582.35	-1800.60	  384.05
     63.7700	  598.00	  594.45	-1750.70	  384.19
     63.8700	  636.00	  614.50	-1732.75	  384.33
     63.9700	  707.00	  644.39	-1691.64	  384.47
     64.0700	  768.00	  685.33	-1671.58	  384.60
     64.1700	  778.00	  737.11	-1713.36	  384.74
     64.2700	  905.00	  797.28	-1646.53	  384.88
     64.3700	  878.00	  860.46	-1736.71	  385.02
     64.4700	  969.00	  917.73	-1702.98	  385.16
     64.5700	  938.00	  959.67	-1775.92	  385.29
     64.6700	 1013.00	  977.41	-1718.66	  385.43
     64.7700	  996.00	  968.29	-1726.54	  385.57
     64.8700	 1020.00	  936.00	-1670.25	  385.71
     64.9700	  925.00	  888.11	-1717.36	  385.85
     65.0700	  890.00	  833.62	-1697.87	  385.99
     65.1700	  753.00	  780.21	-1781.46	  386.13
     65.2700	  728.00	  732.53	-1758.78	  386.27
     65.3700	  666.00	  692.29	-1780.54	  386.41
     65.4700	  675.00	  659.32	-1738.57	  386.55
     65.5700	  644.00	  632.90	-1743.15	  386.69
     65.6700	  584.00	  612.26	-1782.51	  386.83
     65.7700	  605.00	  596.60	-1745.85	  386.97
     65.8700	  576.00	  585.13	-1763.38	  387.11
     65.9700	  571.00	  577.14	-1760.39	  387.25
     66.0700	  547.00	  572.14	-1779.39	  387.39
     66.1700	  556.00	  569.41	-1767.66	  387.53
     66.2700	  586.00	  568.67	-1736.92	  387.67
     66.3700	  600.00	  569.64	-1723.89	  387.81
     66.4700	  563.00	  572.18	-1763.43	  387.95
     66.5700	  529.00	  576.37	-1801.62	  388.09
     66.6700	  596.00	  582.64	-1740.89	  388.22
     66.7700	  545.00	  591.96	-1801.21	  388.36
     66.8700	  570.00	  606.13	-1790.38	  388.50
     66.9700	  626.00	  628.17	-1756.42	  388.64
     67.0700	  644.00	  662.74	-1772.99	  388.78
     67.1700	  719.00	  716.27	-1751.52	  388.92
     67.2700	  815.00	  796.78	-1736.03	  389.06
     67.3700	  920.00	  912.30	-1746.55	  389.20
     67.4700	 1098.00	 1069.56	-1725.81	  389.34
     67.5700	 1251.00	 1270.22	-1773.47	  389.48
     67.6700	 1519.00	 1508.90	-1744.15	  389.61
     67.7700	 1728.00	 1770.19	-1796.44	  389.75
     67.8700	 2073.00	 2027.22	-1708.47	  389.89
     67.9700	 2239.00	 2242.18	-1757.43	  390.03
     68.0700	 2324.00	 2371.96	-1802.21	  390.17
     68.1700	 2423.00	 2383.90	-1715.15	  390.30
     68.2700	 2257.00	 2274.57	-1771.82	  390.44
     68.3700	 2128.00	 2072.48	-1698.73	  390.58
     68.4700	 1954.00	 1820.27	-1620.52	  390.71
     68.5700	 1522.00	 1557.80	-1790.05	  390.85
     68.6700	 1309.00	 1313.86	-1759.11	  390.99
     68.7700	 1081.00	 1105.89	-1779.14	  391.12
     68.8700	  924.00	  941.15	-1771.40	  391.26
     68.9700	  731.00	  818.84	-1842.09	  391.39
     69.0700	  729.00	  733.06	-1758.31	  391.53
     69.1700	  658.00	  675.71	-1771.96	  391.66
     69.2700	  678.00	  638.68	-1714.93	  391.79
     69.3700	  604.00	  615.22	-1765.47	  391.93
     69.4700	  604.00	  600.35	-1750.60	  392.06
     69.5700	  557.00	  590.73	-1787.98	  392.19
     69.6700	  576.00	  584.31	-1762.56	  392.33
     69.7700	  532.00	  579.93	-1802.18	  392.46
     69.8700	  550.00	  576.91	-1781.16	  392.59
     69.9700	  530.00	  574.95	-1799.20	  392.72
     70.0700	  553.00	  573.87	-1775.12	  392.85
     70.1700	  585.00	  573.62	-1742.87	  392.98
     70.2700	  603.00	  574.25	-1725.50	  393.11
     70.3700	  516.00	  575.83	-1814.08	  393.24
     70.4700	  574.00	  578.71	-1758.96	  393.37
     70.5700	  569.00	  583.37	-1768.62	  393.50
     70.6700	  569.00	  590.79	-1776.04	  393.63
     70.7700	  610.00	  602.56	-1746.81	  393.76
     70.8700	  618.00	  621.12	-1757.37	  393.88
     70.9700	  625.00	  649.94	-1779.19	  394.01
     71.0700	  669.00	  693.54	-1778.79	  394.14
     71.1700	  727.00	  757.07	-1784.32	  394.26
     71.2700	  827.00	  845.52	-1772.77	  394.39
     71.3700	  970.00	  962.48	-1746.73	  394.51
     71.4700	 1092.00	 1108.37	-1770.62	  394.64
     71.5700	 1280.00	 1279.06	-1753.31	  394.76
     71.6700	 1408.00	 1464.39	-1810.64	  394.88
     71.7700	 1554.00	 1648.40	-1848.65	  395.00
     71.8700	 1813.00	 1806.50	-1747.75	  395.13
     71.9700	 1890.00	 1912.67	-1776.92	  395.25
     72.0700	 1860.00	 1944.31	-1838.56	  395.37
     72.1700	 1915.00	 1893.79	-1733.04	  395.49
     72.2700	 1738.00	 1773.19	-1789.44	  395.61
     72.3700	 1633.00	 1607.11	-1728.36	  395.72
     72.4700	 1487.00	 1421.90	-1689.15	  395.84
     72.5700	 1328.00	 1239.09	-1665.34	  395.96
     72.6700	 1109.00	 1073.73	-1718.98	  396.08
     72.7700	 1013.00	  933.87	-1675.12	  396.19
     72.8700	  883.00	  823.25	-1694.50	  396.31
     72.9700	  818.00	  740.07	-1676.32	  396.42
     73.0700	  721.00	  680.36	-1713.61	  396.53
     73.1700	  734.00	  639.10	-1659.35	  396.65
     73.2700	  643.00	  611.32	-1722.57	  396.76
     73.3700	  687.00	  592.85	-1660.10	  396.87
     73.4700	  643.00	  580.52	-1691.77	  396.98
     73.5700	  596.00	  572.14	-1730.39	  397.09
     73.6700	  564.00	  566.32	-1756.57	  397.20
     73.7700	  582.00	  562.21	-1734.46	  397.31
     73.8700	  626.00	  559.30	-1687.55	  397.42
     73.9700	  640.00	  557.30	-1671.55	  397.52
     74.0700	  597.00	  556.02	-1713.27	  397.63
     74.1700	  613.00	  555.29	-1696.54	  397.73
     74.2700	  580.00	  554.94	-1729.19	  397.84
     74.3700	  619.00	  554.80	-1690.05	  397.94
     74.4700	  611.00	  554.67	-1697.92	  398.04
     74.5700	  599.00	  554.34	-1709.59	  398.15
     74.6700	  654.00	  553.65	-1653.90	  398.25
     74.7700	  560.00	  552.58	-1746.83	  398.35
     74.8700	  621.00	  551.23	-1684.48	  398.45
     74.9700	  600.00	  549.82	-1704.07	  398.54
     75.0700	  615.00	  548.60	-1687.85	  398.64
     75.1700	  621.00	  547.79	-1681.04	  398.74
     75.2700	  557.00	  547.81	-1745.06	  398.83
     75.3700	  602.00	  548.95	-1701.20	  398.93
     75.4700	  529.00	  551.63	-1776.88	  399.02
     75.5700	  577.00	  556.32	-1733.57	  399.11
     75.6700	  590.00	  563.39	-1727.64	  399.21
     75.7700	  610.00	  573.44	-1717.69	  399.30
     75.8700	  588.00	  586.60	-1752.85	  399.39
     75.9700	  648.00	  602.80	-1709.05	  399.47
     76.0700	  642.00	  621.54	-1733.79	  399.56
     76.1700	  680.00	  641.72	-1715.97	  399.65
     76.2700	  641.00	  661.86	-1775.11	  399.74
     76.3700	  684.00	  679.72	-1749.97	  399.82
     76.4700	  683.00	  692.81	-1764.06	  399.90
     76.5700	  720.00	  698.79	-1733.04	  399.99
     76.6700	  653.00	  696.41	-1797.66	  400.07
     76.7700	  642.00	  686.15	-1798.40	  400.15
     76.8700	  641.00	  669.93	-1783.18	  400.23
     76.9700	  592.00	  650.25	-1812.50	  400.31
     77.0700	  589.00	  629.49	-1794.74	  400.39
     77.1700	  605.00	  609.32	-1758.57	  400.46
     77.2700	  546.00	  591.39	-1799.64	  400.54
     77.3700	  593.00	  576.25	-1737.50	  400.61
     77.4700	  569.00	  564.13	-1749.38	  400.68
     77.5700	  524.00	  554.89	-1785.14	  400.76
     77.6700	  528.00	  548.14	-1774.39	  400.83
     77.7700	  545.00	  543.40	-1752.65	  400.90
     77.8700	  530.00	  540.17	-1764.42	  400.97
     77.9700	  520.00	  538.02	-1772.27	  401.03
     78.0700	  527.00	  536.61	-1763.86	  401.10
     78.1700	  516.00	  535.68	-1773.93	  401.17
     78.2700	  558.00	  535.08	-1731.33	  401.23
     78.3700	  492.00	  534.70	-1796.95	  401.29
     78.4700	  505.00	  534.47	-1783.72	  401.36
     78.5700	  541.00	  534.36	-1747.61	  401.42
     78.6700	  522.00	  534.38	-1766.63	  401.48
     78.7700	  542.00	  534.53	-1746.78	  401.54
     78.8700	  567.00	  534.82	-1722.07	  401.59
     78.9700	  547.00	  535.29	-1742.54	  401.65
     79.0700	  537.00	  535.98	-1753.23	  401.70
     79.1700	  520.00	  536.91	-1771.16	  401.76
     79.2700	  517.00	  538.15	-1775.40	  401.81
     79.3700	  493.00	  539.72	-1800.97	  401.86
     79.4700	  500.00	  541.66	-1795.91	  401.91
     79.5700	  555.00	  543.85	-1743.10	  401.96
     79.6700	  515.00	  546.68	-1785.93	  402.01
     79.7700	  506.00	  550.05	-1798.30	  402.05
     79.8700	  545.00	  554.04	-1763.29	  402.10
     79.9700	  542.00	  558.78	-1771.03	  402.14
     80.0700	  509.00	  564.48	-1809.73	  402.19
     80.1700	  536.00	  571.42	-1789.67	  402.23
     80.2700	  585.00	  579.94	-1749.19	  402.27
     80.3700	  559.00	  590.39	-1785.64	  402.31
     80.4700	  601.00	  603.00	-1756.25	  402.34
     80.5700	  622.00	  617.77	-1750.02	  402.38
     80.6700	  614.00	  634.41	-1774.66	  402.41
     80.7700	  656.00	  652.30	-1750.55	  402.45
     80.8700	  691.00	  670.45	-1733.70	  402.48
     80.9700	  692.00	  687.68	-1749.93	  402.51
     81.0700	  670.00	  702.77	-1787.02	  402.54
     81.1700	  734.00	  714.70	-1734.95	  402.57
     81.2700	  749.00	  722.69	-1727.94	  402.60
     81.3700	  763.00	  726.22	-1717.47	  402.62
     81.4700	  740.00	  725.08	-1739.33	  402.65
     81.5700	  752.00	  719.41	-1721.66	  402.67
     81.6700	  734.00	  709.58	-1729.83	  402.69
     81.7700	  740.00	  696.19	-1710.44	  402.71
     81.8700	  698.00	  680.16	-1736.41	  402.73
     81.9700	  687.00	  662.64	-1729.89	  402.75
     82.0700	  680.00	  644.82	-1719.07	  402.76
     82.1700	  617.00	  627.68	-1764.93	  402.78
     82.2700	  650.00	  611.90	-1716.15	  402.79
     82.3700	  694.00	  597.86	-1658.11	  402.80
     82.4700	  630.00	  585.77	-1710.02	  402.81
     82.5700	  591.00	  575.71	-1738.96	  402.82
     82.6700	  560.00	  567.61	-1761.86	  402.83
     82.7700	  521.00	  561.55	-1794.80	  402.84
     82.8700	  548.00	  557.38	-1763.63	  402.84
     82.9700	  553.00	  554.95	-1756.20	  402.85
     83.0700	  522.00	  554.22	-1786.47	  402.85
     83.1700	  541.00	  555.03	-1768.28	  402.85
     83.2700	  563.00	  557.25	-1748.50	  402.85
     83.3700	  554.00	  560.68	-1760.93	  402.85
     83.4700	  569.00	  565.05	-1750.30	  402.84
     83.5700	  547.00	  570.03	-1777.28	  402.84
     83.6700	  590.00	  575.19	-1739.44	  402.83
     83.7700	  514.00	  579.99	-1820.24	  402.83
     83.8700	  585.00	  583.86	-1753.11	  402.82
     83.9700	  598.00	  586.21	-1742.46	  402.81
     84.0700	  583.00	  586.65	-1757.90	  402.79
     84.1700	  551.00	  585.04	-1788.29	  402.78
     84.2700	  567.00	  581.60	-1768.85	  402.77
     84.3700	  553.00	  576.79	-1778.04	  402.75
     84.4700	  548.00	  571.16	-1777.41	  402.73
     84.5700	  585.00	  565.23	-1734.48	  402.71
     84.6700	  573.00	  559.42	-1740.67	  402.69
     84.7700	  541.00	  554.07	-1767.32	  402.67
     84.8700	  538.00	  549.37	-1765.62	  402.65
     84.9700	  560.00	  545.44	-1739.69	  402.62
     85.0700	  506.00	  542.29	-1790.54	  402.59
     85.1700	  567.00	  539.88	-1727.13	  402.57
     85.2700	  578.00	  538.13	-1714.38	  402.54
     85.3700	  548.00	  536.93	-1743.18	  402.51
     85.4700	  509.00	  536.19	-1781.44	  402.47
     85.5700	  510.00	  535.83	-1780.08	  402.44
     85.6700	  529.00	  535.83	-1761.08	  402.40
     85.7700	  562.00	  536.16	-1728.41	  402.37
     85.8700	  543.00	  536.86	-1748.11	  402.33
     85.9700	  540.00	  538.02	-1752.27	  402.29
     86.0700	  526.00	  539.74	-1767.99	  402.25
     86.1700	  548.00	  542.19	-1748.44	  402.21
     86.2700	  597.00	  545.53	-1702.78	  402.16
     86.3700	  535.00	  549.95	-1769.20	  402.12
     86.4700	  557.00	  555.61	-1752.86	  402.07
     86.5700	  562.00	  562.59	-1754.84	  402.02
     86.6700	  549.00	  570.92	-1776.17	  401.97
     86.7700	  586.00	  580.46	-1748.71	  401.92
     86.8700	  605.00	  590.95	-1740.20	  401.87
     86.9700	  623.00	  601.93	-1733.18	  401.81
     87.0700	  637.00	  612.79	-1730.04	  401.75
     87.1700	  598.00	  622.74	-1778.99	  401.70
     87.2700	  637.00	  630.89	-1748.14	  401.64
     87.3700	  663.00	  636.03	-1727.28	  401.58
     87.4700	  627.00	  638.16	-1765.41	  401.52
     87.5700	  654.00	  636.70	-1736.95	  401.45
     87.6700	  622.00	  631.91	-1764.16	  401.39
     87.7700	  629.00	  624.51	-1749.76	  401.32
     87.8700	  594.00	  615.43	-1775.68	  401.25
     87.9700	  636.00	  605.62	-1723.87	  401.18
     88.0700	  617.00	  595.95	-1733.20	  401.11
     88.1700	  588.00	  587.14	-1753.39	  401.04
     88.2700	  614.00	  579.74	-1719.99	  400.96
     88.3700	  598.00	  574.12	-1730.37	  400.89
     88.4700	  618.00	  570.48	-1706.73	  400.81
     88.5700	  612.00	  568.85	-1711.10	  400.73
     88.6700	  554.00	  569.10	-1769.35	  400.65
     88.7700	  603.00	  570.96	-1722.21	  400.57
     88.8700	  532.00	  574.09	-1796.34	  400.49
     88.9700	  574.00	  578.04	-1758.29	  400.41
     89.0700	  598.00	  582.27	-1738.52	  400.32
     89.1700	  527.00	  586.26	-1813.51	  400.23
     89.2700	  587.00	  589.42	-1756.67	  400.14
     89.3700	  572.00	  591.27	-1773.52	  400.05
     89.4700	  567.00	  591.45	-1778.70	  399.96
     89.5700	  590.00	  589.88	-1754.13	  399.87
     89.6700	  591.00	  586.70	-1749.95	  399.77
     89.7700	  563.00	  582.27	-1773.52	  399.68
     89.8700	  599.00	  577.03	-1732.28	  399.58
     89.9700	  515.00	  571.40	-1810.65	  399.48
     90.0700	  548.00	  565.75	-1772.00	  399.38
     90.1700	  552.00	  560.40	-1762.65	  399.28
     90.2700	  538.00	  555.56	-1771.81	  399.18
     90.3700	  527.00	  551.36	-1778.61	  399.07
     90.4700	  535.00	  547.88	-1767.13	  398.96
     90.5700	  532.00	  545.12	-1767.37	  398.86
     90.6700	  528.00	  543.04	-1769.29	  398.75
     90.7700	  529.00	  541.58	-1766.83	  398.64
     90.8700	  512.00	  540.66	-1782.91	  398.52
     90.9700	  484.00	  540.21	-1810.46	  398.41
     91.0700	  529.00	  540.20	-1765.45	  398.30
     91.1700	  556.00	  540.58	-1738.83	  398.18
     91.2700	  508.00	  541.39	-1787.64	  398.06
     91.3700	  518.00	  542.66	-1778.91	  397.94
     91.4700	  517.00	  544.49	-1781.74	  397.82
     91.5700	  571.00	  547.02	-1730.27	  397.70
     91.6700	  560.00	  550.40	-1744.65	  397.58
     91.7700	  553.00	  554.84	-1756.09	  397.45
     91.8700	  558.00	  560.56	-1756.81	  397.33
     91.9700	  568.00	  567.77	-1754.02	  397.20
     92.0700	  527.00	  576.66	-1803.91	  397.07
     92.1700	  569.00	  587.37	-1772.62	  396.94
     92.2700	  572.00	  599.96	-1782.21	  396.81
     92.3700	  598.00	  614.40	-1770.65	  396.68
     92.4700	  640.00	  630.52	-1744.77	  396.54
     92.5700	  636.00	  647.77	-1766.02	  396.41
     92.6700	  701.00	  666.20	-1719.45	  396.27
     92.7700	  680.00	  684.94	-1759.19	  396.13
     92.8700	  658.00	  703.29	-1799.54	  395.99
     92.9700	  714.00	  720.47	-1760.72	  395.85
     93.0700	  744.00	  735.79	-1746.04	  395.71
     93.1700	  758.00	  748.85	-1745.10	  395.56
     93.2700	  767.00	  759.61	-1746.86	  395.42
     93.3700	  792.00	  768.40	-1730.65	  395.27
     93.4700	  763.00	  775.77	-1767.02	  395.12
     93.5700	  805.00	  782.31	-1731.56	  394.98
     93.6700	  813.00	  788.56	-1729.81	  394.83
     93.7700	  881.00	  795.01	-1668.26	  394.67
     93.8700	  829.00	  802.12	-1727.37	  394.52
     93.9700	  868.00	  810.43	-1696.68	  394.37
     94.0700	  816.00	  820.40	-1758.65	  394.21
     94.1700	  866.00	  832.33	-1720.58	  394.06
     94.2700	  850.00	  846.18	-1750.43	  393.90
     94.3700	  912.00	  861.44	-1703.69	  393.74
     94.4700	  878.00	  877.16	-1753.41	  393.58
     94.5700	  901.00	  891.94	-1745.19	  393.42
     94.6700	  937.00	  904.08	-1721.33	  393.25
     94.7700	  940.00	  911.77	-1726.02	  393.09
     94.8700	  917.00	  913.39	-1750.64	  392.93
     94.9700	  952.00	  907.98	-1710.23	  392.76
     95.0700	  846.00	  895.43	-1803.68	  392.59
     95.1700	  865.00	  876.61	-1765.86	  392.42
     95.2700	  860.00	  853.04	-1747.29	  392.25
     95.3700	  818.00	  826.64	-1762.89	  392.08
     95.4700	  761.00	  799.42	-1792.67	  391.91
     95.5700	  768.00	  773.29	-1759.54	  391.74
     95.6700	  746.00	  750.05	-1758.30	  391.56
     95.7700	  701.00	  731.32	-1784.57	  391.39
     95.8700	  722.00	  718.55	-1750.80	  391.21
     95.9700	  683.00	  712.97	-1784.22	  391.03
     96.0700	  732.00	  715.67	-1737.92	  390.86
     96.1700	  670.00	  727.51	-1811.76	  390.68
     96.2700	  744.00	  749.14	-1759.39	  390.49
     96.3700	  735.00	  780.94	-1800.19	  390.31
     96.4700	  779.00	  822.97	-1798.22	  390.13
     96.5700	  924.00	  874.86	-1705.11	  389.95
     96.6700	  930.00	  935.77	-1760.02	  389.76
     96.7700	 1025.00	 1004.25	-1733.50	  389.57
     96.8700	 1128.00	 1078.20	-1704.45	  389.39
     96.9700	 1156.00	 1154.88	-1753.13	  389.20
     97.0700	 1201.00	 1230.90	-1784.15	  389.01
     97.1700	 1263.00	 1302.27	-1793.52	  388.82
     97.2700	 1341.00	 1364.61	-1777.86	  388.63
     97.3700	 1389.00	 1413.46	-1778.71	  388.44
     97.4700	 1407.00	 1444.94	-1792.19	  388.24
     97.5700	 1447.00	 1456.45	-1763.70	  388.05
     97.6700	 1405.00	 1447.29	-1796.54	  387.86
     97.7700	 1361.00	 1418.77	-1812.02	  387.66
     97.8700	 1366.00	 1373.89	-1762.14	  387.46
     97.9700	 1309.00	 1316.59	-1761.84	  387.27
     98.0700	 1261.00	 1251.14	-1744.39	  387.07
     98.1700	 1201.00	 1181.70	-1734.95	  386.87
     98.2700	 1094.00	 1112.11	-1772.36	  386.67
     98.3700	 1049.00	 1045.74	-1750.99	  386.47
     98.4700	  929.00	  985.43	-1810.68	  386.27
     98.5700	  886.00	  933.52	-1801.77	  386.06
     98.6700	  855.00	  891.80	-1791.05	  385.86
     98.7700	  838.00	  861.75	-1778.00	  385.66
     98.8700	  809.00	  844.37	-1789.62	  385.45
     98.9700	  854.00	  840.40	-1740.65	  385.25
     99.0700	  849.00	  850.28	-1755.53	  385.04
     99.1700	  868.00	  874.26	-1760.51	  384.83
     99.2700	  921.00	  912.36	-1745.61	  384.63
     99.3700	  940.00	  964.36	-1778.61	  384.42
     99.4700	  969.00	 1029.72	-1814.97	  384.21
     99.5700	 1060.00	 1107.54	-1801.79	  384.00
     99.6700	 1166.00	 1196.45	-1784.70	  383.79
     99.7700	 1249.00	 1294.49	-1799.74	  383.58
     99.8700	 1414.00	 1399.10	-1739.35	  383.37
     99.9700	 1543.00	 1507.01	-1718.26	  383.15
    100.0700	 1627.00	 1614.37	-1741.62	  382.94
    100.1700	 1737.00	 1716.84	-1734.09	  382.73
    100.2700	 1881.00	 1810.05	-1683.30	  382.51
    100.3700	 1936.00	 1890.05	-1708.30	  382.30
    100.4700	 1886.00	 1953.62	-1821.87	  382.09
    100.5700	 2044.00	 1998.53	-1708.78	  381.87
    100.6700	 2019.00	 2023.35	-1758.60	  381.65
    100.7700	 2097.00	 2027.30	-1684.55	  381.44
    100.8700	 1980.00	 2010.22	-1784.47	  381.22
    100.9700	 1950.00	 1972.81	-1777.06	  381.00
    101.0700	 1891.00	 1916.94	-1780.19	  380.79
    101.1700	 1939.00	 1845.85	-1661.10	  380.57
    101.2700	 1823.00	 1763.90	-1695.15	  380.35
    101.3700	 1635.00	 1675.96	-1795.21	  380.13
    101.4700	 1661.00	 1586.86	-1680.11	  379.91
    101.5700	 1501.00	 1500.86	-1754.11	  379.69
    101.6700	 1413.00	 1421.36	-1762.61	  379.47
    101.7700	 1360.00	 1350.76	-1745.01	  379.25
    101.8700	 1285.00	 1290.44	-1759.69	  379.03
    101.9700	 1221.00	 1240.81	-1774.06	  378.81
    102.0700	 1253.00	 1201.40	-1702.65	  378.59
    102.1700	 1183.00	 1170.90	-1742.15	  378.37
    102.2700	 1166.00	 1147.35	-1735.60	  378.15
    102.3700	 1167.00	 1128.35	-1715.60	  377.92
    102.4700	 1134.00	 1111.28	-1731.53	  377.70
    102.5700	 1050.00	 1093.62	-1797.87	  377.48
    102.6700	 1072.00	 1073.32	-1755.57	  377.26
    102.7700	 1000.00	 1049.00	-1803.25	  377.04
    102.8700	  997.00	 1020.16	-1777.41	  376.81
    102.9700	  992.00	  987.06	-1749.31	  376.59
    103.0700	  979.00	  950.49	-1725.74	  376.37
    103.1700	  910.00	  911.57	-1755.82	  376.15
    103.2700	  866.00	  871.51	-1759.76	  375.92
    103.3700	  757.00	  831.51	-1828.76	  375.70
    103.4700	  791.00	  792.65	-1755.90	  375.48
    103.5700	  787.00	  755.84	-1723.09	  375.26
    103.6700	  754.00	  721.79	-1722.04	  375.03
    103.7700	  727.00	  691.02	-1718.27	  374.81
    103.8700	  668.00	  663.83	-1750.08	  374.59
    103.9700	  662.00	  640.32	-1732.57	  374.37
    104.0700	  643.00	  620.42	-1731.67	  374.14
    104.1700	  617.00	  603.94	-1741.19	  373.92
    104.2700	  590.00	  590.59	-1754.84	  373.70
    104.3700	  552.00	  580.02	-1782.27	  373.48
    104.4700	  558.00	  571.86	-1768.11	  373.26
    104.5700	  614.00	  565.74	-1705.99	  373.04
    104.6700	  594.00	  561.32	-1721.57	  372.82
    104.7700	  581.00	  558.28	-1731.53	  372.60
    104.8700	  535.00	  556.38	-1775.63	  372.38
    104.9700	  542.00	  555.39	-1767.64	  372.16
    105.0700	  507.00	  555.15	-1802.40	  371.94
    105.1700	  537.00	  555.54	-1772.79	  371.72
    105.2700	  552.00	  556.46	-1758.71	  371.50
    105.3700	  548.00	  557.90	-1764.15	  371.28
    105.4700	  557.00	  559.85	-1757.10	  371.06
    105.5700	  580.00	  562.34	-1736.59	  370.85
    105.6700	  557.00	  565.43	-1762.68	  370.63
    105.7700	  568.00	  569.21	-1755.46	  370.41
    105.8700	  550.00	  573.75	-1778.00	  370.20
    105.9700	  591.00	  579.17	-1742.42	  369.98
    106.0700	  625.00	  585.49	-1714.74	  369.77
    106.1700	  594.00	  592.75	-1753.00	  369.56
    106.2700	  556.00	  600.88	-1799.13	  369.34
    106.3700	  591.00	  609.81	-1773.06	  369.13
    106.4700	  581.00	  619.38	-1792.63	  368.92
    106.5700	  607.00	  629.38	-1776.63	  368.71
    106.6700	  626.00	  639.53	-1767.78	  368.50
    106.7700	  692.00	  649.52	-1711.77	  368.29
    106.8700	  662.00	  659.00	-1751.25	  368.08
    106.9700	  699.00	  667.59	-1722.84	  367.87
    107.0700	  638.00	  674.95	-1791.20	  367.67
    107.1700	  663.00	  680.79	-1772.04	  367.46
    107.2700	  716.00	  684.93	-1723.18	  367.26
    107.3700	  692.00	  687.34	-1749.59	  367.05
    107.4700	  675.00	  688.18	-1767.43	  366.85
    107.5700	  726.00	  687.72	-1715.97	  366.65
    107.6700	  648.00	  686.33	-1792.58	  366.45
    107.7700	  701.00	  684.43	-1737.68	  366.25
    107.8700	  658.00	  682.39	-1778.64	  366.05
    107.9700	  701.00	  680.55	-1733.80	  365.85
    108.0700	  671.00	  679.14	-1762.39	  365.65
    108.1700	  654.00	  678.31	-1778.56	  365.46
    108.2700	  673.00	  678.08	-1759.33	  365.26
    108.3700	  681.00	  678.39	-1751.64	  365.07
    108.4700	  723.00	  679.07	-1710.32	  364.88
    108.5700	  720.00	  679.84	-1714.09	  364.69
    108.6700	  690.00	  680.39	-1744.64	  364.50
    108.7700	  666.00	  680.35	-1768.60	  364.31
    108.8700	  696.00	  679.35	-1737.60	  364.13
    108.9700	  677.00	  677.10	-1754.35	  363.94
    109.0700	  683.00	  673.42	-1744.67	  363.76
    109.1700	  657.00	  668.23	-1765.48	  363.58
    109.2700	  632.00	  661.64	-1783.89	  363.40
    109.3700	  676.00	  653.83	-1732.08	  363.22
    109.4700	  662.00	  645.05	-1737.30	  363.04
    109.5700	  617.00	  635.62	-1772.87	  362.86
    109.6700	  640.00	  625.84	-1740.09	  362.69
    109.7700	  615.00	  615.99	-1755.24	  362.52
    109.8700	  603.00	  606.35	-1757.60	  362.35
    109.9700	  613.00	  597.14	-1738.39	  362.18
    110.0700	  588.00	  588.55	-1754.80	  362.01
    110.1700	  626.00	  580.72	-1708.97	  361.85
    110.2700	  554.00	  573.75	-1774.00	  361.68
    110.3700	  596.00	  567.70	-1725.95	  361.52
    110.4700	  588.00	  562.59	-1728.84	  361.36
    110.5700	  537.00	  558.41	-1775.66	  361.20
    110.6700	  532.00	  555.11	-1777.36	  361.05
    110.7700	  558.00	  552.63	-1748.88	  360.89
    110.8700	  618.00	  550.91	-1687.16	  360.74
    110.9700	  539.00	  549.86	-1765.11	  360.59
    111.0700	  536.00	  549.39	-1767.64	  360.44
    111.1700	  526.00	  549.44	-1777.69	  360.30
    111.2700	  588.00	  549.92	-1716.17	  360.15
    111.3700	  571.00	  550.78	-1734.03	  360.01
    111.4700	  543.00	  551.95	-1763.20	  359.87
    111.5700	  578.00	  553.38	-1729.63	  359.73
    111.6700	  554.00	  555.05	-1755.30	  359.60
    111.7700	  534.00	  556.92	-1777.17	  359.47
    111.8700	  556.00	  558.96	-1757.21	  359.34
    111.9700	  506.00	  561.19	-1809.44	  359.21
    112.0700	  530.00	  563.58	-1787.83	  359.08
    112.1700	  566.00	  566.16	-1754.41	  358.96
    112.2700	  604.00	  568.95	-1719.20	  358.84
    112.3700	  645.00	  571.97	-1681.22	  358.72
    112.4700	  598.00	  575.26	-1731.51	  358.61
    112.5700	  546.00	  578.87	-1787.12	  358.50
    112.6700	  599.00	  582.86	-1738.11	  358.39
    112.7700	  582.00	  587.32	-1759.57	  358.28
    112.8700	  597.00	  592.34	-1749.59	  358.18
    112.9700	  628.00	  598.06	-1724.31	  358.07
    113.0700	  627.00	  604.65	-1731.90	  357.97
    113.1700	  639.00	  612.33	-1727.58	  357.88
    113.2700	  673.00	  621.40	-1702.65	  357.79
    113.3700	  658.00	  632.21	-1728.46	  357.70
    113.4700	  714.00	  645.24	-1685.49	  357.61
    113.5700	  695.00	  661.08	-1720.33	  357.52
    113.6700	  737.00	  680.47	-1697.72	  357.44
    113.7700	  765.00	  704.32	-1693.57	  357.37
    113.8700	  812.00	  733.71	-1675.96	  357.29
    113.9700	  794.00	  769.95	-1730.20	  357.22
    114.0700	  848.00	  814.57	-1720.82	  357.15
    114.1700	  923.00	  869.30	-1700.55	  357.08
    114.2700	  996.00	  936.13	-1694.38	  357.02
    114.3700	 1033.00	 1017.18	-1738.43	  356.96
    114.4700	 1165.00	 1114.76	-1704.01	  356.91
    114.5700	 1318.00	 1231.21	-1667.46	  356.86
    114.6700	 1441.00	 1368.91	-1682.16	  356.81
    114.7700	 1596.00	 1530.11	-1688.36	  356.76
    114.8700	 1868.00	 1716.78	-1603.03	  356.72
    114.9700	 2069.00	 1930.49	-1615.74	  356.68
    115.0700	 2314.00	 2172.20	-1612.45	  356.65
    115.1700	 2467.00	 2442.24	-1729.49	  356.62
    115.2700	 2873.00	 2740.05	-1621.30	  356.59
    115.3700	 3209.00	 3063.97	-1609.22	  356.57
    115.4700	 3303.00	 3411.25	-1862.50	  356.55
    115.5700	 3722.00	 3777.86	-1810.11	  356.53
    115.6700	 4083.00	 4158.65	-1829.90	  356.52
    115.7700	 4349.00	 4547.23	-1952.48	  356.51
    115.8700	 4854.00	 4935.85	-1836.10	  356.51
    115.9700	 5226.00	 5315.75	-1844.00	  356.51
    116.0700	 5535.00	 5677.12	-1896.37	  356.51
    116.1700	 5890.00	 6009.57	-1873.82	  356.52
    116.2700	 6113.00	 6302.35	-1943.60	  356.53
    116.3700	 6432.00	 6544.81	-1867.06	  356.55
    116.4700	 6550.00	 6727.33	-1931.58	  356.57
    116.5700	 6834.00	 6842.11	-1762.36	  356.60
    116.6700	 7017.00	 6884.11	-1621.36	  356.62
    116.7700	 6836.00	 6851.58	-1769.83	  356.66
    116.8700	 6930.00	 6746.35	-1570.60	  356.70
    116.9700	 6577.00	 6573.62	-1750.87	  356.74
    117.0700	 6165.00	 6341.25	-1930.50	  356.79
    117.1700	 5866.00	 6058.82	-1947.07	  356.84
    117.2700	 5819.00	 5736.80	-1672.05	  356.89
    117.3700	 5323.00	 5385.89	-1817.14	  356.95
    117.4700	 5050.00	 5016.39	-1720.64	  357.02
    117.5700	 4675.00	 4637.93	-1717.18	  357.09
    117.6700	 4413.00	 4258.99	-1600.24	  357.16
    117.7700	 4000.00	 3886.96	-1641.21	  357.24
    117.8700	 3637.00	 3528.12	-1645.37	  357.33
    117.9700	 3295.00	 3187.43	-1646.68	  357.42
    118.0700	 2863.00	 2868.71	-1759.96	  357.51
    118.1700	 2605.00	 2574.48	-1723.73	  357.61
    118.2700	 2353.00	 2306.23	-1707.48	  357.72
    118.3700	 2105.00	 2064.61	-1713.86	  357.83
    118.4700	 1870.00	 1849.39	-1733.64	  357.94
    118.5700	 1659.00	 1659.72	-1754.97	  358.06
    118.6700	 1476.00	 1494.18	-1772.43	  358.19
    118.7700	 1318.00	 1350.98	-1787.23	  358.32
    118.8700	 1188.00	 1228.14	-1794.39	  358.45
    118.9700	 1091.00	 1123.53	-1786.78	  358.60
    119.0700	 1039.00	 1035.03	-1750.28	  358.74
    119.1700	  918.00	  960.53	-1796.78	  358.89
    119.2700	  866.00	  898.07	-1786.32	  359.05
    119.3700	  813.00	  845.87	-1787.12	  359.22
    119.4700	  737.00	  802.33	-1819.58	  359.39
    119.5700	  769.00	  766.04	-1751.29	  359.56
    119.6700	  714.00	  735.80	-1776.05	  359.74
    119.7700	  628.00	  710.57	-1836.82	  359.93
    119.8700	  629.00	  689.51	-1814.76	  360.12
    119.9700	  633.00	  671.89	-1793.14	  360.32
    120.0700	  597.00	  657.14	-1814.39	  360.52
    120.1700	  621.00	  644.78	-1778.03	  360.73
    120.2700	  563.00	  634.44	-1825.69	  360.95
    120.3700	  565.00	  625.81	-1815.06	  361.17
    120.4700	  578.00	  618.65	-1794.90	  361.40
    120.5700	  565.00	  612.76	-1802.01	  361.64
    120.6700	  604.00	  607.99	-1758.24	  361.88
    120.7700	  547.00	  604.22	-1811.47	  362.13
    120.8700	  588.00	  601.35	-1767.60	  362.38
    120.9700	  611.00	  599.30	-1742.55	  362.64
    121.0700	  546.00	  598.01	-1806.26	  362.91
    121.1700	  586.00	  597.42	-1765.67	  363.18
    121.2700	  561.00	  597.48	-1790.73	  363.46
    121.3700	  567.00	  598.15	-1785.40	  363.75
    121.4700	  634.00	  599.37	-1719.62	  364.04
    121.5700	  616.00	  601.10	-1739.35	  364.35
    121.6700	  606.00	  603.27	-1751.52	  364.65
    121.7700	  586.00	  605.82	-1774.07	  364.97
    121.8700	  589.00	  608.69	-1773.94	  365.29
    121.9700	  596.00	  611.80	-1770.05	  365.62
    122.0700	  614.00	  615.05	-1755.30	  365.95
    122.1700	  572.00	  618.37	-1800.62	  366.30
    122.2700	  624.00	  621.65	-1751.90	  366.65
    122.3700	  660.00	  624.77	-1719.02	  367.00
    122.4700	  634.00	  627.68	-1747.93	  367.37
    122.5700	  628.00	  630.24	-1756.49	  367.74
    122.6700	  670.00	  632.38	-1716.63	  368.12
    122.7700	  631.00	  634.02	-1757.27	  368.51
    122.8700	  651.00	  635.10	-1738.35	  368.90
    122.9700	  642.00	  635.58	-1747.83	  369.30
    123.0700	  651.00	  635.46	-1738.71	  369.71
    123.1700	  652.00	  634.76	-1737.01	  370.13
    123.2700	  681.00	  633.50	-1706.75	  370.56
    123.3700	  638.00	  631.74	-1747.99	  370.99
    123.4700	  642.00	  629.53	-1741.78	  371.43
    123.5700	  629.00	  626.97	-1752.22	  371.88
    123.6700	  624.00	  624.11	-1754.36	  372.34
    123.7700	  593.00	  621.03	-1782.28	  372.80
    123.8700	  638.00	  617.80	-1734.05	  373.28
    123.9700	  627.00	  614.48	-1741.73	  373.76
    124.0700	  676.00	  611.14	-1689.39	  374.25
    124.1700	  651.00	  607.83	-1711.08	  374.75
    124.2700	  636.00	  604.61	-1722.86	  375.25
    124.3700	  623.00	  601.51	-1732.76	  375.77
    124.4700	  598.00	  598.56	-1754.81	  376.29
    124.5700	  654.00	  595.81	-1696.06	  376.83
    124.6700	  602.00	  593.25	-1745.50	  377.37
    124.7700	  574.00	  590.93	-1771.18	  377.92
    124.8700	  573.00	  588.84	-1770.09	  378.48
    124.9700	  575.00	  497.88	-1677.13	  379.04
    125.0700	  584.00	  498.46	-1754.25	  379.62
    125.1700	  616.00	  499.04	-1754.25	  380.21
    125.2700	  564.00	  499.64	-1754.25	  380.80
    125.3700	  611.00	  500.24	-1754.25	  381.40
    125.4700	  568.00	  500.85	-1754.25	  382.02
    125.5700	  569.00	  501.48	-1754.25	  382.64
    125.6700	  565.00	  502.11	-1754.25	  383.27
    125.7700	  579.00	  502.75	-1754.25	  383.91
    125.8700	  589.00	  503.40	-1754.25	  384.56
    125.9700	  575.00	  504.06	-1754.25	  385.22
    126.0700	  567.00	  504.73	-1754.25	  385.89
    126.1700	  578.00	  505.41	-1754.25	  386.57
    126.2700	  599.00	  506.10	-1754.25	  387.26
    126.3700	  580.00	  506.80	-1754.25	  387.96
    126.4700	  596.00	  507.51	-1754.25	  388.67
    126.5700	  617.00	  508.22	-1754.25	  389.39
    126.6700	  597.00	  508.95	-1754.25	  390.12
    126.7700	  649.00	  509.69	-1754.25	  390.86
    126.8700	  644.00	  510.44	-1754.25	  391.61
    126.9700	  640.00	  511.20	-1754.25	  392.36
    127.0700	  604.00	  511.97	-1754.25	  393.13
    127.1700	  641.00	  512.75	-1754.25	  393.91
    127.2700	  639.00	  513.54	-1754.25	  394.70
    127.3700	  612.00	  514.34	-1754.25	  395.51
    127.4700	  674.00	  515.15	-1754.25	  396.32
    127.5700	  682.00	  515.98	-1754.25	  397.14
    127.6700	  657.00	  516.81	-1754.25	  397.97
    127.7700	  716.00	  517.65	-1754.25	  398.82
    127.8700	  709.00	  518.51	-1754.25	  399.67
    127.9700	  749.00	  519.37	-1754.25	  400.54
    128.0700	  761.00	  520.25	-1754.25	  401.41
    128.1700	  801.00	  521.14	-1754.25	  402.30
    128.2700	  770.00	  522.03	-1754.25	  403.20
    128.3700	  812.00	  522.94	-1754.25	  404.11
    128.4700	  790.00	  523.87	-1754.25	  405.03
    128.5700	    0.00	  524.80	-1754.25	  405.96
    128.6700	    0.00	  525.74	-1754.25	  406.91
     12.3041	        	        	        	        	       0	(  0  0  2)	  0  1
     24.8831	        	        	        	        	       0	(  0  0  4)	  0  1
     28.3354	        	        	        	        	       0	(  1  0  0)	  0  1
     29.0321	        	        	        	        	       0	(  1  0  1)	  0  1
     31.0369	        	        	        	        	       0	(  1  0  2)	  0  1
     34.1433	        	        	        	        	       0	(  1  0  3)	  0  1
     37.7777	        	        	        	        	       0	(  0  0  6)	  0  1
     38.1180	        	        	        	        	       0	(  1  0  4)	  0  1
     42.7655	        	        	        	        	       0	(  1  0  5)	  0  1
     47.9468	        	        	        	        	       0	(  1  0  6)	  0  1
     50.2742	        	        	        	        	       0	(  1  1  0)	  0  1
     51.1939	        	        	        	        	       0	(  0  0  8)	  0  1
     51.9960	        	        	        	        	       0	(  1  1  2)	  0  1
     53.5743	        	        	        	        	       0	(  1  0  7)	  0  1
     56.9405	        	        	        	        	       0	(  1  1  4)	  0  1
     58.7720	        	        	        	        	       0	(  2  0  0)	  0  1
     59.1633	        	        	        	        	       0	(  2  0  1)	  0  1
     59.6015	        	        	        	        	       0	(  1  0  8)	  0  1
     60.3279	        	        	        	        	       0	(  2  0  2)	  0  1
     62.2398	        	        	        	        	       0	(  2  0  3)	  0  1
     64.6303	        	        	        	        	       0	(  1  1  6)	  0  1
     64.8621	        	        	        	        	       0	(  2  0  4)	  0  1
     65.4164	        	        	        	        	       0	(  0  0 10)	  0  1
     66.0144	        	        	        	        	       0	(  1  0  9)	  0  1
     68.1541	        	        	        	        	       0	(  2  0  5)	  0  1
     72.0790	        	        	        	        	       0	(  2  0  6)	  0  1
     72.8267	        	        	        	        	       0	(  1  0 10)	  0  1
     74.6617	        	        	        	        	       0	(  1  1  8)	  0  1
     76.6102	        	        	        	        	       0	(  2  0  7)	  0  1
     80.0800	        	        	        	        	       0	(  1  0 11)	  0  1
     80.8881	        	        	        	        	       0	(  0  0 12)	  0  1
     81.0158	        	        	        	        	       0	(  2  1  0)	  0  1
     81.3555	        	        	        	        	       0	(  2  1  1)	  0  1
     81.7371	        	        	        	        	       0	(  2  0  8)	  0  1
     82.3726	        	        	        	        	       0	(  2  1  2)	  0  1
     84.0628	        	        	        	        	       0	(  2  1  3)	  0  1
     86.4208	        	        	        	        	       0	(  2  1  4)	  0  1
     86.9251	        	        	        	        	       0	(  1  1 10)	  0  1
     87.4713	        	        	        	        	       0	(  2  0  9)	  0  1
     87.8492	        	        	        	        	       0	(  1  0 12)	  0  1
     89.4445	        	        	        	        	       0	(  2  1  5)	  0  1
     93.1394	        	        	        	        	       0	(  2  1  6)	  0  1
     93.8542	        	        	        	        	       0	(  2  0 10)	  0  1
     94.9068	        	        	        	        	       0	(  3  0  0)	  0  1
     95.2440	        	        	        	        	       0	(  3  0  1)	  0  1
     96.2565	        	        	        	        	       0	(  3  0  2)	  0  1
     96.2562	        	        	        	        	       0	(  1  0 13)	  0  1
     97.5250	        	        	        	        	       0	(  2  1  7)	  0  1
     97.9487	        	        	        	        	       0	(  3  0  3)	  0  1
     98.4149	        	        	        	        	       0	(  0  0 14)	  0  1
    100.3301	        	        	        	        	       0	(  3  0  4)	  0  1
    100.9707	        	        	        	        	       0	(  2  0 11)	  0  1
    101.7844	        	        	        	        	       0	(  1  1 12)	  0  1
    102.6438	        	        	        	        	       0	(  2  1  8)	  0  1
    103.4196	        	        	        	        	       0	(  3  0  5)	  0  1
    105.5010	        	        	        	        	       0	(  1  0 14)	  0  1
    107.2522	        	        	        	        	       0	(  3  0  6)	  0  1
    108.5762	        	        	        	        	       0	(  2  1  9)	  0  1
    108.9753	        	        	        	        	       0	(  2  0 12)	  0  1
    111.8892	        	        	        	        	       0	(  3  0  7)	  0  1
    115.4675	        	        	        	        	       0	(  2  1 10)	  0  1
    115.9335	        	        	        	        	       0	(  1  0 15)	  0  1
    116.6369	        	        	        	        	       0	(  2  2  0)	  0  1
    117.4386	        	        	        	        	       0	(  3  0  8)	  0  1
    118.1512	        	        	        	        	       0	(  2  2  2)	  0  1
    118.1509	        	        	        	        	       0	(  2  0 13)	  0  1
    119.8805	        	        	        	        	       0	(  0  0 16)	  0  1
    120.6103	        	        	        	        	       0	(  1  1 14)	  0  1
    122.8341	        	        	        	        	       0	(  2  2  4)	  0  1
    123.5873	        	        	        	        	       0	(  2  1 11)	  0  1
    124.0934	        	        	        	        	       0	(  3  0  9)	  0  1
    124.7049	        	        	        	        	       0	(  3  1  0)	  0  1
    125.1149	        	        	        	        	       0	(  3  1  1)	  0  1
    126.3577	        	        	        	        	       0	(  3  1  2)	  0  1
    128.2599	        	        	        	        	       0	(  1  0 16)	  0  1
    128.4750	        	        	        	        	       0	(  3  1  3)	  0  1
    129.0677	        	        	        	        	       0	(  2  0 14)	  0  1
    131.2691	        	        	        	        	       0	(  2  2  6)	  0  1
    131.5495	        	        	        	        	       0	(  3  1  4)	  0  1
    132.2271	        	        	        	        	       0	(  3  0 10)	  0  1
    133.4892	        	        	        	        	       0	(  2  1 12)	  0  1
    135.7347	        	        	        	        	       0	(  3  1  5)	  0  1
    141.3277	        	        	        	        	       0	(  3  1  6)	  0  1
    142.6950	        	        	        	        	       0	(  3  0 11)	  0  1
    143.1836	        	        	        	        	       0	(  2  0 15)	  0  1
    144.3947	        	        	        	        	       0	(  1  0 17)	  0  1
    145.4949	        	        	        	        	       0	(  2  2  8)	  0  1
    146.6258	        	        	        	        	       0	(  2  1 13)	  0  1
    148.9981	        	        	        	        	       0	(  3  1  7)	  0  1
    149.4916	        	        	        	        	       0	(  1  1 16)	  0  1
    153.8431	        	        	        	        	       0	(  0  0 18)	  0  1
    158.5476	        	        	        	        	       0	(  3  0 12)	  0  1
    158.8972	        	        	        	        	       0	(  4  0  0)	  0  1
    159.8560	        	        	        	        	       0	(  4  0  1)	  0  1
    160.9899	        	        	        	        	       0	(  3  1  8)	  0  1
    163.0432	        	        	        	        	       0	(  4  0  2)	  0  1
    169.4590	        	        	        	        	       0	(  2  0 16)	  0  1
    170.4353	        	        	        	        	       0	(  4  0  3)	  0  1
    173.8689	        	        	        	        	       0	(  2  1 14)	  0  1
