MSG Master    CELL:    5.91459   5.91459  23.24396   90.0000   90.0000  120.0000   SPGR: P 63/m m c             TEMP:    992.55
  1   1280     2.52000     0.00000    -0.12694     0.00000     0.00000    0
    99     0     2
       0.00000      10.00000
     125.00000     130.00000
 2Theta	Yobs	Ycal	Yobs-Ycal	Backg	Posr	(hkl)	K
      0.7700	    0.00	  518.13	-1790.00	  404.10
      0.8700	    0.00	  519.12	-1790.00	  405.10
      0.9700	   59.00	  520.10	-1790.00	  406.07
      1.0700	   34.00	  521.06	-1790.00	  407.04
      1.1700	   48.00	  522.02	-1790.00	  407.99
      1.2700	   40.00	  522.96	-1790.00	  408.93
      1.3700	   51.00	  523.88	-1790.00	  409.86
      1.4700	   96.00	  524.80	-1790.00	  410.78
      1.5700	  296.00	  525.70	-1790.00	  411.68
      1.6700	  465.00	  526.59	-1790.00	  412.57
      1.7700	  593.00	  527.47	-1790.00	  413.45
      1.8700	  671.00	  528.34	-1790.00	  414.32
      1.9700	  686.00	  529.19	-1790.00	  415.17
      2.0700	  781.00	  530.03	-1790.00	  416.01
      2.1700	  846.00	  530.86	-1790.00	  416.84
      2.2700	  792.00	  531.68	-1790.00	  417.66
      2.3700	  700.00	  532.49	-1790.00	  418.47
      2.4700	  708.00	  533.28	-1790.00	  419.26
      2.5700	  704.00	  534.07	-1790.00	  420.04
      2.6700	  692.00	  534.84	-1790.00	  420.82
      2.7700	  692.00	  535.60	-1790.00	  421.58
      2.8700	  678.00	  536.35	-1790.00	  422.32
      2.9700	  604.00	  537.08	-1790.00	  423.06
      3.0700	  600.00	  537.81	-1790.00	  423.79
      3.1700	  605.00	  538.52	-1790.00	  424.50
      3.2700	  597.00	  539.23	-1790.00	  425.21
      3.3700	  718.00	  539.92	-1790.00	  425.90
      3.4700	  715.00	  540.60	-1790.00	  426.58
      3.5700	  782.00	  541.27	-1790.00	  427.25
      3.6700	  837.00	  541.93	-1790.00	  427.91
      3.7700	  878.00	  542.58	-1790.00	  428.56
      3.8700	  935.00	  543.22	-1790.00	  429.20
      3.9700	  987.00	  543.85	-1790.00	  429.83
      4.0700	 1082.00	  544.47	-1790.00	  430.45
      4.1700	 1117.00	  545.08	-1790.00	  431.05
      4.2700	 1088.00	  545.67	-1790.00	  431.65
      4.3700	 1044.00	  546.26	-1790.00	  432.24
      4.4700	 1156.00	  546.84	-1790.00	  432.82
      4.5700	 1122.00	  547.40	-1790.00	  433.38
      4.6700	 1027.00	  547.96	-1790.00	  433.94
      4.7700	 1001.00	  548.51	-1790.00	  434.49
      4.8700	  922.00	  549.04	-1790.00	  435.02
      4.9700	  947.00	  549.57	-1790.00	  435.55
      5.0700	  910.00	  550.09	-1790.00	  436.07
      5.1700	  923.00	  550.60	-1790.00	  436.57
      5.2700	  887.00	  551.09	-1790.00	  437.07
      5.3700	  877.00	  551.58	-1790.00	  437.56
      5.4700	  854.00	  552.06	-1790.00	  438.04
      5.5700	  871.00	  552.53	-1790.00	  438.51
      5.6700	  825.00	  552.99	-1790.00	  438.97
      5.7700	  815.00	  553.44	-1790.00	  439.42
      5.8700	  834.00	  553.88	-1790.00	  439.86
      5.9700	  847.00	  554.32	-1790.00	  440.30
      6.0700	  782.00	  554.74	-1790.00	  440.72
      6.1700	  774.00	  555.16	-1790.00	  441.14
      6.2700	  763.00	  555.56	-1790.00	  441.54
      6.3700	  813.00	  555.96	-1790.00	  441.94
      6.4700	  765.00	  556.35	-1790.00	  442.33
      6.5700	  724.00	  556.73	-1790.00	  442.71
      6.6700	  713.00	  557.10	-1790.00	  443.08
      6.7700	  692.00	  557.46	-1790.00	  443.44
      6.8700	  708.00	  557.82	-1790.00	  443.79
      6.9700	  715.00	  558.16	-1790.00	  444.14
      7.0700	  705.00	  558.50	-1790.00	  444.48
      7.1700	  717.00	  558.83	-1790.00	  444.81
      7.2700	  682.00	  559.15	-1790.00	  445.13
      7.3700	  696.00	  559.46	-1790.00	  445.44
      7.4700	  646.00	  559.77	-1790.00	  445.74
      7.5700	  652.00	  560.06	-1790.00	  446.04
      7.6700	  645.00	  560.35	-1790.00	  446.33
      7.7700	  670.00	  560.63	-1790.00	  446.61
      7.8700	  616.00	  560.90	-1790.00	  446.88
      7.9700	  645.00	  561.17	-1790.00	  447.15
      8.0700	  652.00	  561.43	-1790.00	  447.41
      8.1700	  618.00	  561.68	-1790.00	  447.65
      8.2700	  604.00	  561.92	-1790.00	  447.90
      8.3700	  639.00	  562.15	-1790.00	  448.13
      8.4700	  640.00	  562.38	-1790.00	  448.36
      8.5700	  605.00	  562.60	-1790.00	  448.58
      8.6700	  632.00	  562.81	-1790.00	  448.79
      8.7700	  603.00	  563.02	-1790.00	  449.00
      8.8700	  616.00	  563.22	-1790.00	  449.19
      8.9700	  602.00	  563.41	-1790.00	  449.39
      9.0700	  611.00	  563.59	-1790.00	  449.57
      9.1700	  589.00	  563.77	-1790.00	  449.75
      9.2700	  634.00	  563.94	-1790.00	  449.92
      9.3700	  590.00	  564.10	-1790.00	  450.08
      9.4700	  595.00	  564.26	-1790.00	  450.24
      9.5700	  583.00	  564.41	-1790.00	  450.39
      9.6700	  562.00	  564.55	-1790.00	  450.53
      9.7700	  579.00	  564.69	-1790.00	  450.66
      9.8700	  634.00	  564.82	-1790.00	  450.79
      9.9700	  626.00	  564.94	-1790.00	  450.92
     10.0700	  612.00	  565.84	-1743.84	  451.03
     10.1700	  590.00	  566.02	-1766.02	  451.14
     10.2700	  582.00	  566.21	-1774.21	  451.25
     10.3700	  560.00	  566.42	-1796.42	  451.34
     10.4700	  586.00	  566.66	-1770.66	  451.44
     10.5700	  609.00	  566.99	-1747.99	  451.52
     10.6700	  603.00	  567.48	-1754.48	  451.60
     10.7700	  539.00	  568.23	-1819.23	  451.67
     10.8700	  583.00	  569.31	-1776.31	  451.74
     10.9700	  606.00	  570.73	-1754.73	  451.80
     11.0700	  605.00	  572.46	-1757.46	  451.86
     11.1700	  636.00	  574.48	-1728.48	  451.90
     11.2700	  539.00	  576.81	-1827.81	  451.95
     11.3700	  540.00	  579.53	-1829.53	  451.99
     11.4700	  590.00	  582.73	-1782.73	  452.02
     11.5700	  541.00	  586.59	-1835.59	  452.04
     11.6700	  585.00	  591.38	-1796.38	  452.06
     11.7700	  560.00	  597.59	-1827.59	  452.08
     11.8700	  636.00	  606.04	-1760.04	  452.09
     11.9700	  684.00	  617.45	-1723.45	  452.09
     12.0700	  671.00	  630.97	-1749.97	  452.09
     12.1700	  684.00	  641.76	-1747.76	  452.09
     12.2700	  645.00	  641.19	-1786.19	  452.08
     12.3700	  642.00	  624.81	-1772.81	  452.06
     12.4700	  621.00	  602.41	-1771.41	  452.04
     12.5700	  588.00	  585.26	-1787.26	  452.01
     12.6700	  599.00	  575.79	-1766.79	  451.98
     12.7700	  569.00	  571.54	-1792.54	  451.94
     12.8700	  584.00	  569.72	-1775.72	  451.90
     12.9700	  563.00	  568.78	-1795.78	  451.85
     13.0700	  584.00	  568.18	-1774.18	  451.80
     13.1700	  514.00	  567.73	-1843.73	  451.75
     13.2700	  522.00	  567.38	-1835.38	  451.69
     13.3700	  541.00	  567.09	-1816.09	  451.62
     13.4700	  564.00	  566.85	-1792.85	  451.55
     13.5700	  544.00	  566.64	-1812.64	  451.47
     13.6700	  554.00	  566.45	-1802.45	  451.40
     13.7700	  576.00	  566.27	-1780.27	  451.31
     13.8700	  552.00	  566.11	-1804.11	  451.22
     13.9700	  593.00	  565.95	-1762.95	  451.13
     14.0700	  578.00	  565.80	-1777.80	  451.03
     14.1700	  575.00	  565.66	-1780.66	  450.93
     14.2700	  531.00	  565.51	-1824.51	  450.83
     14.3700	  593.00	  565.37	-1762.37	  450.72
     14.4700	  523.00	  565.22	-1832.22	  450.60
     14.5700	  588.00	  565.08	-1767.08	  450.49
     14.6700	  589.00	  564.93	-1765.93	  450.37
     14.7700	  583.00	  564.79	-1771.79	  450.24
     14.8700	  503.00	  564.64	-1851.64	  450.11
     14.9700	  599.00	  564.49	-1755.49	  449.98
     15.0700	  531.00	  564.34	-1823.34	  449.84
     15.1700	  510.00	  564.18	-1844.18	  449.70
     15.2700	  554.00	  564.02	-1800.02	  449.55
     15.3700	  569.00	  563.87	-1784.86	  449.40
     15.4700	  546.00	  563.70	-1807.70	  449.25
     15.5700	  545.00	  563.54	-1808.54	  449.10
     15.6700	  564.00	  563.37	-1789.37	  448.94
     15.7700	  528.00	  563.20	-1825.20	  448.77
     15.8700	  537.00	  563.03	-1816.03	  448.61
     15.9700	  553.00	  562.85	-1799.85	  448.44
     16.0700	  587.00	  562.67	-1765.67	  448.26
     16.1700	  568.00	  562.49	-1784.49	  448.09
     16.2700	  563.00	  562.33	-1789.33	  447.91
     16.3700	  554.00	  562.14	-1798.14	  447.72
     16.4700	  509.00	  561.95	-1842.95	  447.54
     16.5700	  586.00	  561.76	-1765.76	  447.35
     16.6700	  533.00	  561.56	-1818.56	  447.16
     16.7700	  582.00	  561.37	-1769.37	  446.96
     16.8700	  559.00	  561.17	-1792.17	  446.76
     16.9700	  568.00	  560.96	-1782.96	  446.56
     17.0700	  588.00	  560.75	-1762.75	  446.36
     17.1700	  542.00	  560.55	-1808.55	  446.15
     17.2700	  593.00	  560.33	-1757.33	  445.94
     17.3700	  527.00	  560.12	-1823.12	  445.72
     17.4700	  533.00	  559.90	-1816.90	  445.51
     17.5700	  551.00	  559.68	-1798.68	  445.29
     17.6700	  543.00	  559.46	-1806.46	  445.07
     17.7700	  559.00	  559.23	-1790.23	  444.84
     17.8700	  533.00	  559.01	-1816.01	  444.62
     17.9700	  573.00	  558.87	-1775.87	  444.39
     18.0700	  488.00	  558.64	-1860.64	  444.16
     18.1700	  547.00	  558.41	-1801.41	  443.92
     18.2700	  567.00	  558.18	-1781.18	  443.68
     18.3700	  537.00	  557.94	-1810.94	  443.45
     18.4700	  533.00	  557.70	-1814.70	  443.20
     18.5700	  559.00	  557.46	-1788.46	  442.96
     18.6700	  503.00	  557.22	-1844.22	  442.71
     18.7700	  545.00	  556.97	-1801.97	  442.46
     18.8700	  552.00	  556.81	-1794.81	  442.21
     18.9700	  540.00	  556.57	-1806.57	  441.96
     19.0700	  557.00	  556.32	-1789.32	  441.71
     19.1700	  520.00	  556.06	-1826.06	  441.45
     19.2700	  569.00	  555.81	-1776.81	  441.19
     19.3700	  530.00	  555.56	-1815.56	  440.93
     19.4700	  518.00	  555.30	-1827.30	  440.66
     19.5700	  513.00	  555.04	-1832.04	  440.40
     19.6700	  544.00	  554.78	-1800.78	  440.13
     19.7700	  495.00	  554.52	-1849.52	  439.86
     19.8700	  523.00	  554.26	-1821.26	  439.59
     19.9700	  553.00	  553.99	-1790.99	  439.32
     20.0700	  575.00	  553.73	-1768.73	  439.04
     20.1700	  555.00	  553.46	-1788.46	  438.77
     20.2700	  522.00	  553.20	-1821.20	  438.49
     20.3700	  584.00	  552.93	-1758.93	  438.21
     20.4700	  550.00	  552.66	-1792.66	  437.93
     20.5700	  551.00	  552.36	-1791.36	  437.64
     20.6700	  543.00	  552.09	-1799.09	  437.36
     20.7700	  539.00	  551.82	-1802.82	  437.07
     20.8700	  577.00	  551.58	-1764.58	  436.79
     20.9700	  542.00	  551.31	-1799.31	  436.50
     21.0700	  522.00	  551.03	-1819.03	  436.21
     21.1700	  569.00	  550.76	-1771.76	  435.91
     21.2700	  557.00	  550.49	-1783.49	  435.62
     21.3700	  519.00	  550.21	-1821.21	  435.32
     21.4700	  538.00	  549.94	-1801.94	  435.03
     21.5700	  575.00	  549.66	-1764.66	  434.73
     21.6700	  554.00	  549.39	-1785.39	  434.43
     21.7700	  559.00	  549.12	-1780.12	  434.13
     21.8700	  574.00	  548.85	-1764.85	  433.83
     21.9700	  546.00	  548.57	-1792.57	  433.53
     22.0700	  581.00	  548.30	-1757.30	  433.23
     22.1700	  531.00	  548.04	-1807.04	  432.92
     22.2700	  519.00	  547.77	-1818.77	  432.62
     22.3700	  577.00	  547.51	-1760.51	  432.31
     22.4700	  538.00	  547.25	-1799.25	  432.00
     22.5700	  566.00	  546.99	-1770.99	  431.69
     22.6700	  567.00	  546.74	-1769.74	  431.39
     22.7700	  551.00	  546.50	-1785.50	  431.07
     22.8700	  554.00	  546.26	-1782.26	  430.76
     22.9700	  526.00	  546.03	-1810.03	  430.45
     23.0700	  562.00	  545.81	-1773.81	  430.14
     23.1700	  561.00	  545.61	-1774.61	  429.83
     23.2700	  583.00	  545.42	-1752.42	  429.51
     23.3700	  573.00	  545.26	-1762.26	  429.20
     23.4700	  543.00	  545.13	-1792.13	  428.88
     23.5700	  518.00	  545.04	-1817.04	  428.56
     23.6700	  566.00	  545.01	-1769.01	  428.25
     23.7700	  551.00	  545.20	-1784.20	  427.93
     23.8700	  565.00	  545.44	-1770.44	  427.61
     23.9700	  552.00	  546.02	-1784.02	  427.29
     24.0700	  510.00	  547.32	-1827.32	  426.97
     24.1700	  538.00	  549.95	-1801.95	  426.65
     24.2700	  610.00	  554.74	-1734.74	  426.33
     24.3700	  588.00	  562.65	-1764.65	  426.01
     24.4700	  590.00	  574.79	-1774.79	  425.69
     24.5700	  618.00	  591.90	-1763.90	  425.37
     24.6700	  677.00	  612.45	-1725.45	  425.05
     24.7700	  605.00	  629.87	-1814.87	  424.73
     24.8700	  613.00	  633.06	-1810.06	  424.40
     24.9700	  612.00	  615.82	-1793.82	  424.08
     25.0700	  625.00	  588.96	-1753.96	  423.76
     25.1700	  597.00	  566.54	-1759.54	  423.43
     25.2700	  553.00	  553.06	-1790.06	  423.11
     25.3700	  568.00	  546.55	-1768.55	  422.79
     25.4700	  550.00	  543.67	-1783.67	  422.46
     25.5700	  568.00	  542.25	-1764.25	  422.14
     25.6700	  516.00	  541.37	-1815.37	  421.82
     25.7700	  559.00	  540.75	-1771.75	  421.49
     25.8700	  537.00	  540.28	-1793.28	  421.17
     25.9700	  623.00	  539.92	-1706.93	  420.84
     26.0700	  585.00	  539.66	-1744.66	  420.52
     26.1700	  567.00	  539.47	-1762.47	  420.19
     26.2700	  521.00	  539.36	-1808.36	  419.87
     26.3700	  543.00	  539.32	-1786.32	  419.55
     26.4700	  558.00	  539.37	-1771.37	  419.22
     26.5700	  554.00	  539.50	-1775.50	  418.90
     26.6700	  566.00	  539.74	-1763.74	  418.57
     26.7700	  576.00	  540.11	-1754.11	  418.25
     26.8700	  517.00	  540.64	-1813.64	  417.93
     26.9700	  584.00	  541.37	-1747.37	  417.60
     27.0700	  550.00	  542.37	-1782.37	  417.28
     27.1700	  532.00	  543.76	-1801.76	  416.96
     27.2700	  579.00	  545.74	-1756.74	  416.63
     27.3700	  556.00	  548.72	-1782.72	  416.31
     27.4700	  530.00	  553.50	-1813.50	  415.99
     27.5700	  601.00	  561.52	-1750.52	  415.67
     27.6700	  562.00	  575.13	-1803.13	  415.35
     27.7700	  595.00	  597.47	-1792.47	  415.03
     27.8700	  588.00	  631.56	-1833.56	  414.71
     27.9700	  659.00	  678.24	-1809.24	  414.39
     28.0700	  704.00	  733.35	-1819.35	  414.07
     28.1700	  829.00	  785.09	-1746.09	  413.75
     28.2700	  932.00	  814.00	-1672.00	  413.43
     28.3700	  882.00	  804.30	-1712.30	  413.11
     28.4700	  799.00	  768.80	-1759.80	  412.79
     28.5700	  707.00	  740.68	-1823.68	  412.48
     28.6700	  716.00	  739.36	-1813.36	  412.16
     28.7700	  716.00	  763.72	-1837.72	  411.84
     28.8700	  797.00	  796.71	-1789.71	  411.53
     28.9700	  796.00	  810.78	-1804.78	  411.21
     29.0700	  756.00	  782.80	-1816.80	  410.90
     29.1700	  725.00	  721.06	-1786.06	  410.58
     29.2700	  631.00	  656.13	-1815.13	  410.27
     29.3700	  626.00	  606.60	-1770.60	  409.96
     29.4700	  582.00	  575.43	-1783.43	  409.65
     29.5700	  614.00	  558.17	-1734.17	  409.34
     29.6700	  601.00	  549.06	-1738.06	  409.03
     29.7700	  597.00	  544.03	-1737.03	  408.72
     29.8700	  595.00	  540.97	-1735.97	  408.41
     29.9700	  562.00	  539.02	-1767.02	  408.10
     30.0700	  568.00	  537.92	-1759.92	  407.79
     30.1700	  539.00	  537.76	-1788.76	  407.49
     30.2700	  554.00	  538.98	-1774.98	  407.18
     30.3700	  573.00	  542.51	-1759.51	  406.88
     30.4700	  589.00	  549.90	-1750.90	  406.57
     30.5700	  570.00	  562.95	-1782.95	  406.27
     30.6700	  574.00	  582.64	-1798.64	  405.97
     30.7700	  587.00	  607.34	-1810.34	  405.67
     30.8700	  650.00	  631.12	-1771.12	  405.37
     30.9700	  643.00	  643.75	-1790.75	  405.07
     31.0700	  616.00	  635.61	-1809.61	  404.77
     31.1700	  554.00	  609.74	-1845.74	  404.47
     31.2700	  569.00	  580.25	-1801.25	  404.18
     31.3700	  565.00	  556.95	-1781.95	  403.88
     31.4700	  535.00	  542.08	-1797.08	  403.59
     31.5700	  564.00	  533.89	-1759.89	  403.30
     31.6700	  538.00	  529.65	-1781.65	  403.00
     31.7700	  534.00	  527.37	-1783.37	  402.71
     31.8700	  565.00	  525.98	-1750.98	  402.42
     31.9700	  557.00	  525.03	-1758.03	  402.13
     32.0700	  536.00	  524.34	-1778.34	  401.85
     32.1700	  537.00	  523.86	-1776.86	  401.56
     32.2700	  557.00	  523.55	-1756.55	  401.28
     32.3700	  545.00	  523.39	-1768.39	  400.99
     32.4700	  546.00	  523.39	-1767.39	  400.71
     32.5700	  546.00	  523.55	-1767.55	  400.43
     32.6700	  511.00	  523.90	-1802.90	  400.15
     32.7700	  510.00	  524.48	-1804.48	  399.87
     32.8700	  524.00	  525.35	-1791.35	  399.59
     32.9700	  588.00	  526.61	-1728.61	  399.31
     33.0700	  540.00	  528.42	-1778.42	  399.04
     33.1700	  550.00	  531.14	-1771.14	  398.76
     33.2700	  516.00	  535.60	-1809.60	  398.49
     33.3700	  595.00	  543.59	-1738.59	  398.22
     33.4700	  567.00	  558.77	-1781.77	  397.95
     33.5700	  587.00	  587.32	-1790.32	  397.68
     33.6700	  616.00	  637.44	-1811.44	  397.41
     33.7700	  775.00	  715.02	-1730.02	  397.14
     33.8700	  863.00	  815.78	-1742.78	  396.88
     33.9700	  929.00	  917.91	-1778.91	  396.61
     34.0700	 1116.00	  981.77	-1655.77	  396.35
     34.1700	  997.00	  967.07	-1760.07	  396.09
     34.2700	  966.00	  876.28	-1700.28	  395.83
     34.3700	  778.00	  760.43	-1772.43	  395.57
     34.4700	  648.00	  662.62	-1804.62	  395.31
     34.5700	  552.00	  597.27	-1835.27	  395.06
     34.6700	  574.00	  560.35	-1776.35	  394.80
     34.7700	  529.00	  541.55	-1802.55	  394.55
     34.8700	  503.00	  532.00	-1819.00	  394.30
     34.9700	  564.00	  526.57	-1752.57	  394.05
     35.0700	  557.00	  522.98	-1755.98	  393.80
     35.1700	  522.00	  520.32	-1788.32	  393.56
     35.2700	  526.00	  518.25	-1782.25	  393.31
     35.3700	  543.00	  516.58	-1763.58	  393.07
     35.4700	  511.00	  515.20	-1794.20	  392.82
     35.5700	  530.00	  514.03	-1774.03	  392.58
     35.6700	  491.00	  513.03	-1812.03	  392.34
     35.7700	  533.00	  512.17	-1769.17	  392.11
     35.8700	  553.00	  511.40	-1748.40	  391.87
     35.9700	  508.00	  511.23	-1793.23	  391.63
     36.0700	  514.00	  510.62	-1786.62	  391.40
     36.1700	  518.00	  510.08	-1782.08	  391.17
     36.2700	  541.00	  509.59	-1758.59	  390.94
     36.3700	  516.00	  509.15	-1783.15	  390.71
     36.4700	  479.00	  508.74	-1819.74	  390.48
     36.5700	  527.00	  508.37	-1771.37	  390.26
     36.6700	  553.00	  508.04	-1745.04	  390.04
     36.7700	  468.00	  507.75	-1829.75	  389.81
     36.8700	  529.00	  507.50	-1768.50	  389.59
     36.9700	  514.00	  507.34	-1783.34	  389.37
     37.0700	  523.00	  507.33	-1774.33	  389.16
     37.1700	  497.00	  507.63	-1800.63	  388.94
     37.2700	  532.00	  508.50	-1766.50	  388.73
     37.3700	  563.00	  510.29	-1737.29	  388.51
     37.4700	  488.00	  513.25	-1815.25	  388.30
     37.5700	  552.00	  517.19	-1755.19	  388.09
     37.6700	  496.00	  521.25	-1815.25	  387.89
     37.7700	  529.00	  524.05	-1785.05	  387.68
     37.8700	  511.00	  524.48	-1803.48	  387.48
     37.9700	  500.00	  522.81	-1812.81	  387.27
     38.0700	  518.00	  519.99	-1791.99	  387.07
     38.1700	  511.00	  516.41	-1795.41	  386.88
     38.2700	  523.00	  512.55	-1779.55	  386.68
     38.3700	  509.00	  509.13	-1790.13	  386.48
     38.4700	  506.00	  506.54	-1790.54	  386.29
     38.5700	  486.00	  504.81	-1808.81	  386.10
     38.6700	  525.00	  503.73	-1768.73	  385.91
     38.7700	  542.00	  503.07	-1751.07	  385.72
     38.8700	  512.00	  502.55	-1780.55	  385.53
     38.9700	  494.00	  502.22	-1798.22	  385.35
     39.0700	  465.00	  501.94	-1826.94	  385.16
     39.1700	  489.00	  501.70	-1802.70	  384.98
     39.2700	  479.00	  501.48	-1812.48	  384.80
     39.3700	  496.00	  501.19	-1795.19	  384.62
     39.4700	  485.00	  501.00	-1806.00	  384.44
     39.5700	  504.00	  500.82	-1786.82	  384.27
     39.6700	  485.00	  500.78	-1805.78	  384.10
     39.7700	  466.00	  500.62	-1824.62	  383.93
     39.8700	  462.00	  500.48	-1828.48	  383.76
     39.9700	  501.00	  500.35	-1789.35	  383.59
     40.0700	  491.00	  500.22	-1799.22	  383.42
     40.1700	  503.00	  500.11	-1787.11	  383.26
     40.2700	  474.00	  500.01	-1816.01	  383.10
     40.3700	  520.00	  499.91	-1769.91	  382.94
     40.4700	  490.00	  499.84	-1799.84	  382.78
     40.5700	  488.00	  499.77	-1801.77	  382.62
     40.6700	  518.00	  499.73	-1771.73	  382.46
     40.7700	  473.00	  499.70	-1816.70	  382.31
     40.8700	  457.00	  499.69	-1832.69	  382.16
     40.9700	  444.00	  499.71	-1845.71	  382.01
     41.0700	  537.00	  499.76	-1752.76	  381.86
     41.1700	  494.00	  499.84	-1795.84	  381.72
     41.2700	  488.00	  499.94	-1801.94	  381.57
     41.3700	  531.00	  500.13	-1759.13	  381.43
     41.4700	  475.00	  500.40	-1815.40	  381.29
     41.5700	  479.00	  501.20	-1812.20	  381.15
     41.6700	  488.00	  501.73	-1803.73	  381.01
     41.7700	  516.00	  502.49	-1776.49	  380.88
     41.8700	  513.00	  503.70	-1780.70	  380.74
     41.9700	  532.00	  505.88	-1763.88	  380.61
     42.0700	  474.00	  510.07	-1826.07	  380.48
     42.1700	  521.00	  518.16	-1787.16	  380.35
     42.2700	  548.00	  532.82	-1774.82	  380.23
     42.3700	  553.00	  556.26	-1793.26	  380.10
     42.4700	  530.00	  588.47	-1848.47	  379.98
     42.5700	  557.00	  624.57	-1857.57	  379.86
     42.6700	  567.00	  654.06	-1877.06	  379.74
     42.7700	  571.00	  663.61	-1882.61	  379.62
     42.8700	  625.00	  647.20	-1812.20	  379.50
     42.9700	  528.00	  613.34	-1875.34	  379.39
     43.0700	  514.00	  576.53	-1852.53	  379.28
     43.1700	  500.00	  546.28	-1836.28	  379.17
     43.2700	  485.00	  525.69	-1830.69	  379.06
     43.3700	  523.00	  513.62	-1780.62	  378.95
     43.4700	  472.00	  507.24	-1825.24	  378.85
     43.5700	  483.00	  504.00	-1811.00	  378.75
     43.6700	  509.00	  502.43	-1783.43	  378.65
     43.7700	  485.00	  501.37	-1806.36	  378.55
     43.8700	  491.00	  500.63	-1799.63	  378.45
     43.9700	  482.00	  500.08	-1808.08	  378.35
     44.0700	  513.00	  499.65	-1776.65	  378.26
     44.1700	  481.00	  499.35	-1808.35	  378.17
     44.2700	  490.00	  499.09	-1799.09	  378.08
     44.3700	  543.00	  498.89	-1745.89	  377.99
     44.4700	  525.00	  498.74	-1763.74	  377.90
     44.5700	  512.00	  498.50	-1776.50	  377.82
     44.6700	  457.00	  498.42	-1831.42	  377.74
     44.7700	  512.00	  498.38	-1776.38	  377.65
     44.8700	  533.00	  498.36	-1755.36	  377.58
     44.9700	  510.00	  498.37	-1778.37	  377.50
     45.0700	  502.00	  498.40	-1786.40	  377.42
     45.1700	  485.00	  498.45	-1803.45	  377.35
     45.2700	  487.00	  498.71	-1801.71	  377.28
     45.3700	  515.00	  498.81	-1773.81	  377.21
     45.4700	  496.00	  498.93	-1792.93	  377.14
     45.5700	  510.00	  499.07	-1779.07	  377.07
     45.6700	  527.00	  499.24	-1762.24	  377.00
     45.7700	  470.00	  499.44	-1819.44	  376.94
     45.8700	  525.00	  499.66	-1764.66	  376.88
     45.9700	  527.00	  499.91	-1762.91	  376.82
     46.0700	  478.00	  500.20	-1812.20	  376.76
     46.1700	  529.00	  500.52	-1761.52	  376.71
     46.2700	  530.00	  500.88	-1760.88	  376.65
     46.3700	  494.00	  501.29	-1797.29	  376.60
     46.4700	  518.00	  501.74	-1773.74	  376.55
     46.5700	  496.00	  502.27	-1796.27	  376.50
     46.6700	  499.00	  502.86	-1793.86	  376.45
     46.7700	  508.00	  503.54	-1785.54	  376.40
     46.8700	  472.00	  504.35	-1822.35	  376.36
     46.9700	  499.00	  505.36	-1796.36	  376.32
     47.0700	  474.00	  506.71	-1822.71	  376.28
     47.1700	  505.00	  508.81	-1793.81	  376.24
     47.2700	  509.00	  512.15	-1793.15	  376.20
     47.3700	  510.00	  517.80	-1797.80	  376.17
     47.4700	  531.00	  526.79	-1785.79	  376.13
     47.5700	  525.00	  539.91	-1804.91	  376.10
     47.6700	  549.00	  556.68	-1797.68	  376.07
     47.7700	  595.00	  574.62	-1769.62	  376.04
     47.8700	  612.00	  589.07	-1767.07	  376.01
     47.9700	  609.00	  594.71	-1775.71	  375.99
     48.0700	  562.00	  589.38	-1817.38	  375.97
     48.1700	  556.00	  576.48	-1810.48	  375.94
     48.2700	  528.00	  561.81	-1823.81	  375.92
     48.3700	  527.00	  549.63	-1812.63	  375.91
     48.4700	  554.00	  541.86	-1777.86	  375.89
     48.5700	  517.00	  538.59	-1811.59	  375.87
     48.6700	  539.00	  538.98	-1789.98	  375.86
     48.7700	  495.00	  542.05	-1837.05	  375.85
     48.8700	  546.00	  547.20	-1791.20	  375.84
     48.9700	  554.00	  554.31	-1790.31	  375.83
     49.0700	  529.00	  563.81	-1824.81	  375.82
     49.1700	  569.00	  577.01	-1798.01	  375.82
     49.2700	  657.00	  596.65	-1729.65	  375.81
     49.3700	  624.00	  628.14	-1794.14	  375.81
     49.4700	  722.00	  680.94	-1748.94	  375.81
     49.5700	  767.00	  769.74	-1792.74	  375.81
     49.6700	  880.00	  911.77	-1821.77	  375.81
     49.7700	 1057.00	 1123.68	-1856.68	  375.82
     49.8700	 1255.00	 1410.80	-1945.80	  375.82
     49.9700	 1612.00	 1756.06	-1934.06	  375.83
     50.0700	 2099.00	 2109.16	-1800.16	  375.84
     50.1700	 2480.00	 2383.15	-1693.15	  375.85
     50.2700	 2501.00	 2478.70	-1767.70	  375.86
     50.3700	 2421.00	 2350.84	-1719.84	  375.88
     50.4700	 2076.00	 2055.42	-1769.42	  375.89
     50.5700	 1574.00	 1697.70	-1913.70	  375.91
     50.6700	 1220.00	 1361.93	-1931.93	  375.93
     50.7700	  855.00	 1092.46	-2027.46	  375.95
     50.8700	  743.00	  901.50	-1948.50	  375.97
     50.9700	  689.00	  780.01	-1881.01	  375.99
     51.0700	  645.00	  708.81	-1853.81	  376.02
     51.1700	  644.00	  667.54	-1813.54	  376.04
     51.2700	  650.00	  640.18	-1780.18	  376.07
     51.3700	  563.00	  617.80	-1844.80	  376.10
     51.4700	  585.00	  597.78	-1802.78	  376.13
     51.5700	  575.00	  580.43	-1795.43	  376.16
     51.6700	  553.00	  566.48	-1803.48	  376.19
     51.7700	  571.00	  556.10	-1775.10	  376.23
     51.8700	  564.00	  548.86	-1774.86	  376.26
     51.9700	  516.00	  544.02	-1818.02	  376.30
     52.0700	  559.00	  540.82	-1771.82	  376.34
     52.1700	  492.00	  538.80	-1836.80	  376.38
     52.2700	  597.00	  537.70	-1730.70	  376.42
     52.3700	  540.00	  537.75	-1787.75	  376.47
     52.4700	  543.00	  538.68	-1785.68	  376.51
     52.5700	  522.00	  541.32	-1809.32	  376.56
     52.6700	  592.00	  547.00	-1745.00	  376.60
     52.7700	  599.00	  558.47	-1749.47	  376.65
     52.8700	  617.00	  580.47	-1753.47	  376.70
     52.9700	  666.00	  619.89	-1743.89	  376.75
     53.0700	  757.00	  684.40	-1717.40	  376.81
     53.1700	  916.00	  778.99	-1652.99	  376.86
     53.2700	  953.00	  901.08	-1738.08	  376.92
     53.3700	 1122.00	 1035.86	-1703.86	  376.97
     53.4700	 1136.00	 1154.71	-1808.71	  377.03
     53.5700	 1174.00	 1220.38	-1836.38	  377.09
     53.6700	 1114.00	 1205.84	-1881.84	  377.15
     53.7700	 1011.00	 1116.97	-1895.97	  377.21
     53.8700	  942.00	  987.88	-1835.88	  377.28
     53.9700	  832.00	  854.79	-1812.79	  377.34
     54.0700	  727.00	  741.67	-1804.67	  377.41
     54.1700	  637.00	  658.44	-1811.44	  377.48
     54.2700	  642.00	  604.29	-1752.29	  377.54
     54.3700	  575.00	  572.61	-1787.61	  377.61
     54.4700	  539.00	  555.59	-1806.59	  377.68
     54.5700	  557.00	  547.07	-1780.07	  377.76
     54.6700	  559.00	  543.02	-1774.02	  377.83
     54.7700	  571.00	  541.29	-1760.29	  377.91
     54.8700	  569.00	  540.89	-1761.89	  377.98
     54.9700	  521.00	  541.40	-1810.40	  378.06
     55.0700	  571.00	  542.67	-1761.67	  378.14
     55.1700	  534.00	  544.67	-1800.67	  378.22
     55.2700	  553.00	  547.44	-1784.44	  378.30
     55.3700	  542.00	  551.08	-1799.08	  378.38
     55.4700	  527.00	  555.71	-1818.71	  378.46
     55.5700	  551.00	  561.64	-1800.64	  378.54
     55.6700	  535.00	  569.42	-1824.42	  378.63
     55.7700	  572.00	  580.17	-1798.17	  378.72
     55.8700	  576.00	  596.21	-1810.21	  378.80
     55.9700	  598.00	  622.04	-1814.04	  378.89
     56.0700	  625.00	  665.70	-1830.70	  378.98
     56.1700	  681.00	  739.81	-1848.81	  379.07
     56.2700	  829.00	  861.22	-1822.22	  379.16
     56.3700	  955.00	 1047.69	-1882.69	  379.25
     56.4700	 1252.00	 1311.03	-1849.03	  379.35
     56.5700	 1580.00	 1647.37	-1857.37	  379.44
     56.6700	 1925.00	 2028.17	-1893.17	  379.54
     56.7700	 2344.00	 2394.02	-1840.02	  379.64
     56.8700	 2637.00	 2658.08	-1811.08	  379.73
     56.9700	 2608.00	 2733.78	-1915.78	  379.83
     57.0700	 2588.00	 2591.23	-1793.23	  379.93
     57.1700	 2269.00	 2284.35	-1805.35	  380.03
     57.2700	 1971.00	 1906.64	-1725.64	  380.13
     57.3700	 1505.00	 1538.06	-1823.06	  380.24
     57.4700	 1151.00	 1227.50	-1866.50	  380.34
     57.5700	  920.00	  994.61	-1864.61	  380.44
     57.6700	  819.00	  837.09	-1808.09	  380.55
     57.7700	  781.00	  740.79	-1749.79	  380.66
     57.8700	  706.00	  688.63	-1772.63	  380.76
     57.9700	  723.00	  666.66	-1733.66	  380.87
     58.0700	  691.00	  666.17	-1765.17	  380.98
     58.1700	  704.00	  683.27	-1769.27	  381.09
     58.2700	  746.00	  717.21	-1761.21	  381.20
     58.3700	  784.00	  768.37	-1774.37	  381.31
     58.4700	  947.00	  836.51	-1679.51	  381.42
     58.5700	 1035.00	  918.92	-1673.92	  381.54
     58.6700	 1207.00	 1009.17	-1592.17	  381.65
     58.7700	 1422.00	 1097.57	-1465.57	  381.77
     58.8700	 1499.00	 1175.05	-1466.05	  381.88
     58.9700	 1619.00	 1236.11	-1407.11	  382.00
     59.0700	 1609.00	 1275.88	-1456.88	  382.12
     59.1700	 1673.00	 1288.07	-1405.07	  382.23
     59.2700	 1587.00	 1271.43	-1474.43	  382.35
     59.3700	 1400.00	 1235.76	-1625.76	  382.47
     59.4700	 1321.00	 1196.48	-1665.48	  382.59
     59.5700	 1202.00	 1165.74	-1753.74	  382.71
     59.6700	 1169.00	 1150.77	-1771.77	  382.83
     59.7700	 1096.00	 1157.93	-1851.93	  382.96
     59.8700	 1205.00	 1193.65	-1778.65	  383.08
     59.9700	 1266.00	 1259.34	-1783.34	  383.20
     60.0700	 1379.00	 1346.00	-1757.00	  383.33
     60.1700	 1466.00	 1432.34	-1756.34	  383.45
     60.2700	 1605.00	 1487.56	-1672.56	  383.58
     60.3700	 1589.00	 1482.72	-1683.72	  383.70
     60.4700	 1456.00	 1409.25	-1743.25	  383.83
     60.5700	 1357.00	 1284.74	-1717.74	  383.96
     60.6700	 1195.00	 1138.30	-1733.30	  384.09
     60.7700	  965.00	  995.22	-1820.22	  384.22
     60.8700	  885.00	  872.00	-1777.00	  384.35
     60.9700	  730.00	  776.58	-1836.58	  384.48
     61.0700	  704.00	  710.35	-1796.35	  384.61
     61.1700	  627.00	  670.97	-1833.97	  384.74
     61.2700	  625.00	  655.23	-1820.23	  384.87
     61.3700	  594.00	  661.36	-1857.36	  385.00
     61.4700	  654.00	  690.08	-1826.08	  385.13
     61.5700	  680.00	  744.08	-1854.08	  385.27
     61.6700	  789.00	  826.28	-1827.28	  385.40
     61.7700	  898.00	  937.11	-1829.11	  385.53
     61.8700	  997.00	 1071.62	-1864.62	  385.67
     61.9700	 1054.00	 1217.17	-1953.17	  385.80
     62.0700	 1275.00	 1352.26	-1867.26	  385.94
     62.1700	 1358.00	 1448.10	-1880.10	  386.07
     62.2700	 1396.00	 1477.15	-1871.15	  386.21
     62.3700	 1318.00	 1429.18	-1901.18	  386.35
     62.4700	 1308.00	 1319.27	-1801.27	  386.48
     62.5700	 1107.00	 1176.55	-1859.55	  386.62
     62.6700	  998.00	 1028.63	-1820.63	  386.76
     62.7700	  849.00	  894.87	-1835.87	  386.89
     62.8700	  725.00	  785.71	-1850.71	  387.03
     62.9700	  662.00	  704.05	-1832.05	  387.17
     63.0700	  598.00	  647.48	-1839.48	  387.31
     63.1700	  570.00	  610.83	-1830.83	  387.45
     63.2700	  576.00	  588.44	-1802.44	  387.59
     63.3700	  596.00	  575.54	-1769.54	  387.73
     63.4700	  571.00	  568.83	-1787.83	  387.87
     63.5700	  618.00	  566.60	-1738.60	  388.01
     63.6700	  560.00	  568.47	-1798.47	  388.15
     63.7700	  581.00	  575.20	-1784.20	  388.29
     63.8700	  619.00	  588.44	-1759.44	  388.43
     63.9700	  629.00	  610.34	-1771.34	  388.57
     64.0700	  665.00	  642.91	-1767.91	  388.72
     64.1700	  729.00	  687.18	-1748.18	  388.86
     64.2700	  774.00	  742.18	-1758.18	  389.00
     64.3700	  814.00	  804.11	-1780.11	  389.14
     64.4700	  953.00	  865.87	-1702.87	  389.28
     64.5700	  905.00	  917.41	-1802.41	  389.43
     64.6700	 1042.00	  947.97	-1695.97	  389.57
     64.7700	 1049.00	  950.46	-1691.46	  389.71
     64.8700	 1024.00	  926.57	-1692.57	  389.85
     64.9700	  985.00	  882.73	-1687.73	  390.00
     65.0700	  813.00	  828.57	-1805.57	  390.14
     65.1700	  861.00	  773.33	-1702.33	  390.28
     65.2700	  752.00	  723.57	-1761.57	  390.43
     65.3700	  755.00	  682.34	-1717.34	  390.57
     65.4700	  683.00	  649.79	-1756.79	  390.71
     65.5700	  629.00	  624.50	-1785.50	  390.86
     65.6700	  597.00	  604.84	-1797.84	  391.00
     65.7700	  559.00	  589.62	-1820.62	  391.14
     65.8700	  555.00	  578.03	-1813.03	  391.29
     65.9700	  571.00	  569.52	-1788.52	  391.43
     66.0700	  573.00	  563.70	-1780.70	  391.57
     66.1700	  517.00	  560.20	-1833.20	  391.72
     66.2700	  562.00	  558.68	-1786.68	  391.86
     66.3700	  594.00	  558.85	-1754.85	  392.00
     66.4700	  535.00	  560.44	-1815.44	  392.15
     66.5700	  534.00	  563.37	-1819.37	  392.29
     66.6700	  520.00	  567.88	-1837.88	  392.43
     66.7700	  580.00	  574.28	-1784.28	  392.57
     66.8700	  545.00	  583.80	-1828.80	  392.72
     66.9700	  564.00	  598.50	-1824.50	  392.86
     67.0700	  628.00	  621.91	-1783.91	  393.00
     67.1700	  617.00	  659.43	-1832.43	  393.14
     67.2700	  670.00	  718.50	-1838.50	  393.29
     67.3700	  748.00	  808.18	-1850.18	  393.43
     67.4700	 1002.00	  937.66	-1725.66	  393.57
     67.5700	 1117.00	 1113.16	-1786.16	  393.71
     67.6700	 1330.00	 1335.54	-1795.54	  393.85
     67.7700	 1556.00	 1595.82	-1829.82	  393.99
     67.8700	 1830.00	 1873.41	-1833.41	  394.13
     67.9700	 2150.00	 2134.93	-1774.93	  394.27
     68.0700	 2514.00	 2336.61	-1612.61	  394.41
     68.1700	 2452.00	 2433.79	-1771.79	  394.55
     68.2700	 2393.00	 2400.56	-1797.56	  394.69
     68.3700	 2294.00	 2246.12	-1742.12	  394.83
     68.4700	 1984.00	 2008.69	-1814.69	  394.97
     68.5700	 1702.00	 1734.46	-1822.46	  395.11
     68.6700	 1489.00	 1462.71	-1763.71	  395.25
     68.7700	 1211.00	 1220.14	-1799.14	  395.39
     68.8700	  975.00	 1021.32	-1836.32	  395.52
     68.9700	  859.00	  870.07	-1801.07	  395.66
     69.0700	  757.00	  762.26	-1795.26	  395.80
     69.1700	  740.00	  689.72	-1739.72	  395.94
     69.2700	  660.00	  643.09	-1773.09	  396.07
     69.3700	  660.00	  614.02	-1744.02	  396.21
     69.4700	  609.00	  596.06	-1777.06	  396.34
     69.5700	  593.00	  584.82	-1781.82	  396.48
     69.6700	  569.00	  577.53	-1798.53	  396.61
     69.7700	  555.00	  572.62	-1807.62	  396.75
     69.8700	  566.00	  569.20	-1793.20	  396.88
     69.9700	  597.00	  566.85	-1759.85	  397.01
     70.0700	  575.00	  565.33	-1780.33	  397.15
     70.1700	  617.00	  564.53	-1737.53	  397.28
     70.2700	  578.00	  564.45	-1776.45	  397.41
     70.3700	  520.00	  565.08	-1835.08	  397.54
     70.4700	  535.00	  566.56	-1821.56	  397.67
     70.5700	  542.00	  569.17	-1817.17	  397.80
     70.6700	  536.00	  573.48	-1827.48	  397.93
     70.7700	  553.00	  580.45	-1817.45	  398.06
     70.8700	  568.00	  591.77	-1813.77	  398.19
     70.9700	  557.00	  610.09	-1843.09	  398.32
     71.0700	  602.00	  639.27	-1827.27	  398.44
     71.1700	  616.00	  684.35	-1858.35	  398.57
     71.2700	  760.00	  751.14	-1781.14	  398.69
     71.3700	  867.00	  846.14	-1769.14	  398.82
     71.4700	  934.00	  971.41	-1827.41	  398.94
     71.5700	 1141.00	 1127.93	-1776.93	  399.07
     71.6700	 1187.00	 1310.10	-1913.10	  399.19
     71.7700	 1530.00	 1505.38	-1765.38	  399.31
     71.8700	 1701.00	 1693.99	-1782.99	  399.44
     71.9700	 1846.00	 1849.75	-1793.75	  399.56
     72.0700	 1895.00	 1944.35	-1839.35	  399.68
     72.1700	 1917.00	 1956.74	-1829.74	  399.80
     72.2700	 1827.00	 1884.11	-1847.11	  399.92
     72.3700	 1786.00	 1743.53	-1747.53	  400.03
     72.4700	 1680.00	 1562.16	-1672.16	  400.15
     72.5700	 1512.00	 1368.06	-1646.06	  400.27
     72.6700	 1328.00	 1182.35	-1644.35	  400.38
     72.7700	 1183.00	 1019.26	-1626.26	  400.50
     72.8700	 1069.00	  885.81	-1606.81	  400.61
     72.9700	  888.00	  783.11	-1685.11	  400.73
     73.0700	  885.00	  708.12	-1613.12	  400.84
     73.1700	  820.00	  655.72	-1625.72	  400.95
     73.2700	  767.00	  620.30	-1643.30	  401.06
     73.3700	  670.00	  596.81	-1716.81	  401.17
     73.4700	  677.00	  581.28	-1694.28	  401.28
     73.5700	  621.00	  570.93	-1739.93	  401.39
     73.6700	  593.00	  563.93	-1760.93	  401.50
     73.7700	  568.00	  559.18	-1781.18	  401.61
     73.8700	  590.00	  556.02	-1756.02	  401.71
     73.9700	  587.00	  554.10	-1757.10	  401.82
     74.0700	  580.00	  553.17	-1763.17	  401.92
     74.1700	  561.00	  553.06	-1782.06	  402.02
     74.2700	  552.00	  553.58	-1791.58	  402.13
     74.3700	  604.00	  554.49	-1740.49	  402.23
     74.4700	  612.00	  555.53	-1733.53	  402.33
     74.5700	  617.00	  556.35	-1729.35	  402.43
     74.6700	  600.00	  556.63	-1746.63	  402.53
     74.7700	  636.00	  556.13	-1710.13	  402.62
     74.8700	  604.00	  554.81	-1740.81	  402.72
     74.9700	  607.00	  552.85	-1735.85	  402.81
     75.0700	  619.00	  550.59	-1721.59	  402.91
     75.1700	  598.00	  548.41	-1740.41	  403.00
     75.2700	  563.00	  546.65	-1773.65	  403.09
     75.3700	  536.00	  545.75	-1799.75	  403.19
     75.4700	  552.00	  546.02	-1784.02	  403.28
     75.5700	  630.00	  548.03	-1708.03	  403.36
     75.6700	  568.00	  552.18	-1774.18	  403.45
     75.7700	  573.00	  558.87	-1775.87	  403.54
     75.8700	  581.00	  568.75	-1777.75	  403.63
     75.9700	  576.00	  581.96	-1795.96	  403.71
     76.0700	  598.00	  598.42	-1790.42	  403.79
     76.1700	  592.00	  617.55	-1815.55	  403.88
     76.2700	  634.00	  638.20	-1794.20	  403.96
     76.3700	  623.00	  658.58	-1825.58	  404.04
     76.4700	  668.00	  676.37	-1798.37	  404.12
     76.5700	  688.00	  688.95	-1790.95	  404.20
     76.6700	  721.00	  694.02	-1763.02	  404.27
     76.7700	  686.00	  690.50	-1794.50	  404.35
     76.8700	  614.00	  679.12	-1855.12	  404.42
     76.9700	  625.00	  661.97	-1826.97	  404.50
     77.0700	  609.00	  641.67	-1822.67	  404.57
     77.1700	  629.00	  620.45	-1781.45	  404.64
     77.2700	  565.00	  600.55	-1825.55	  404.71
     77.3700	  564.00	  583.06	-1809.06	  404.78
     77.4700	  521.00	  568.64	-1837.64	  404.84
     77.5700	  563.00	  557.40	-1784.40	  404.91
     77.6700	  534.00	  549.08	-1805.08	  404.97
     77.7700	  554.00	  543.21	-1779.21	  405.04
     77.8700	  520.00	  539.23	-1809.23	  405.10
     77.9700	  535.00	  536.63	-1791.63	  405.16
     78.0700	  495.00	  534.96	-1829.96	  405.22
     78.1700	  496.00	  533.91	-1827.91	  405.28
     78.2700	  539.00	  533.25	-1784.25	  405.34
     78.3700	  542.00	  532.85	-1780.85	  405.39
     78.4700	  534.00	  532.60	-1788.60	  405.45
     78.5700	  523.00	  532.48	-1799.48	  405.50
     78.6700	  511.00	  532.45	-1811.45	  405.55
     78.7700	  494.00	  532.51	-1828.51	  405.60
     78.8700	  552.00	  532.68	-1770.68	  405.65
     78.9700	  515.00	  532.97	-1807.97	  405.70
     79.0700	  550.00	  533.41	-1773.41	  405.74
     79.1700	  515.00	  534.04	-1809.04	  405.79
     79.2700	  538.00	  534.93	-1786.93	  405.83
     79.3700	  513.00	  536.14	-1813.14	  405.88
     79.4700	  508.00	  537.56	-1819.56	  405.92
     79.5700	  547.00	  539.63	-1782.63	  405.96
     79.6700	  496.00	  542.28	-1836.28	  405.99
     79.7700	  540.00	  545.63	-1795.63	  406.03
     79.8700	  575.00	  549.81	-1764.81	  406.07
     79.9700	  531.00	  555.00	-1814.00	  406.10
     80.0700	  543.00	  561.40	-1808.40	  406.13
     80.1700	  542.00	  569.25	-1817.25	  406.16
     80.2700	  539.00	  578.79	-1829.79	  406.19
     80.3700	  537.00	  590.28	-1843.28	  406.22
     80.4700	  570.00	  603.89	-1823.89	  406.25
     80.5700	  554.00	  619.58	-1855.58	  406.27
     80.6700	  574.00	  637.03	-1853.03	  406.30
     80.7700	  660.00	  655.55	-1785.55	  406.32
     80.8700	  659.00	  674.03	-1805.03	  406.34
     80.9700	  642.00	  691.10	-1839.10	  406.36
     81.0700	  706.00	  705.29	-1789.29	  406.38
     81.1700	  687.00	  715.41	-1818.41	  406.39
     81.2700	  719.00	  720.73	-1791.73	  406.41
     81.3700	  782.00	  720.98	-1728.98	  406.42
     81.4700	  712.00	  716.31	-1794.31	  406.43
     81.5700	  741.00	  707.30	-1756.30	  406.44
     81.6700	  733.00	  694.82	-1751.82	  406.45
     81.7700	  673.00	  679.85	-1796.85	  406.46
     81.8700	  756.00	  663.32	-1697.32	  406.46
     81.9700	  735.00	  646.14	-1701.14	  406.47
     82.0700	  717.00	  629.16	-1702.16	  406.47
     82.1700	  698.00	  613.22	-1705.22	  406.47
     82.2700	  647.00	  598.82	-1741.82	  406.47
     82.3700	  594.00	  586.23	-1782.23	  406.47
     82.4700	  606.00	  575.56	-1759.56	  406.46
     82.5700	  603.00	  566.79	-1753.79	  406.46
     82.6700	  595.00	  559.81	-1754.81	  406.45
     82.7700	  578.00	  554.59	-1766.59	  406.44
     82.8700	  526.00	  550.97	-1814.97	  406.43
     82.9700	  531.00	  548.85	-1807.85	  406.42
     83.0700	  552.00	  548.15	-1786.15	  406.41
     83.1700	  530.00	  548.78	-1808.78	  406.39
     83.2700	  493.00	  550.67	-1847.67	  406.37
     83.3700	  550.00	  553.69	-1793.69	  406.36
     83.4700	  534.00	  557.70	-1813.70	  406.34
     83.5700	  519.00	  562.45	-1833.45	  406.32
     83.6700	  515.00	  567.60	-1842.60	  406.29
     83.7700	  594.00	  572.73	-1768.73	  406.27
     83.8700	  587.00	  577.32	-1780.32	  406.24
     83.9700	  574.00	  580.82	-1796.82	  406.21
     84.0700	  596.00	  582.69	-1776.69	  406.18
     84.1700	  570.00	  582.60	-1802.60	  406.15
     84.2700	  548.00	  580.53	-1822.53	  406.12
     84.3700	  534.00	  576.76	-1832.76	  406.08
     84.4700	  567.00	  571.79	-1794.79	  406.05
     84.5700	  527.00	  566.15	-1829.15	  406.01
     84.6700	  528.00	  560.34	-1822.34	  405.97
     84.7700	  554.00	  554.75	-1790.75	  405.93
     84.8700	  512.00	  549.66	-1827.66	  405.89
     84.9700	  551.00	  545.27	-1784.27	  405.84
     85.0700	  525.00	  541.64	-1806.64	  405.80
     85.1700	  507.00	  538.79	-1821.79	  405.75
     85.2700	  538.00	  536.65	-1788.65	  405.70
     85.3700	  542.00	  535.15	-1783.15	  405.65
     85.4700	  485.00	  534.18	-1839.18	  405.59
     85.5700	  534.00	  533.66	-1789.66	  405.54
     85.6700	  494.00	  533.50	-1829.50	  405.48
     85.7700	  515.00	  533.66	-1808.66	  405.42
     85.8700	  526.00	  534.10	-1798.10	  405.36
     85.9700	  518.00	  534.82	-1806.82	  405.30
     86.0700	  522.00	  535.86	-1803.86	  405.24
     86.1700	  548.00	  537.25	-1779.25	  405.18
     86.2700	  501.00	  539.08	-1828.08	  405.11
     86.3700	  528.00	  541.44	-1803.44	  405.04
     86.4700	  606.00	  544.44	-1728.44	  404.97
     86.5700	  553.00	  548.21	-1785.21	  404.90
     86.6700	  587.00	  552.83	-1755.83	  404.82
     86.7700	  554.00	  558.35	-1794.35	  404.75
     86.8700	  578.00	  564.41	-1776.41	  404.67
     86.9700	  578.00	  571.48	-1783.48	  404.59
     87.0700	  572.00	  578.95	-1796.95	  404.51
     87.1700	  584.00	  586.39	-1792.39	  404.43
     87.2700	  572.00	  593.25	-1811.25	  404.35
     87.3700	  664.00	  598.92	-1724.92	  404.26
     87.4700	  643.00	  602.76	-1749.76	  404.18
     87.5700	  619.00	  604.29	-1775.29	  404.09
     87.6700	  620.00	  603.28	-1773.28	  404.00
     87.7700	  624.00	  599.91	-1765.91	  403.90
     87.8700	  586.00	  594.70	-1798.70	  403.81
     87.9700	  584.00	  588.33	-1794.33	  403.71
     88.0700	  566.00	  581.56	-1805.56	  403.62
     88.1700	  645.00	  575.07	-1720.07	  403.52
     88.2700	  620.00	  569.47	-1739.47	  403.42
     88.3700	  582.00	  565.22	-1773.22	  403.31
     88.4700	  570.00	  562.65	-1782.65	  403.21
     88.5700	  580.00	  561.93	-1771.93	  403.10
     88.6700	  537.00	  563.06	-1816.06	  403.00
     88.7700	  556.00	  565.91	-1799.91	  402.89
     88.8700	  599.00	  570.23	-1761.23	  402.77
     88.9700	  568.00	  575.62	-1797.62	  402.66
     89.0700	  603.00	  581.60	-1768.60	  402.55
     89.1700	  652.00	  587.59	-1725.59	  402.43
     89.2700	  605.00	  592.97	-1777.97	  402.31
     89.3700	  574.00	  597.11	-1813.11	  402.19
     89.4700	  592.00	  599.44	-1797.44	  402.07
     89.5700	  558.00	  599.60	-1831.60	  401.95
     89.6700	  562.00	  597.52	-1825.52	  401.82
     89.7700	  546.00	  593.46	-1837.46	  401.70
     89.8700	  594.00	  587.87	-1783.87	  401.57
     89.9700	  543.00	  581.31	-1828.31	  401.44
     90.0700	  537.00	  574.30	-1827.30	  401.31
     90.1700	  572.00	  567.32	-1785.32	  401.17
     90.2700	  529.00	  560.73	-1821.73	  401.04
     90.3700	  540.00	  554.79	-1804.79	  400.90
     90.4700	  577.00	  549.67	-1762.67	  400.76
     90.5700	  525.00	  545.43	-1810.43	  400.62
     90.6700	  551.00	  542.07	-1781.07	  400.48
     90.7700	  560.00	  539.52	-1769.52	  400.34
     90.8700	  510.00	  537.69	-1817.69	  400.19
     90.9700	  511.00	  536.48	-1815.48	  400.05
     91.0700	  510.00	  535.79	-1815.79	  399.90
     91.1700	  482.00	  535.56	-1843.56	  399.75
     91.2700	  544.00	  535.72	-1781.72	  399.59
     91.3700	  523.00	  536.29	-1803.29	  399.44
     91.4700	  520.00	  537.29	-1807.29	  399.29
     91.5700	  480.00	  538.80	-1848.80	  399.13
     91.6700	  480.00	  540.94	-1850.94	  398.97
     91.7700	  530.00	  543.85	-1803.85	  398.81
     91.8700	  574.00	  547.73	-1763.73	  398.65
     91.9700	  540.00	  552.76	-1802.76	  398.49
     92.0700	  541.00	  558.93	-1807.93	  398.32
     92.1700	  562.00	  566.85	-1794.85	  398.15
     92.2700	  589.00	  576.41	-1777.41	  397.99
     92.3700	  539.00	  587.66	-1838.66	  397.82
     92.4700	  588.00	  600.53	-1802.53	  397.64
     92.5700	  606.00	  614.83	-1798.83	  397.47
     92.6700	  660.00	  630.27	-1760.27	  397.30
     92.7700	  638.00	  646.39	-1798.39	  397.12
     92.8700	  651.00	  662.63	-1801.63	  396.94
     92.9700	  770.00	  678.35	-1698.35	  396.76
     93.0700	  750.00	  692.89	-1732.89	  396.58
     93.1700	  776.00	  705.70	-1719.70	  396.40
     93.2700	  761.00	  716.53	-1745.53	  396.21
     93.3700	  801.00	  725.51	-1714.51	  396.03
     93.4700	  814.00	  733.14	-1709.14	  395.84
     93.5700	  767.00	  740.13	-1763.13	  395.65
     93.6700	  839.00	  747.24	-1698.24	  395.46
     93.7700	  818.00	  755.18	-1727.18	  395.27
     93.8700	  852.00	  764.49	-1702.49	  395.08
     93.9700	  834.00	  775.64	-1731.64	  394.88
     94.0700	  857.00	  788.95	-1721.95	  394.69
     94.1700	  845.00	  804.64	-1749.64	  394.49
     94.2700	  865.00	  822.68	-1747.68	  394.29
     94.3700	  927.00	  842.68	-1705.68	  394.09
     94.4700	  862.00	  863.82	-1791.82	  393.88
     94.5700	  903.00	  884.85	-1771.85	  393.68
     94.6700	  896.00	  904.12	-1798.12	  393.48
     94.7700	  943.00	  919.69	-1766.69	  393.27
     94.8700	  920.00	  929.58	-1799.58	  393.06
     94.9700	  970.00	  932.13	-1752.13	  392.85
     95.0700	  922.00	  926.45	-1794.45	  392.64
     95.1700	  924.00	  912.65	-1778.65	  392.43
     95.2700	  887.00	  891.82	-1794.82	  392.21
     95.3700	  815.00	  865.74	-1840.74	  392.00
     95.4700	  804.00	  836.52	-1822.52	  391.78
     95.5700	  816.00	  806.30	-1780.30	  391.56
     95.6700	  772.00	  777.11	-1795.11	  391.34
     95.7700	  728.00	  750.80	-1812.80	  391.12
     95.8700	  756.00	  729.03	-1763.03	  390.90
     95.9700	  653.00	  713.28	-1850.28	  390.68
     96.0700	  618.00	  704.85	-1876.84	  390.45
     96.1700	  653.00	  704.83	-1841.83	  390.22
     96.2700	  643.00	  714.19	-1861.19	  390.00
     96.3700	  704.00	  733.65	-1819.65	  389.77
     96.4700	  771.00	  763.73	-1782.73	  389.54
     96.5700	  758.00	  804.59	-1836.59	  389.31
     96.6700	  810.00	  855.99	-1835.99	  389.07
     96.7700	  870.00	  917.17	-1837.17	  388.84
     96.8700	  989.00	  986.71	-1787.71	  388.60
     96.9700	 1078.00	 1062.54	-1774.54	  388.37
     97.0700	 1121.00	 1141.80	-1810.80	  388.13
     97.1700	 1239.00	 1221.00	-1772.00	  387.89
     97.2700	 1281.00	 1295.99	-1804.99	  387.65
     97.3700	 1344.00	 1362.19	-1808.19	  387.41
     97.4700	 1427.00	 1414.93	-1777.93	  387.16
     97.5700	 1406.00	 1450.03	-1834.03	  386.92
     97.6700	 1483.00	 1464.58	-1771.58	  386.68
     97.7700	 1443.00	 1457.55	-1804.55	  386.43
     97.8700	 1429.00	 1430.04	-1791.04	  386.18
     97.9700	 1394.00	 1384.95	-1780.95	  385.93
     98.0700	 1350.00	 1326.29	-1766.29	  385.68
     98.1700	 1280.00	 1258.60	-1768.60	  385.43
     98.2700	 1203.00	 1186.32	-1773.32	  385.18
     98.3700	 1060.00	 1113.64	-1843.64	  384.93
     98.4700	 1054.00	 1044.20	-1780.20	  384.67
     98.5700	  979.00	  981.11	-1792.11	  384.42
     98.6700	  930.00	  926.82	-1786.82	  384.16
     98.7700	  846.00	  883.25	-1827.25	  383.91
     98.8700	  842.00	  851.83	-1799.83	  383.65
     98.9700	  743.00	  833.57	-1880.57	  383.39
     99.0700	  745.00	  829.16	-1874.16	  383.13
     99.1700	  795.00	  839.02	-1834.02	  382.87
     99.2700	  845.00	  863.35	-1808.35	  382.61
     99.3700	  877.00	  902.14	-1815.14	  382.34
     99.4700	  959.00	  955.16	-1786.16	  382.08
     99.5700	  977.00	 1021.89	-1834.89	  381.81
     99.6700	 1043.00	 1101.47	-1848.47	  381.55
     99.7700	 1167.00	 1192.58	-1815.58	  381.28
     99.8700	 1252.00	 1293.35	-1831.35	  381.02
     99.9700	 1357.00	 1401.28	-1834.28	  380.75
    100.0700	 1521.00	 1513.17	-1782.17	  380.48
    100.1700	 1575.00	 1625.19	-1840.19	  380.21
    100.2700	 1767.00	 1732.98	-1755.98	  379.94
    100.3700	 1832.00	 1832.11	-1790.11	  379.67
    100.4700	 1997.00	 1918.49	-1711.49	  379.39
    100.5700	 1999.00	 1988.86	-1779.86	  379.12
    100.6700	 2088.00	 2040.93	-1742.93	  378.85
    100.7700	 2115.00	 2073.18	-1748.18	  378.57
    100.8700	 2109.00	 2084.73	-1765.73	  378.30
    100.9700	 2238.00	 2075.07	-1627.07	  378.02
    101.0700	 2019.00	 2044.33	-1815.33	  377.75
    101.1700	 1989.00	 1993.61	-1794.61	  377.47
    101.2700	 1953.00	 1925.35	-1762.35	  377.19
    101.3700	 1892.00	 1843.34	-1741.34	  376.91
    101.4700	 1719.00	 1752.36	-1823.36	  376.63
    101.5700	 1634.00	 1657.46	-1813.46	  376.35
    101.6700	 1626.00	 1563.46	-1727.46	  376.07
    101.7700	 1484.00	 1474.49	-1780.49	  375.79
    101.8700	 1333.00	 1393.71	-1850.71	  375.51
    101.9700	 1302.00	 1323.23	-1811.23	  375.23
    102.0700	 1244.00	 1264.07	-1810.07	  374.95
    102.1700	 1231.00	 1216.23	-1775.23	  374.67
    102.2700	 1238.00	 1178.73	-1730.73	  374.38
    102.3700	 1170.00	 1149.79	-1769.79	  374.10
    102.4700	 1221.00	 1127.02	-1696.02	  373.82
    102.5700	 1075.00	 1107.69	-1822.69	  373.53
    102.6700	 1025.00	 1089.05	-1854.05	  373.25
    102.7700	 1019.00	 1068.69	-1839.69	  372.96
    102.8700	 1033.00	 1044.84	-1801.84	  372.68
    102.9700	 1046.00	 1016.63	-1760.63	  372.39
    103.0700	  970.00	  983.99	-1803.99	  372.11
    103.1700	  896.00	  947.54	-1841.54	  371.82
    103.2700	  878.00	  908.33	-1820.33	  371.53
    103.3700	  869.00	  867.57	-1788.57	  371.25
    103.4700	  846.00	  826.56	-1770.56	  370.96
    103.5700	  819.00	  786.48	-1757.48	  370.67
    103.6700	  772.00	  748.35	-1766.35	  370.39
    103.7700	  722.00	  713.03	-1781.03	  370.10
    103.8700	  691.00	  681.10	-1780.10	  369.81
    103.9700	  633.00	  652.95	-1809.95	  369.53
    104.0700	  578.00	  628.74	-1840.74	  369.24
    104.1700	  590.00	  608.41	-1808.41	  368.95
    104.2700	  581.00	  591.79	-1800.79	  368.66
    104.3700	  561.00	  578.57	-1807.57	  368.38
    104.4700	  573.00	  568.39	-1785.40	  368.09
    104.5700	  555.00	  560.86	-1795.86	  367.80
    104.6700	  498.00	  555.57	-1847.57	  367.51
    104.7700	  533.00	  552.15	-1809.15	  367.23
    104.8700	  561.00	  550.26	-1779.26	  366.94
    104.9700	  528.00	  549.60	-1811.60	  366.65
    105.0700	  547.00	  549.91	-1792.91	  366.37
    105.1700	  535.00	  550.96	-1805.96	  366.08
    105.2700	  553.00	  552.64	-1789.64	  365.79
    105.3700	  517.00	  554.78	-1827.78	  365.51
    105.4700	  566.00	  557.30	-1781.30	  365.22
    105.5700	  527.00	  560.14	-1823.14	  364.94
    105.6700	  559.00	  563.33	-1794.33	  364.65
    105.7700	  518.00	  566.87	-1838.87	  364.37
    105.8700	  565.00	  570.86	-1795.86	  364.08
    105.9700	  529.00	  575.39	-1836.39	  363.80
    106.0700	  554.00	  580.58	-1816.58	  363.51
    106.1700	  593.00	  586.55	-1783.55	  363.23
    106.2700	  555.00	  593.36	-1828.36	  362.95
    106.3700	  573.00	  601.03	-1818.03	  362.67
    106.4700	  563.00	  609.52	-1836.52	  362.38
    106.5700	  587.00	  618.71	-1821.71	  362.10
    106.6700	  605.00	  628.41	-1813.41	  361.82
    106.7700	  628.00	  638.37	-1800.37	  361.54
    106.8700	  630.00	  648.24	-1808.24	  361.26
    106.9700	  624.00	  657.66	-1823.66	  360.98
    107.0700	  612.00	  666.20	-1844.20	  360.71
    107.1700	  653.00	  673.49	-1810.49	  360.43
    107.2700	  697.00	  679.17	-1772.17	  360.15
    107.3700	  682.00	  683.01	-1791.01	  359.88
    107.4700	  620.00	  684.93	-1854.93	  359.60
    107.5700	  662.00	  685.06	-1813.06	  359.33
    107.6700	  655.00	  683.67	-1818.67	  359.06
    107.7700	  651.00	  681.18	-1820.18	  358.78
    107.8700	  669.00	  678.06	-1799.06	  358.51
    107.9700	  656.00	  674.76	-1808.76	  358.24
    108.0700	  669.00	  671.70	-1792.70	  357.97
    108.1700	  684.00	  669.20	-1775.20	  357.70
    108.2700	  658.00	  667.50	-1799.50	  357.44
    108.3700	  644.00	  666.68	-1812.68	  357.17
    108.4700	  673.00	  666.73	-1783.73	  356.91
    108.5700	  653.00	  667.51	-1804.51	  356.64
    108.6700	  651.00	  668.77	-1807.77	  356.38
    108.7700	  694.00	  670.17	-1766.17	  356.12
    108.8700	  704.00	  671.31	-1757.31	  355.86
    108.9700	  647.00	  671.78	-1814.78	  355.60
    109.0700	  716.00	  671.16	-1745.16	  355.34
    109.1700	  689.00	  669.14	-1770.14	  355.08
    109.2700	  666.00	  665.53	-1789.53	  354.83
    109.3700	  653.00	  660.27	-1797.27	  354.58
    109.4700	  665.00	  653.46	-1778.46	  354.32
    109.5700	  638.00	  645.30	-1797.30	  354.07
    109.6700	  595.00	  636.10	-1831.10	  353.82
    109.7700	  621.00	  626.18	-1795.18	  353.58
    109.8700	  652.00	  615.88	-1753.88	  353.33
    109.9700	  655.00	  605.53	-1740.53	  353.08
    110.0700	  627.00	  595.43	-1758.43	  352.84
    110.1700	  586.00	  585.84	-1789.84	  352.60
    110.2700	  636.00	  576.96	-1730.96	  352.36
    110.3700	  549.00	  568.94	-1809.94	  352.12
    110.4700	  537.00	  561.89	-1814.89	  351.89
    110.5700	  547.00	  555.86	-1798.86	  351.65
    110.6700	  585.00	  550.86	-1755.86	  351.42
    110.7700	  571.00	  546.86	-1765.86	  351.19
    110.8700	  556.00	  543.80	-1777.80	  350.96
    110.9700	  551.00	  541.60	-1780.60	  350.73
    111.0700	  530.00	  540.18	-1800.18	  350.51
    111.1700	  535.00	  539.44	-1794.44	  350.29
    111.2700	  552.00	  539.30	-1777.30	  350.07
    111.3700	  580.00	  539.68	-1749.68	  349.85
    111.4700	  601.00	  540.48	-1729.48	  349.63
    111.5700	  550.00	  541.67	-1781.67	  349.42
    111.6700	  553.00	  543.17	-1780.17	  349.21
    111.7700	  566.00	  544.96	-1768.96	  349.00
    111.8700	  488.00	  546.99	-1848.99	  348.79
    111.9700	  555.00	  549.26	-1784.26	  348.58
    112.0700	  510.00	  551.75	-1831.75	  348.38
    112.1700	  553.00	  554.46	-1791.46	  348.18
    112.2700	  575.00	  557.41	-1772.41	  347.98
    112.3700	  598.00	  560.60	-1752.60	  347.79
    112.4700	  584.00	  564.06	-1770.06	  347.59
    112.5700	  582.00	  567.84	-1775.84	  347.40
    112.6700	  594.00	  571.97	-1767.97	  347.22
    112.7700	  563.00	  576.53	-1803.53	  347.03
    112.8700	  587.00	  581.60	-1784.60	  346.85
    112.9700	  611.00	  587.27	-1766.27	  346.67
    113.0700	  661.00	  593.70	-1722.70	  346.49
    113.1700	  695.00	  601.05	-1696.05	  346.32
    113.2700	  699.00	  609.58	-1700.58	  346.14
    113.3700	  747.00	  619.58	-1662.58	  345.98
    113.4700	  790.00	  631.42	-1631.42	  345.81
    113.5700	  741.00	  645.60	-1694.60	  345.65
    113.6700	  756.00	  662.74	-1696.74	  345.49
    113.7700	  892.00	  683.58	-1581.58	  345.33
    113.8700	  964.00	  709.05	-1535.05	  345.18
    113.9700	  920.00	  740.26	-1610.26	  345.03
    114.0700	 1009.00	  778.51	-1559.51	  344.88
    114.1700	 1055.00	  825.36	-1560.36	  344.74
    114.2700	 1155.00	  882.54	-1517.54	  344.60
    114.3700	 1122.00	  952.01	-1620.01	  344.46
    114.4700	 1204.00	 1035.89	-1621.89	  344.32
    114.5700	 1325.00	 1136.46	-1601.46	  344.19
    114.6700	 1433.00	 1256.09	-1613.09	  344.07
    114.7700	 1553.00	 1397.11	-1634.11	  343.94
    114.8700	 1732.00	 1561.72	-1619.72	  343.82
    114.9700	 1857.00	 1751.87	-1684.87	  343.70
    115.0700	 2119.00	 1969.15	-1640.15	  343.59
    115.1700	 2301.00	 2214.63	-1703.63	  343.48
    115.2700	 2573.00	 2488.62	-1705.62	  343.38
    115.3700	 2783.00	 2790.58	-1797.58	  343.27
    115.4700	 3097.00	 3118.96	-1811.96	  343.17
    115.5700	 3416.00	 3471.18	-1845.18	  343.08
    115.6700	 3636.00	 3843.52	-1997.52	  342.99
    115.7700	 3986.00	 4230.91	-2034.91	  342.90
    115.8700	 4376.00	 4627.11	-2041.11	  342.82
    115.9700	 4672.00	 5024.58	-2142.58	  342.74
    116.0700	 5135.00	 5414.80	-2069.80	  342.67
    116.1700	 5468.00	 5788.22	-2110.22	  342.60
    116.2700	 5973.00	 6134.35	-1951.35	  342.53
    116.3700	 6343.00	 6442.32	-1889.32	  342.47
    116.4700	 6594.00	 6701.27	-1897.27	  342.41
    116.5700	 6781.00	 6901.16	-1910.16	  342.36
    116.6700	 7027.00	 7033.58	-1796.58	  342.31
    116.7700	 7141.00	 7092.62	-1741.62	  342.26
    116.8700	 7160.00	 7075.65	-1705.65	  342.22
    116.9700	 7090.00	 6983.74	-1683.74	  342.19
    117.0700	 6905.00	 6821.40	-1706.40	  342.15
    117.1700	 6855.00	 6596.02	-1531.02	  342.13
    117.2700	 6420.00	 6317.06	-1687.06	  342.10
    117.3700	 6001.00	 5995.07	-1784.07	  342.09
    117.4700	 5800.00	 5641.00	-1631.00	  342.07
    117.5700	 5194.00	 5265.38	-1861.38	  342.07
    117.6700	 4862.00	 4878.06	-1806.06	  342.06
    117.7700	 4592.00	 4488.03	-1686.03	  342.07
    117.8700	 4256.00	 4103.13	-1637.13	  342.07
    117.9700	 3917.00	 3730.05	-1603.05	  342.08
    118.0700	 3601.00	 3374.10	-1563.10	  342.10
    118.1700	 3201.00	 3039.41	-1628.41	  342.12
    118.2700	 2871.00	 2728.99	-1647.99	  342.15
    118.3700	 2445.00	 2444.71	-1789.71	  342.18
    118.4700	 2102.00	 2187.51	-1875.51	  342.22
    118.5700	 1874.00	 1957.34	-1873.34	  342.26
    118.6700	 1630.00	 1753.52	-1913.52	  342.31
    118.7700	 1486.00	 1574.82	-1878.82	  342.37
    118.8700	 1318.00	 1419.59	-1891.59	  342.43
    118.9700	 1170.00	 1285.90	-1905.90	  342.49
    119.0700	 1014.00	 1171.62	-1947.62	  342.56
    119.1700	  956.00	 1074.57	-1908.57	  342.64
    119.2700	  925.00	  992.64	-1857.64	  342.72
    119.3700	  858.00	  923.80	-1855.80	  342.81
    119.4700	  765.00	  866.19	-1891.19	  342.90
    119.5700	  753.00	  818.09	-1855.09	  343.00
    119.6700	  681.00	  777.99	-1886.99	  343.10
    119.7700	  635.00	  744.58	-1899.58	  343.21
    119.8700	  643.00	  716.75	-1863.75	  343.33
    119.9700	  609.00	  693.54	-1874.54	  343.45
    120.0700	  593.00	  674.17	-1871.17	  343.58
    120.1700	  584.00	  657.97	-1863.97	  343.72
    120.2700	  635.00	  644.42	-1799.42	  343.86
    120.3700	  663.00	  633.09	-1760.09	  344.01
    120.4700	  576.00	  623.62	-1837.62	  344.16
    120.5700	  582.00	  615.74	-1823.74	  344.33
    120.6700	  572.00	  609.23	-1827.23	  344.49
    120.7700	  593.00	  603.90	-1800.90	  344.67
    120.8700	  552.00	  599.64	-1837.64	  344.85
    120.9700	  561.00	  596.31	-1825.31	  345.03
    121.0700	  538.00	  593.86	-1845.86	  345.23
    121.1700	  575.00	  592.19	-1807.19	  345.43
    121.2700	  569.00	  591.27	-1812.27	  345.64
    121.3700	  520.00	  591.04	-1861.04	  345.85
    121.4700	  548.00	  591.47	-1833.47	  346.07
    121.5700	  603.00	  592.49	-1779.49	  346.30
    121.6700	  594.00	  594.07	-1790.07	  346.54
    121.7700	  568.00	  596.16	-1818.16	  346.78
    121.8700	  552.00	  598.69	-1836.69	  347.03
    121.9700	  626.00	  601.60	-1765.60	  347.29
    122.0700	  580.00	  604.78	-1814.78	  347.55
    122.1700	  663.00	  608.19	-1735.19	  347.82
    122.2700	  608.00	  611.72	-1793.72	  348.10
    122.3700	  620.00	  615.25	-1785.25	  348.39
    122.4700	  659.00	  618.67	-1749.67	  348.69
    122.5700	  601.00	  621.88	-1810.88	  348.99
    122.6700	  571.00	  624.75	-1843.75	  349.30
    122.7700	  655.00	  627.19	-1762.19	  349.62
    122.8700	  663.00	  629.10	-1756.10	  349.94
    122.9700	  660.00	  630.39	-1760.39	  350.28
    123.0700	  621.00	  631.02	-1800.02	  350.62
    123.1700	  664.00	  630.96	-1756.96	  350.97
    123.2700	  680.00	  630.22	-1740.22	  351.32
    123.3700	  586.00	  628.83	-1832.83	  351.69
    123.4700	  686.00	  626.84	-1730.84	  352.06
    123.5700	  615.00	  624.31	-1799.31	  352.45
    123.6700	  633.00	  621.32	-1778.32	  352.84
    123.7700	  667.00	  617.95	-1740.95	  353.24
    123.8700	  623.00	  614.29	-1781.29	  353.64
    123.9700	  631.00	  610.41	-1769.41	  354.06
    124.0700	  605.00	  606.40	-1791.40	  354.49
    124.1700	  625.00	  602.33	-1767.33	  354.92
    124.2700	  606.00	  598.25	-1782.25	  355.36
    124.3700	  609.00	  594.25	-1775.25	  355.81
    124.4700	  619.00	  590.36	-1761.36	  356.27
    124.5700	  618.00	  586.63	-1758.63	  356.74
    124.6700	  611.00	  583.09	-1762.09	  357.22
    124.7700	  606.00	  579.77	-1763.77	  357.71
    124.8700	  615.00	  576.68	-1751.68	  358.20
    124.9700	  627.00	  472.73	-1635.73	  358.71
    125.0700	  537.00	  473.25	-1790.00	  359.22
    125.1700	  610.00	  473.77	-1790.00	  359.75
    125.2700	  570.00	  474.30	-1790.00	  360.28
    125.3700	  570.00	  474.85	-1790.00	  360.83
    125.4700	  556.00	  475.40	-1790.00	  361.38
    125.5700	  570.00	  475.96	-1790.00	  361.94
    125.6700	  545.00	  476.54	-1790.00	  362.51
    125.7700	  595.00	  477.12	-1790.00	  363.10
    125.8700	  539.00	  477.71	-1790.00	  363.69
    125.9700	  547.00	  478.31	-1790.00	  364.29
    126.0700	  582.00	  478.92	-1790.00	  364.90
    126.1700	  584.00	  479.55	-1790.00	  365.52
    126.2700	  583.00	  480.18	-1790.00	  366.16
    126.3700	  572.00	  480.82	-1790.00	  366.80
    126.4700	  543.00	  481.47	-1790.00	  367.45
    126.5700	  593.00	  482.14	-1790.00	  368.12
    126.6700	  601.00	  482.81	-1790.00	  368.79
    126.7700	  583.00	  483.50	-1790.00	  369.47
    126.8700	  574.00	  484.19	-1790.00	  370.17
    126.9700	  612.00	  484.90	-1790.00	  370.88
    127.0700	  571.00	  485.61	-1790.00	  371.59
    127.1700	  589.00	  486.34	-1790.00	  372.32
    127.2700	  593.00	  487.08	-1790.00	  373.06
    127.3700	  615.00	  487.83	-1790.00	  373.81
    127.4700	  580.00	  488.59	-1790.00	  374.57
    127.5700	  626.00	  489.36	-1790.00	  375.34
    127.6700	  662.00	  490.14	-1790.00	  376.12
    127.7700	  696.00	  490.94	-1790.00	  376.92
    127.8700	  684.00	  491.74	-1790.00	  377.72
    127.9700	  711.00	  492.56	-1790.00	  378.54
    128.0700	  722.00	  493.39	-1790.00	  379.37
    128.1700	  693.00	  494.23	-1790.00	  380.21
    128.2700	  705.00	  495.08	-1790.00	  381.06
    128.3700	  743.00	  495.94	-1790.00	  381.92
    128.4700	  740.00	  496.82	-1790.00	  382.80
    128.5700	    0.00	  497.71	-1790.00	  383.69
    128.6700	    0.00	  498.61	-1790.00	  384.59
     12.3210	        	        	        	        	       0	(  0  0  2)	  0  1
     24.9190	        	        	        	        	       0	(  0  0  4)	  0  1
     28.3536	        	        	        	        	       0	(  1  0  0)	  0  1
     29.0519	        	        	        	        	       0	(  1  0  1)	  0  1
     31.0612	        	        	        	        	       0	(  1  0  2)	  0  1
     34.1742	        	        	        	        	       0	(  1  0  3)	  0  1
     37.8341	        	        	        	        	       0	(  0  0  6)	  0  1
     38.1572	        	        	        	        	       0	(  1  0  4)	  0  1
     42.8141	        	        	        	        	       0	(  1  0  5)	  0  1
     48.0057	        	        	        	        	       0	(  1  0  6)	  0  1
     50.3092	        	        	        	        	       0	(  1  1  0)	  0  1
     51.2734	        	        	        	        	       0	(  0  0  8)	  0  1
     52.0351	        	        	        	        	       0	(  1  1  2)	  0  1
     53.6444	        	        	        	        	       0	(  1  0  7)	  0  1
     56.9914	        	        	        	        	       0	(  1  1  4)	  0  1
     58.8143	        	        	        	        	       0	(  2  0  0)	  0  1
     59.2066	        	        	        	        	       0	(  2  0  1)	  0  1
     59.6840	        	        	        	        	       0	(  1  0  8)	  0  1
     60.3740	        	        	        	        	       0	(  2  0  2)	  0  1
     62.2906	        	        	        	        	       0	(  2  0  3)	  0  1
     64.6992	        	        	        	        	       0	(  1  1  6)	  0  1
     64.9194	        	        	        	        	       0	(  2  0  4)	  0  1
     65.5234	        	        	        	        	       0	(  0  0 10)	  0  1
     66.1106	        	        	        	        	       0	(  1  0  9)	  0  1
     68.2195	        	        	        	        	       0	(  2  0  5)	  0  1
     72.1542	        	        	        	        	       0	(  2  0  6)	  0  1
     72.9382	        	        	        	        	       0	(  1  0 10)	  0  1
     74.7548	        	        	        	        	       0	(  1  1  8)	  0  1
     76.6969	        	        	        	        	       0	(  2  0  7)	  0  1
     80.2092	        	        	        	        	       0	(  1  0 11)	  0  1
     81.0306	        	        	        	        	       0	(  0  0 12)	  0  1
     81.0807	        	        	        	        	       0	(  2  1  0)	  0  1
     81.4213	        	        	        	        	       0	(  2  1  1)	  0  1
     81.8373	        	        	        	        	       0	(  2  0  8)	  0  1
     82.4412	        	        	        	        	       0	(  2  1  2)	  0  1
     84.1361	        	        	        	        	       0	(  2  1  3)	  0  1
     86.5008	        	        	        	        	       0	(  2  1  4)	  0  1
     87.0505	        	        	        	        	       0	(  1  1 10)	  0  1
     87.5873	        	        	        	        	       0	(  2  0  9)	  0  1
     87.9993	        	        	        	        	       0	(  1  0 12)	  0  1
     89.5333	        	        	        	        	       0	(  2  1  5)	  0  1
     93.2392	        	        	        	        	       0	(  2  1  6)	  0  1
     93.9892	        	        	        	        	       0	(  2  0 10)	  0  1
     94.9899	        	        	        	        	       0	(  3  0  0)	  0  1
     95.3281	        	        	        	        	       0	(  3  0  1)	  0  1
     96.3438	        	        	        	        	       0	(  3  0  2)	  0  1
     96.4320	        	        	        	        	       0	(  1  0 13)	  0  1
     97.6384	        	        	        	        	       0	(  2  1  7)	  0  1
     98.0413	        	        	        	        	       0	(  3  0  3)	  0  1
     98.6091	        	        	        	        	       0	(  0  0 14)	  0  1
    100.4303	        	        	        	        	       0	(  3  0  4)	  0  1
    101.1292	        	        	        	        	       0	(  2  0 11)	  0  1
    101.9570	        	        	        	        	       0	(  1  1 12)	  0  1
    102.7743	        	        	        	        	       0	(  2  1  8)	  0  1
    103.5302	        	        	        	        	       0	(  3  0  5)	  0  1
    105.7102	        	        	        	        	       0	(  1  0 14)	  0  1
    107.3762	        	        	        	        	       0	(  3  0  6)	  0  1
    108.7283	        	        	        	        	       0	(  2  1  9)	  0  1
    109.1639	        	        	        	        	       0	(  2  0 12)	  0  1
    112.0308	        	        	        	        	       0	(  3  0  7)	  0  1
    115.6482	        	        	        	        	       0	(  2  1 10)	  0  1
    116.1899	        	        	        	        	       0	(  1  0 15)	  0  1
    116.7612	        	        	        	        	       0	(  2  2  0)	  0  1
    117.6035	        	        	        	        	       0	(  3  0  8)	  0  1
    118.2817	        	        	        	        	       0	(  2  2  2)	  0  1
    118.3815	        	        	        	        	       0	(  2  0 13)	  0  1
    120.1712	        	        	        	        	       0	(  0  0 16)	  0  1
    120.8669	        	        	        	        	       0	(  1  1 14)	  0  1
    122.9853	        	        	        	        	       0	(  2  2  4)	  0  1
    123.8084	        	        	        	        	       0	(  2  1 11)	  0  1
    124.2907	        	        	        	        	       0	(  3  0  9)	  0  1
    124.8517	        	        	        	        	       0	(  3  1  0)	  0  1
    125.2637	        	        	        	        	       0	(  3  1  1)	  0  1
    126.5126	        	        	        	        	       0	(  3  1  2)	  0  1
    128.5935	        	        	        	        	       0	(  1  0 16)	  0  1
    128.6407	        	        	        	        	       0	(  3  1  3)	  0  1
    129.3647	        	        	        	        	       0	(  2  0 14)	  0  1
    131.4649	        	        	        	        	       0	(  2  2  6)	  0  1
    131.7322	        	        	        	        	       0	(  3  1  4)	  0  1
    132.4736	        	        	        	        	       0	(  3  0 10)	  0  1
    133.7751	        	        	        	        	       0	(  2  1 12)	  0  1
    135.9436	        	        	        	        	       0	(  3  1  5)	  0  1
    141.5790	        	        	        	        	       0	(  3  1  6)	  0  1
    143.0317	        	        	        	        	       0	(  3  0 11)	  0  1
    143.6185	        	        	        	        	       0	(  2  0 15)	  0  1
    144.9039	        	        	        	        	       0	(  1  0 17)	  0  1
    145.8052	        	        	        	        	       0	(  2  2  8)	  0  1
    147.0503	        	        	        	        	       0	(  2  1 13)	  0  1
    149.3293	        	        	        	        	       0	(  3  1  7)	  0  1
    150.0497	        	        	        	        	       0	(  1  1 16)	  0  1
    154.5798	        	        	        	        	       0	(  0  0 18)	  0  1
    159.1771	        	        	        	        	       0	(  3  0 12)	  0  1
    159.3177	        	        	        	        	       0	(  4  0  0)	  0  1
    160.2992	        	        	        	        	       0	(  4  0  1)	  0  1
    161.5676	        	        	        	        	       0	(  3  1  8)	  0  1
    163.5804	        	        	        	        	       0	(  4  0  2)	  0  1
    171.2071	        	        	        	        	       0	(  2  0 16)	  0  1
    171.4548	        	        	        	        	       0	(  4  0  3)	  0  1
    177.3477	        	        	        	        	       0	(  2  1 14)	  0  1
