MSG Master    CELL:    5.91527   5.91527  23.25837   90.0000   90.0000  120.0000   SPGR: P 63/m m c             TEMP:   1007.85
  1   1280     2.52000     0.00000    -0.13418     0.00000     0.00000    0
    99     0     2
       0.00000      10.00000
     125.00000     130.00000
 2Theta	Yobs	Ycal	Yobs-Ycal	Backg	Posr	(hkl)	K
      0.7700	    0.00	  504.83	-1738.00	  389.41
      0.8700	    0.00	  505.98	-1738.00	  390.55
      0.9700	   43.00	  507.12	-1738.00	  391.69
      1.0700	   37.00	  508.24	-1738.00	  392.81
      1.1700	   59.00	  509.34	-1738.00	  393.91
      1.2700	   53.00	  510.43	-1738.00	  395.01
      1.3700	   43.00	  511.51	-1738.00	  396.09
      1.4700	  104.00	  512.58	-1738.00	  397.15
      1.5700	  317.00	  513.63	-1738.00	  398.20
      1.6700	  444.00	  514.67	-1738.00	  399.24
      1.7700	  551.00	  515.69	-1738.00	  400.26
      1.8700	  681.00	  516.70	-1738.00	  401.28
      1.9700	  710.00	  517.70	-1738.00	  402.28
      2.0700	  762.00	  518.69	-1738.00	  403.26
      2.1700	  763.00	  519.66	-1738.00	  404.23
      2.2700	  777.00	  520.62	-1738.00	  405.19
      2.3700	  735.00	  521.57	-1738.00	  406.14
      2.4700	  759.00	  522.50	-1738.00	  407.07
      2.5700	  704.00	  523.42	-1738.00	  408.00
      2.6700	  690.00	  524.33	-1738.00	  408.90
      2.7700	  630.00	  525.23	-1738.00	  409.80
      2.8700	  688.00	  526.11	-1738.00	  410.68
      2.9700	  622.00	  526.98	-1738.00	  411.56
      3.0700	  614.00	  527.84	-1738.00	  412.42
      3.1700	  630.00	  528.69	-1738.00	  413.26
      3.2700	  617.00	  529.53	-1738.00	  414.10
      3.3700	  727.00	  530.35	-1738.00	  414.92
      3.4700	  808.00	  531.16	-1738.00	  415.73
      3.5700	  822.00	  531.96	-1738.00	  416.53
      3.6700	  927.00	  532.75	-1738.00	  417.32
      3.7700	 1028.00	  533.53	-1738.00	  418.10
      3.8700	 1076.00	  534.29	-1738.00	  418.86
      3.9700	 1052.00	  535.04	-1738.00	  419.62
      4.0700	 1143.00	  535.78	-1738.00	  420.36
      4.1700	 1143.00	  536.52	-1738.00	  421.09
      4.2700	 1193.00	  537.23	-1738.00	  421.81
      4.3700	 1146.00	  537.94	-1738.00	  422.52
      4.4700	 1086.00	  538.64	-1738.00	  423.21
      4.5700	 1048.00	  539.33	-1738.00	  423.90
      4.6700	 1100.00	  540.00	-1738.00	  424.57
      4.7700	 1035.00	  540.66	-1738.00	  425.24
      4.8700	  996.00	  541.32	-1738.00	  425.89
      4.9700	 1006.00	  541.96	-1738.00	  426.53
      5.0700	  988.00	  542.59	-1738.00	  427.17
      5.1700	 1010.00	  543.21	-1738.00	  427.79
      5.2700	  953.00	  543.82	-1738.00	  428.40
      5.3700	  949.00	  544.43	-1738.00	  429.00
      5.4700	  820.00	  545.02	-1738.00	  429.59
      5.5700	  903.00	  545.60	-1738.00	  430.17
      5.6700	  860.00	  546.16	-1738.00	  430.74
      5.7700	  870.00	  546.72	-1738.00	  431.30
      5.8700	  852.00	  547.27	-1738.00	  431.85
      5.9700	  837.00	  547.81	-1738.00	  432.39
      6.0700	  810.00	  548.34	-1738.00	  432.92
      6.1700	  823.00	  548.86	-1738.00	  433.44
      6.2700	  793.00	  549.37	-1738.00	  433.95
      6.3700	  796.00	  549.87	-1738.00	  434.45
      6.4700	  745.00	  550.36	-1738.00	  434.94
      6.5700	  747.00	  550.84	-1738.00	  435.42
      6.6700	  685.00	  551.32	-1738.00	  435.89
      6.7700	  743.00	  551.78	-1738.00	  436.35
      6.8700	  733.00	  552.23	-1738.00	  436.80
      6.9700	  746.00	  552.68	-1738.00	  437.25
      7.0700	  700.00	  553.11	-1738.00	  437.68
      7.1700	  708.00	  553.54	-1738.00	  438.11
      7.2700	  666.00	  553.95	-1738.00	  438.52
      7.3700	  650.00	  554.36	-1738.00	  438.93
      7.4700	  740.00	  554.76	-1738.00	  439.33
      7.5700	  669.00	  555.15	-1738.00	  439.72
      7.6700	  663.00	  555.53	-1738.00	  440.10
      7.7700	  624.00	  555.90	-1738.00	  440.47
      7.8700	  609.00	  556.26	-1738.00	  440.84
      7.9700	  649.00	  556.62	-1738.00	  441.19
      8.0700	  646.00	  556.97	-1738.00	  441.54
      8.1700	  704.00	  557.30	-1738.00	  441.88
      8.2700	  632.00	  557.63	-1738.00	  442.21
      8.3700	  665.00	  557.95	-1738.00	  442.53
      8.4700	  634.00	  558.27	-1738.00	  442.84
      8.5700	  639.00	  558.57	-1738.00	  443.14
      8.6700	  624.00	  558.87	-1738.00	  443.44
      8.7700	  606.00	  559.16	-1738.00	  443.73
      8.8700	  579.00	  559.44	-1738.00	  444.01
      8.9700	  610.00	  559.71	-1738.00	  444.28
      9.0700	  559.00	  559.98	-1738.00	  444.55
      9.1700	  606.00	  560.23	-1738.00	  444.81
      9.2700	  603.00	  560.48	-1738.00	  445.06
      9.3700	  557.00	  560.73	-1738.00	  445.30
      9.4700	  613.00	  560.96	-1738.00	  445.53
      9.5700	  612.00	  561.19	-1738.00	  445.76
      9.6700	  621.00	  561.41	-1738.00	  445.98
      9.7700	  552.00	  561.62	-1738.00	  446.19
      9.8700	  646.00	  561.82	-1738.00	  446.40
      9.9700	  589.00	  562.02	-1738.00	  446.59
     10.0700	  616.00	  563.57	-1685.57	  446.78
     10.1700	  587.00	  563.90	-1714.90	  446.97
     10.2700	  561.00	  564.26	-1741.26	  447.14
     10.3700	  572.00	  564.68	-1730.68	  447.31
     10.4700	  583.00	  565.17	-1720.17	  447.47
     10.5700	  593.00	  565.82	-1710.82	  447.63
     10.6700	  557.00	  566.70	-1747.70	  447.78
     10.7700	  543.00	  567.93	-1762.93	  447.92
     10.8700	  606.00	  569.57	-1701.57	  448.05
     10.9700	  574.00	  571.63	-1735.63	  448.18
     11.0700	  596.00	  574.09	-1716.09	  448.30
     11.1700	  602.00	  576.96	-1712.96	  448.42
     11.2700	  572.00	  580.29	-1746.29	  448.53
     11.3700	  587.00	  584.16	-1735.16	  448.63
     11.4700	  592.00	  588.72	-1734.72	  448.72
     11.5700	  580.00	  594.22	-1752.22	  448.81
     11.6700	  607.00	  601.02	-1732.02	  448.90
     11.7700	  669.00	  609.69	-1678.69	  448.97
     11.8700	  640.00	  620.77	-1718.77	  449.05
     11.9700	  662.00	  634.08	-1710.08	  449.11
     12.0700	  664.00	  647.49	-1721.49	  449.17
     12.1700	  673.00	  655.82	-1720.82	  449.22
     12.2700	  680.00	  651.83	-1709.83	  449.27
     12.3700	  595.00	  633.77	-1776.77	  449.31
     12.4700	  598.00	  611.25	-1751.25	  449.34
     12.5700	  579.00	  593.22	-1752.22	  449.37
     12.6700	  597.00	  581.80	-1722.80	  449.40
     12.7700	  616.00	  575.53	-1697.53	  449.42
     12.8700	  577.00	  572.27	-1733.27	  449.43
     12.9700	  562.00	  570.47	-1746.47	  449.44
     13.0700	  601.00	  569.35	-1706.35	  449.44
     13.1700	  553.00	  568.57	-1753.57	  449.43
     13.2700	  571.00	  567.98	-1734.98	  449.43
     13.3700	  533.00	  567.51	-1772.51	  449.41
     13.4700	  543.00	  567.14	-1762.14	  449.39
     13.5700	  589.00	  566.83	-1715.83	  449.37
     13.6700	  546.00	  566.58	-1758.58	  449.34
     13.7700	  572.00	  566.35	-1732.35	  449.30
     13.8700	  570.00	  566.15	-1734.15	  449.26
     13.9700	  570.00	  565.98	-1733.98	  449.22
     14.0700	  510.00	  565.81	-1793.81	  449.17
     14.1700	  622.00	  565.66	-1681.66	  449.11
     14.2700	  549.00	  565.52	-1754.52	  449.05
     14.3700	  612.00	  565.38	-1691.38	  448.99
     14.4700	  559.00	  565.25	-1744.25	  448.92
     14.5700	  599.00	  565.12	-1704.12	  448.85
     14.6700	  531.00	  564.99	-1771.99	  448.77
     14.7700	  507.00	  564.86	-1795.86	  448.68
     14.8700	  533.00	  564.77	-1769.77	  448.60
     14.9700	  510.00	  564.64	-1792.64	  448.50
     15.0700	  546.00	  564.51	-1756.51	  448.41
     15.1700	  544.00	  564.38	-1758.38	  448.31
     15.2700	  558.00	  564.25	-1744.25	  448.20
     15.3700	  556.00	  564.12	-1746.12	  448.09
     15.4700	  529.00	  563.99	-1772.99	  447.98
     15.5700	  511.00	  563.85	-1790.85	  447.86
     15.6700	  540.00	  563.71	-1761.71	  447.74
     15.7700	  536.00	  563.57	-1765.57	  447.61
     15.8700	  588.00	  563.43	-1713.43	  447.48
     15.9700	  534.00	  563.28	-1767.28	  447.35
     16.0700	  540.00	  563.13	-1761.13	  447.21
     16.1700	  551.00	  562.98	-1749.98	  447.07
     16.2700	  558.00	  562.82	-1742.82	  446.92
     16.3700	  555.00	  562.66	-1745.66	  446.77
     16.4700	  512.00	  562.50	-1788.50	  446.62
     16.5700	  517.00	  562.33	-1783.33	  446.46
     16.6700	  541.00	  562.17	-1759.17	  446.30
     16.7700	  554.00	  562.00	-1746.00	  446.14
     16.8700	  571.00	  561.82	-1728.82	  445.97
     16.9700	  577.00	  561.64	-1722.64	  445.80
     17.0700	  528.00	  561.46	-1771.46	  445.63
     17.1700	  572.00	  561.28	-1727.28	  445.45
     17.2700	  506.00	  561.10	-1793.10	  445.27
     17.3700	  572.00	  560.91	-1726.91	  445.08
     17.4700	  540.00	  560.72	-1758.72	  444.89
     17.5700	  544.00	  560.52	-1754.52	  444.70
     17.6700	  571.00	  560.32	-1727.32	  444.51
     17.7700	  544.00	  560.12	-1754.12	  444.31
     17.8700	  558.00	  559.92	-1739.92	  444.11
     17.9700	  561.00	  559.81	-1736.81	  443.90
     18.0700	  583.00	  559.61	-1714.61	  443.70
     18.1700	  546.00	  559.40	-1751.40	  443.49
     18.2700	  585.00	  559.19	-1712.19	  443.27
     18.3700	  552.00	  558.97	-1744.97	  443.06
     18.4700	  554.00	  558.76	-1742.76	  442.84
     18.5700	  570.00	  558.63	-1726.63	  442.62
     18.6700	  580.00	  558.41	-1716.41	  442.39
     18.7700	  581.00	  558.19	-1715.19	  442.17
     18.8700	  598.00	  557.96	-1697.96	  441.94
     18.9700	  531.00	  557.73	-1764.73	  441.70
     19.0700	  552.00	  557.51	-1743.51	  441.47
     19.1700	  574.00	  557.27	-1721.27	  441.23
     19.2700	  553.00	  557.04	-1742.04	  440.99
     19.3700	  565.00	  556.80	-1729.80	  440.75
     19.4700	  538.00	  556.57	-1756.57	  440.50
     19.5700	  556.00	  556.33	-1738.33	  440.25
     19.6700	  556.00	  556.09	-1738.09	  440.00
     19.7700	  544.00	  555.84	-1749.84	  439.75
     19.8700	  530.00	  555.60	-1763.60	  439.50
     19.9700	  532.00	  555.35	-1761.35	  439.24
     20.0700	  545.00	  555.10	-1748.10	  438.98
     20.1700	  541.00	  554.85	-1751.85	  438.72
     20.2700	  532.00	  554.60	-1760.60	  438.46
     20.3700	  501.00	  554.39	-1791.39	  438.19
     20.4700	  580.00	  554.13	-1712.13	  437.92
     20.5700	  535.00	  553.88	-1756.88	  437.65
     20.6700	  492.00	  553.62	-1799.62	  437.38
     20.7700	  544.00	  553.37	-1747.37	  437.11
     20.8700	  552.00	  553.11	-1739.11	  436.83
     20.9700	  534.00	  552.85	-1756.85	  436.55
     21.0700	  521.00	  552.60	-1769.60	  436.27
     21.1700	  540.00	  552.34	-1750.34	  435.99
     21.2700	  601.00	  552.08	-1689.08	  435.71
     21.3700	  572.00	  551.82	-1717.82	  435.42
     21.4700	  560.00	  551.56	-1729.56	  435.14
     21.5700	  533.00	  551.30	-1756.30	  434.85
     21.6700	  552.00	  551.05	-1737.05	  434.56
     21.7700	  530.00	  550.79	-1758.79	  434.27
     21.8700	  584.00	  550.49	-1704.49	  433.98
     21.9700	  602.00	  550.24	-1686.24	  433.68
     22.0700	  541.00	  549.99	-1746.99	  433.38
     22.1700	  551.00	  549.74	-1736.74	  433.09
     22.2700	  572.00	  549.50	-1715.50	  432.79
     22.3700	  588.00	  549.26	-1699.26	  432.49
     22.4700	  592.00	  549.03	-1695.03	  432.18
     22.5700	  540.00	  548.80	-1746.80	  431.88
     22.6700	  548.00	  548.58	-1738.58	  431.58
     22.7700	  570.00	  548.37	-1716.37	  431.27
     22.8700	  514.00	  548.17	-1772.17	  430.96
     22.9700	  576.00	  548.13	-1710.13	  430.66
     23.0700	  555.00	  547.97	-1730.97	  430.35
     23.1700	  561.00	  547.83	-1724.83	  430.04
     23.2700	  526.00	  547.72	-1759.72	  429.72
     23.3700	  569.00	  547.64	-1716.64	  429.41
     23.4700	  567.00	  547.62	-1718.62	  429.10
     23.5700	  538.00	  547.67	-1747.67	  428.78
     23.6700	  600.00	  547.82	-1685.82	  428.47
     23.7700	  580.00	  548.14	-1706.14	  428.15
     23.8700	  539.00	  548.74	-1747.74	  427.83
     23.9700	  554.00	  549.86	-1733.86	  427.51
     24.0700	  558.00	  551.89	-1731.89	  427.19
     24.1700	  553.00	  555.42	-1740.42	  426.87
     24.2700	  566.00	  561.17	-1733.17	  426.55
     24.3700	  614.00	  569.89	-1693.89	  426.23
     24.4700	  605.00	  582.04	-1715.04	  425.91
     24.5700	  628.00	  597.14	-1707.14	  425.58
     24.6700	  613.00	  612.67	-1737.67	  425.26
     24.7700	  646.00	  623.16	-1715.16	  424.93
     24.8700	  655.00	  621.46	-1704.46	  424.61
     24.9700	  655.00	  606.13	-1689.13	  424.28
     25.0700	  566.00	  585.86	-1757.86	  423.96
     25.1700	  578.00	  568.86	-1728.86	  423.63
     25.2700	  576.00	  557.55	-1719.55	  423.30
     25.3700	  543.00	  551.04	-1746.04	  422.97
     25.4700	  545.00	  547.54	-1740.54	  422.64
     25.5700	  611.00	  545.59	-1672.59	  422.32
     25.6700	  571.00	  544.38	-1711.38	  421.99
     25.7700	  563.00	  543.54	-1718.54	  421.66
     25.8700	  567.00	  542.91	-1713.91	  421.33
     25.9700	  526.00	  542.43	-1754.43	  420.99
     26.0700	  495.00	  542.08	-1785.08	  420.66
     26.1700	  579.00	  541.82	-1700.82	  420.33
     26.2700	  559.00	  541.66	-1720.66	  420.00
     26.3700	  546.00	  541.59	-1733.59	  419.67
     26.4700	  548.00	  541.61	-1731.61	  419.34
     26.5700	  553.00	  541.74	-1726.74	  419.00
     26.6700	  507.00	  541.98	-1772.98	  418.67
     26.7700	  539.00	  542.37	-1741.37	  418.34
     26.8700	  603.00	  542.93	-1677.93	  418.01
     26.9700	  564.00	  543.71	-1717.71	  417.67
     27.0700	  515.00	  544.80	-1767.80	  417.34
     27.1700	  580.00	  546.30	-1704.30	  417.01
     27.2700	  538.00	  548.45	-1748.45	  416.68
     27.3700	  559.00	  551.72	-1730.72	  416.34
     27.4700	  551.00	  556.99	-1743.99	  416.01
     27.5700	  584.00	  565.89	-1719.89	  415.68
     27.6700	  578.00	  580.97	-1740.97	  415.35
     27.7700	  591.00	  605.64	-1752.64	  415.01
     27.8700	  629.00	  642.99	-1751.99	  414.68
     27.9700	  680.00	  693.55	-1751.55	  414.35
     28.0700	  747.00	  752.25	-1743.25	  414.02
     28.1700	  839.00	  805.66	-1704.66	  413.68
     28.2700	  936.00	  832.55	-1634.55	  413.35
     28.3700	  904.00	  817.96	-1651.96	  413.02
     28.4700	  799.00	  778.93	-1717.93	  412.69
     28.5700	  741.00	  749.94	-1746.94	  412.36
     28.6700	  711.00	  748.64	-1775.64	  412.03
     28.7700	  753.00	  771.89	-1756.89	  411.70
     28.8700	  815.00	  801.40	-1724.40	  411.37
     28.9700	  802.00	  810.05	-1746.05	  411.04
     29.0700	  819.00	  777.98	-1696.98	  410.71
     29.1700	  680.00	  716.62	-1774.62	  410.38
     29.2700	  687.00	  654.57	-1705.57	  410.05
     29.3700	  642.00	  607.59	-1703.59	  409.73
     29.4700	  587.00	  577.74	-1728.74	  409.40
     29.5700	  608.00	  560.82	-1690.82	  409.07
     29.6700	  581.00	  551.64	-1708.64	  408.75
     29.7700	  576.00	  546.45	-1708.45	  408.42
     29.8700	  568.00	  543.26	-1713.26	  408.09
     29.9700	  603.00	  541.24	-1676.24	  407.77
     30.0700	  578.00	  540.17	-1700.17	  407.45
     30.1700	  573.00	  540.06	-1705.06	  407.12
     30.2700	  533.00	  541.39	-1746.39	  406.80
     30.3700	  562.00	  544.99	-1720.99	  406.48
     30.4700	  537.00	  552.10	-1753.10	  406.16
     30.5700	  607.00	  564.00	-1695.00	  405.83
     30.6700	  597.00	  580.94	-1721.94	  405.51
     30.7700	  576.00	  600.95	-1762.95	  405.19
     30.8700	  598.00	  618.87	-1758.87	  404.88
     30.9700	  613.00	  626.61	-1751.61	  404.56
     31.0700	  610.00	  617.71	-1745.71	  404.24
     31.1700	  588.00	  596.13	-1746.13	  403.92
     31.2700	  507.00	  572.73	-1803.73	  403.61
     31.3700	  573.00	  554.23	-1719.23	  403.29
     31.4700	  533.00	  542.07	-1747.07	  402.98
     31.5700	  529.00	  535.00	-1744.00	  402.67
     31.6700	  525.00	  531.14	-1744.14	  402.35
     31.7700	  554.00	  528.97	-1712.97	  402.04
     31.8700	  569.00	  527.63	-1696.63	  401.73
     31.9700	  587.00	  526.74	-1677.74	  401.42
     32.0700	  504.00	  526.13	-1760.13	  401.11
     32.1700	  511.00	  525.74	-1752.74	  400.81
     32.2700	  556.00	  525.53	-1707.53	  400.50
     32.3700	  582.00	  525.50	-1681.50	  400.19
     32.4700	  563.00	  525.65	-1700.65	  399.89
     32.5700	  532.00	  526.01	-1732.01	  399.59
     32.6700	  545.00	  526.60	-1719.60	  399.28
     32.7700	  543.00	  527.49	-1722.49	  398.98
     32.8700	  526.00	  528.75	-1740.75	  398.68
     32.9700	  521.00	  530.53	-1747.53	  398.38
     33.0700	  571.00	  533.08	-1700.08	  398.08
     33.1700	  523.00	  536.92	-1751.92	  397.79
     33.2700	  542.00	  543.17	-1739.17	  397.49
     33.3700	  548.00	  554.03	-1744.03	  397.19
     33.4700	  565.00	  573.43	-1746.43	  396.90
     33.5700	  587.00	  607.17	-1758.17	  396.61
     33.6700	  621.00	  661.49	-1778.49	  396.32
     33.7700	  742.00	  738.75	-1734.75	  396.02
     33.8700	  850.00	  831.37	-1719.37	  395.74
     33.9700	  998.00	  917.52	-1657.52	  395.45
     34.0700	 1039.00	  962.61	-1661.61	  395.16
     34.1700	 1039.00	  936.91	-1635.91	  394.87
     34.2700	  890.00	  850.96	-1698.96	  394.59
     34.3700	  789.00	  748.85	-1697.85	  394.31
     34.4700	  668.00	  663.03	-1733.03	  394.03
     34.5700	  622.00	  603.67	-1719.67	  393.74
     34.6700	  550.00	  567.85	-1755.85	  393.47
     34.7700	  601.00	  547.99	-1684.99	  393.19
     34.8700	  555.00	  537.03	-1720.03	  392.91
     34.9700	  558.00	  530.56	-1710.56	  392.64
     35.0700	  506.00	  526.23	-1758.23	  392.36
     35.1700	  518.00	  523.05	-1743.05	  392.09
     35.2700	  524.00	  520.56	-1734.56	  391.82
     35.3700	  495.00	  518.55	-1761.55	  391.55
     35.4700	  558.00	  516.89	-1696.89	  391.28
     35.5700	  550.00	  515.49	-1703.49	  391.01
     35.6700	  513.00	  514.30	-1739.30	  390.75
     35.7700	  497.00	  513.27	-1754.27	  390.48
     35.8700	  511.00	  512.36	-1739.36	  390.22
     35.9700	  516.00	  512.02	-1734.02	  389.96
     36.0700	  512.00	  511.32	-1737.32	  389.70
     36.1700	  496.00	  510.69	-1752.69	  389.44
     36.2700	  516.00	  510.12	-1732.12	  389.18
     36.3700	  525.00	  509.62	-1722.62	  388.92
     36.4700	  512.00	  509.16	-1735.16	  388.67
     36.5700	  457.00	  508.76	-1789.76	  388.42
     36.6700	  539.00	  508.44	-1707.44	  388.17
     36.7700	  513.00	  508.17	-1733.17	  387.92
     36.8700	  497.00	  508.01	-1749.01	  387.67
     36.9700	  499.00	  508.03	-1747.03	  387.42
     37.0700	  511.00	  508.39	-1735.39	  387.18
     37.1700	  452.00	  509.30	-1795.30	  386.93
     37.2700	  497.00	  511.08	-1752.08	  386.69
     37.3700	  523.00	  513.93	-1728.93	  386.45
     37.4700	  515.00	  517.76	-1740.76	  386.21
     37.5700	  508.00	  521.90	-1751.90	  385.97
     37.6700	  476.00	  525.03	-1787.03	  385.74
     37.7700	  515.00	  525.58	-1748.58	  385.50
     37.8700	  555.00	  523.00	-1706.00	  385.27
     37.9700	  519.00	  518.59	-1737.59	  385.04
     38.0700	  508.00	  514.02	-1744.02	  384.81
     38.1700	  540.00	  510.17	-1708.17	  384.58
     38.2700	  502.00	  507.29	-1743.29	  384.36
     38.3700	  489.00	  505.32	-1754.32	  384.13
     38.4700	  468.00	  504.19	-1774.19	  383.91
     38.5700	  468.00	  503.33	-1773.33	  383.69
     38.6700	  486.00	  502.72	-1754.72	  383.47
     38.7700	  513.00	  502.26	-1727.26	  383.25
     38.8700	  497.00	  501.78	-1742.78	  383.03
     38.9700	  458.00	  501.45	-1781.45	  382.82
     39.0700	  506.00	  501.16	-1733.16	  382.60
     39.1700	  474.00	  500.89	-1764.89	  382.39
     39.2700	  504.00	  500.64	-1734.64	  382.18
     39.3700	  512.00	  500.40	-1726.40	  381.97
     39.4700	  447.00	  500.18	-1791.18	  381.77
     39.5700	  516.00	  499.89	-1721.89	  381.56
     39.6700	  551.00	  499.69	-1686.69	  381.36
     39.7700	  493.00	  499.51	-1744.51	  381.16
     39.8700	  496.00	  499.34	-1741.34	  380.96
     39.9700	  470.00	  499.18	-1767.18	  380.76
     40.0700	  514.00	  499.04	-1723.04	  380.57
     40.1700	  441.00	  498.90	-1795.90	  380.37
     40.2700	  498.00	  498.78	-1738.78	  380.18
     40.3700	  472.00	  498.67	-1764.67	  379.99
     40.4700	  510.00	  498.58	-1726.58	  379.80
     40.5700	  461.00	  498.51	-1775.51	  379.61
     40.6700	  503.00	  498.45	-1733.45	  379.43
     40.7700	  427.00	  498.42	-1809.42	  379.24
     40.8700	  505.00	  498.42	-1731.42	  379.06
     40.9700	  493.00	  498.93	-1743.93	  378.88
     41.0700	  476.00	  499.00	-1761.00	  378.70
     41.1700	  504.00	  499.12	-1733.12	  378.52
     41.2700	  500.00	  499.30	-1737.30	  378.35
     41.3700	  500.00	  499.56	-1737.56	  378.17
     41.4700	  483.00	  499.91	-1754.91	  378.00
     41.5700	  478.00	  500.41	-1760.41	  377.83
     41.6700	  526.00	  501.11	-1713.11	  377.67
     41.7700	  474.00	  502.17	-1766.17	  377.50
     41.8700	  479.00	  503.86	-1762.86	  377.33
     41.9700	  495.00	  506.87	-1749.87	  377.17
     42.0700	  462.00	  512.20	-1788.20	  377.01
     42.1700	  494.00	  521.39	-1765.39	  376.85
     42.2700	  520.00	  536.10	-1754.10	  376.69
     42.3700	  562.00	  557.08	-1733.08	  376.54
     42.4700	  565.00	  583.11	-1756.11	  376.38
     42.5700	  579.00	  609.61	-1768.61	  376.23
     42.6700	  542.00	  628.23	-1824.23	  376.08
     42.7700	  577.00	  630.39	-1791.39	  375.93
     42.8700	  607.00	  614.34	-1745.34	  375.79
     42.9700	  605.00	  587.80	-1720.80	  375.64
     43.0700	  549.00	  560.48	-1749.48	  375.50
     43.1700	  533.00	  537.99	-1742.99	  375.36
     43.2700	  536.00	  522.06	-1724.06	  375.22
     43.3700	  509.00	  512.18	-1741.18	  375.08
     43.4700	  518.00	  506.30	-1726.30	  374.95
     43.5700	  476.00	  502.97	-1764.97	  374.81
     43.6700	  468.00	  501.02	-1771.02	  374.68
     43.7700	  512.00	  499.76	-1725.76	  374.55
     43.8700	  500.00	  498.88	-1736.88	  374.42
     43.9700	  504.00	  498.21	-1732.21	  374.29
     44.0700	  484.00	  497.69	-1751.69	  374.17
     44.1700	  492.00	  497.27	-1743.27	  374.05
     44.2700	  534.00	  496.94	-1700.94	  373.92
     44.3700	  459.00	  496.67	-1775.67	  373.80
     44.4700	  500.00	  496.45	-1734.45	  373.69
     44.5700	  518.00	  496.29	-1716.29	  373.57
     44.6700	  507.00	  496.16	-1727.16	  373.46
     44.7700	  481.00	  496.25	-1753.25	  373.34
     44.8700	  505.00	  496.19	-1729.19	  373.23
     44.9700	  483.00	  496.16	-1751.16	  373.12
     45.0700	  489.00	  496.15	-1745.15	  373.02
     45.1700	  507.00	  496.18	-1727.18	  372.91
     45.2700	  517.00	  496.22	-1717.22	  372.81
     45.3700	  560.00	  496.15	-1674.15	  372.71
     45.4700	  465.00	  496.25	-1769.25	  372.61
     45.5700	  495.00	  496.38	-1739.38	  372.51
     45.6700	  531.00	  496.58	-1703.58	  372.41
     45.7700	  493.00	  496.76	-1741.76	  372.32
     45.8700	  491.00	  496.98	-1743.98	  372.23
     45.9700	  498.00	  497.23	-1737.23	  372.14
     46.0700	  483.00	  497.52	-1752.52	  372.05
     46.1700	  496.00	  497.86	-1739.86	  371.96
     46.2700	  494.00	  498.25	-1742.25	  371.87
     46.3700	  511.00	  498.70	-1725.70	  371.79
     46.4700	  510.00	  499.27	-1727.27	  371.71
     46.5700	  517.00	  499.91	-1720.91	  371.63
     46.6700	  521.00	  500.61	-1717.61	  371.55
     46.7700	  520.00	  501.46	-1719.46	  371.47
     46.8700	  526.00	  502.53	-1714.53	  371.40
     46.9700	  471.00	  503.96	-1770.96	  371.33
     47.0700	  459.00	  506.02	-1785.02	  371.25
     47.1700	  518.00	  509.21	-1729.21	  371.18
     47.2700	  532.00	  514.27	-1720.27	  371.12
     47.3700	  500.00	  522.13	-1760.13	  371.05
     47.4700	  554.00	  533.59	-1717.59	  370.99
     47.5700	  574.00	  548.75	-1712.75	  370.92
     47.6700	  546.00	  566.46	-1758.46	  370.86
     47.7700	  587.00	  583.67	-1734.67	  370.80
     47.8700	  586.00	  595.64	-1747.64	  370.75
     47.9700	  579.00	  597.82	-1756.82	  370.69
     48.0700	  564.00	  589.71	-1763.71	  370.64
     48.1700	  588.00	  575.65	-1725.65	  370.58
     48.2700	  552.00	  560.86	-1746.86	  370.53
     48.3700	  582.00	  548.72	-1704.72	  370.49
     48.4700	  538.00	  540.64	-1740.64	  370.44
     48.5700	  533.00	  536.67	-1741.67	  370.39
     48.6700	  481.00	  536.17	-1793.17	  370.35
     48.7700	  537.00	  538.36	-1739.36	  370.31
     48.8700	  560.00	  543.08	-1721.08	  370.27
     48.9700	  527.00	  549.46	-1760.46	  370.23
     49.0700	  545.00	  558.29	-1751.29	  370.19
     49.1700	  561.00	  570.81	-1747.81	  370.16
     49.2700	  593.00	  589.80	-1734.80	  370.12
     49.3700	  619.00	  620.64	-1739.64	  370.09
     49.4700	  648.00	  672.68	-1762.68	  370.06
     49.5700	  720.00	  759.89	-1777.89	  370.03
     49.6700	  812.00	  899.17	-1825.17	  370.01
     49.7700	 1008.00	 1105.07	-1835.07	  369.98
     49.8700	 1329.00	 1380.61	-1789.61	  369.96
     49.9700	 1636.00	 1706.35	-1808.35	  369.93
     50.0700	 2130.00	 2030.75	-1638.75	  369.91
     50.1700	 2357.00	 2269.01	-1650.01	  369.90
     50.2700	 2360.00	 2331.05	-1709.05	  369.88
     50.3700	 2185.00	 2186.85	-1739.85	  369.86
     50.4700	 1932.00	 1899.24	-1705.24	  369.85
     50.5700	 1495.00	 1566.67	-1809.67	  369.84
     50.6700	 1143.00	 1262.68	-1857.68	  369.83
     50.7700	  902.00	 1023.72	-1859.72	  369.82
     50.8700	  783.00	  857.43	-1812.43	  369.81
     50.9700	  680.00	  753.07	-1811.07	  369.80
     51.0700	  682.00	  691.95	-1747.95	  369.80
     51.1700	  628.00	  655.45	-1765.45	  369.80
     51.2700	  586.00	  630.01	-1782.01	  369.80
     51.3700	  600.00	  608.94	-1746.94	  369.80
     51.4700	  576.00	  590.81	-1752.81	  369.80
     51.5700	  546.00	  575.26	-1767.26	  369.80
     51.6700	  602.00	  562.86	-1698.86	  369.81
     51.7700	  549.00	  553.61	-1742.61	  369.81
     51.8700	  521.00	  547.17	-1764.18	  369.82
     51.9700	  553.00	  543.03	-1728.03	  369.83
     52.0700	  556.00	  540.66	-1722.66	  369.84
     52.1700	  543.00	  539.70	-1734.70	  369.85
     52.2700	  532.00	  539.99	-1745.99	  369.87
     52.3700	  581.00	  541.62	-1698.62	  369.88
     52.4700	  574.00	  545.08	-1709.08	  369.90
     52.5700	  584.00	  551.46	-1705.46	  369.92
     52.6700	  564.00	  562.84	-1736.84	  369.94
     52.7700	  649.00	  582.68	-1671.68	  369.96
     52.8700	  612.00	  615.85	-1741.85	  369.98
     52.9700	  665.00	  667.94	-1740.94	  370.01
     53.0700	  764.00	  743.42	-1717.42	  370.03
     53.1700	  895.00	  842.82	-1685.82	  370.06
     53.2700	 1016.00	  959.53	-1681.53	  370.09
     53.3700	 1097.00	 1076.98	-1717.98	  370.12
     53.4700	 1206.00	 1168.15	-1700.15	  370.15
     53.5700	 1181.00	 1202.58	-1759.58	  370.18
     53.6700	 1121.00	 1165.72	-1782.72	  370.22
     53.7700	 1018.00	 1072.53	-1792.53	  370.25
     53.8700	  878.00	  954.39	-1814.39	  370.29
     53.9700	  848.00	  838.38	-1728.38	  370.33
     54.0700	  758.00	  740.50	-1720.50	  370.37
     54.1700	  675.00	  666.86	-1729.86	  370.41
     54.2700	  609.00	  616.56	-1745.56	  370.45
     54.3700	  582.00	  584.99	-1740.99	  370.50
     54.4700	  616.00	  566.44	-1688.44	  370.54
     54.5700	  560.00	  556.09	-1734.09	  370.59
     54.6700	  573.00	  550.56	-1715.56	  370.64
     54.7700	  554.00	  547.83	-1731.83	  370.69
     54.8700	  590.00	  546.82	-1694.82	  370.74
     54.9700	  565.00	  547.02	-1720.02	  370.79
     55.0700	  589.00	  548.22	-1697.22	  370.84
     55.1700	  552.00	  550.37	-1736.36	  370.90
     55.2700	  616.00	  553.49	-1675.49	  370.95
     55.3700	  548.00	  557.71	-1747.71	  371.01
     55.4700	  510.00	  563.19	-1791.19	  371.07
     55.5700	  587.00	  570.44	-1721.44	  371.12
     55.6700	  635.00	  580.21	-1683.21	  371.19
     55.7700	  608.00	  594.05	-1724.05	  371.25
     55.8700	  613.00	  614.98	-1739.98	  371.31
     55.9700	  603.00	  648.39	-1783.39	  371.37
     56.0700	  733.00	  702.98	-1707.98	  371.44
     56.1700	  680.00	  791.13	-1849.13	  371.51
     56.2700	  896.00	  927.61	-1769.61	  371.57
     56.3700	 1078.00	 1125.81	-1785.81	  371.64
     56.4700	 1316.00	 1391.47	-1813.47	  371.71
     56.5700	 1673.00	 1715.27	-1780.27	  371.78
     56.6700	 2022.00	 2065.80	-1781.80	  371.86
     56.7700	 2321.00	 2385.06	-1802.06	  371.93
     56.8700	 2560.00	 2593.37	-1771.37	  372.00
     56.9700	 2554.00	 2620.16	-1804.16	  372.08
     57.0700	 2375.00	 2454.75	-1817.75	  372.16
     57.1700	 2190.00	 2156.73	-1704.73	  372.23
     57.2700	 1851.00	 1809.08	-1696.08	  372.31
     57.3700	 1449.00	 1476.93	-1765.93	  372.39
     57.4700	 1161.00	 1198.17	-1775.17	  372.47
     57.5700	  985.00	  987.14	-1740.14	  372.56
     57.6700	  911.00	  841.37	-1668.37	  372.64
     57.7700	  761.00	  749.29	-1726.29	  372.72
     57.8700	  673.00	  697.00	-1762.00	  372.81
     57.9700	  665.00	  672.86	-1745.86	  372.89
     58.0700	  704.00	  669.34	-1703.34	  372.98
     58.1700	  704.00	  682.78	-1716.78	  373.07
     58.2700	  733.00	  712.09	-1717.09	  373.16
     58.3700	  807.00	  757.10	-1688.10	  373.25
     58.4700	  889.00	  816.96	-1665.96	  373.34
     58.5700	  937.00	  888.62	-1689.62	  373.43
     58.6700	 1045.00	  965.84	-1658.84	  373.52
     58.7700	 1098.00	 1040.15	-1680.15	  373.62
     58.8700	 1244.00	 1104.47	-1598.47	  373.71
     58.9700	 1309.00	 1155.05	-1584.05	  373.81
     59.0700	 1360.00	 1188.21	-1566.21	  373.90
     59.1700	 1349.00	 1199.24	-1588.24	  374.00
     59.2700	 1367.00	 1188.30	-1559.30	  374.10
     59.3700	 1358.00	 1164.33	-1544.33	  374.20
     59.4700	 1245.00	 1139.47	-1632.47	  374.30
     59.5700	 1202.00	 1122.82	-1658.82	  374.40
     59.6700	 1103.00	 1120.87	-1755.87	  374.50
     59.7700	 1179.00	 1140.64	-1699.64	  374.60
     59.8700	 1196.00	 1188.16	-1730.16	  374.71
     59.9700	 1322.00	 1262.75	-1678.75	  374.81
     60.0700	 1378.00	 1353.09	-1713.09	  374.92
     60.1700	 1528.00	 1436.63	-1646.63	  375.02
     60.2700	 1566.00	 1483.11	-1655.11	  375.13
     60.3700	 1514.00	 1467.31	-1691.31	  375.24
     60.4700	 1387.00	 1385.93	-1736.93	  375.35
     60.5700	 1343.00	 1259.38	-1654.38	  375.45
     60.6700	 1136.00	 1115.89	-1717.89	  375.56
     60.7700	 1055.00	  978.55	-1661.55	  375.67
     60.8700	  811.00	  861.72	-1788.72	  375.78
     60.9700	  700.00	  772.08	-1810.08	  375.90
     61.0700	  677.00	  710.63	-1771.63	  376.01
     61.1700	  652.00	  675.21	-1761.21	  376.12
     61.2700	  650.00	  663.18	-1751.18	  376.24
     61.3700	  662.00	  673.18	-1749.18	  376.35
     61.4700	  717.00	  705.91	-1726.91	  376.46
     61.5700	  732.00	  763.45	-1769.45	  376.58
     61.6700	  832.00	  847.51	-1753.51	  376.70
     61.7700	  962.00	  957.10	-1733.10	  376.81
     61.8700	 1039.00	 1086.14	-1785.14	  376.93
     61.9700	 1137.00	 1221.48	-1822.48	  377.05
     62.0700	 1350.00	 1342.05	-1730.05	  377.17
     62.1700	 1371.00	 1420.80	-1787.80	  377.29
     62.2700	 1329.00	 1434.31	-1843.31	  377.41
     62.3700	 1290.00	 1377.47	-1825.47	  377.53
     62.4700	 1223.00	 1267.67	-1782.67	  377.65
     62.5700	 1040.00	 1132.20	-1830.20	  377.77
     62.6700	  942.00	  995.13	-1791.13	  377.89
     62.7700	  827.00	  872.54	-1783.54	  378.01
     62.8700	  717.00	  772.80	-1793.80	  378.14
     62.9700	  688.00	  697.95	-1747.95	  378.26
     63.0700	  626.00	  645.67	-1757.67	  378.38
     63.1700	  590.00	  611.46	-1759.46	  378.51
     63.2700	  593.00	  590.41	-1735.41	  378.63
     63.3700	  591.00	  578.44	-1725.44	  378.76
     63.4700	  541.00	  572.77	-1769.77	  378.88
     63.5700	  548.00	  572.01	-1762.01	  379.01
     63.6700	  580.00	  576.03	-1734.03	  379.14
     63.7700	  621.00	  585.69	-1702.69	  379.26
     63.8700	  631.00	  602.49	-1709.49	  379.39
     63.9700	  645.00	  628.25	-1721.25	  379.52
     64.0700	  675.00	  664.42	-1727.42	  379.64
     64.1700	  782.00	  711.33	-1667.33	  379.77
     64.2700	  802.00	  767.52	-1703.52	  379.90
     64.3700	  863.00	  828.97	-1703.97	  380.03
     64.4700	  939.00	  888.68	-1687.68	  380.16
     64.5700	  960.00	  937.19	-1715.19	  380.29
     64.6700	 1037.00	  965.00	-1666.00	  380.42
     64.7700	 1102.00	  966.56	-1602.56	  380.55
     64.8700	  975.00	  943.97	-1706.97	  380.68
     64.9700	  979.00	  902.95	-1661.95	  380.81
     65.0700	  862.00	  852.05	-1728.05	  380.94
     65.1700	  844.00	  799.46	-1693.46	  381.07
     65.2700	  746.00	  750.86	-1742.86	  381.20
     65.3700	  722.00	  708.87	-1724.87	  381.33
     65.4700	  654.00	  673.78	-1757.78	  381.47
     65.5700	  652.00	  644.90	-1730.90	  381.60
     65.6700	  586.00	  621.55	-1773.55	  381.73
     65.7700	  578.00	  603.28	-1763.28	  381.86
     65.8700	  534.00	  589.27	-1793.27	  381.99
     65.9700	  531.00	  579.03	-1786.03	  382.13
     66.0700	  609.00	  572.02	-1701.02	  382.26
     66.1700	  581.00	  567.77	-1724.77	  382.39
     66.2700	  542.00	  565.87	-1761.87	  382.52
     66.3700	  538.00	  565.98	-1765.98	  382.66
     66.4700	  570.00	  567.88	-1735.88	  382.79
     66.5700	  553.00	  571.57	-1756.57	  382.92
     66.6700	  545.00	  577.32	-1770.32	  383.06
     66.7700	  600.00	  585.89	-1723.89	  383.19
     66.8700	  588.00	  598.77	-1748.77	  383.32
     66.9700	  603.00	  618.63	-1753.63	  383.46
     67.0700	  660.00	  649.27	-1727.27	  383.59
     67.1700	  685.00	  696.47	-1749.47	  383.72
     67.2700	  707.00	  767.62	-1798.62	  383.86
     67.3700	  877.00	  870.35	-1731.35	  383.99
     67.4700	  969.00	 1011.79	-1780.79	  384.12
     67.5700	 1202.00	 1195.53	-1731.53	  384.25
     67.6700	 1439.00	 1419.06	-1718.06	  384.39
     67.7700	 1653.00	 1671.26	-1756.26	  384.52
     67.8700	 1953.00	 1930.51	-1715.51	  384.65
     67.9700	 2221.00	 2163.86	-1680.86	  384.79
     68.0700	 2405.00	 2330.13	-1663.13	  384.92
     68.1700	 2393.00	 2390.86	-1735.86	  385.05
     68.2700	 2370.00	 2329.59	-1697.59	  385.18
     68.3700	 2105.00	 2162.89	-1795.89	  385.32
     68.4700	 1872.00	 1929.45	-1795.45	  385.45
     68.5700	 1695.00	 1670.59	-1713.59	  385.58
     68.6700	 1454.00	 1418.83	-1702.83	  385.71
     68.7700	 1135.00	 1196.01	-1799.01	  385.84
     68.8700	  938.00	 1013.08	-1813.08	  385.98
     68.9700	  857.00	  872.50	-1753.50	  386.11
     69.0700	  710.00	  770.60	-1798.60	  386.24
     69.1700	  756.00	  700.36	-1682.36	  386.37
     69.2700	  625.00	  653.84	-1766.84	  386.50
     69.3700	  608.00	  623.82	-1753.82	  386.63
     69.4700	  594.00	  604.64	-1748.64	  386.76
     69.5700	  566.00	  592.23	-1764.23	  386.89
     69.6700	  561.00	  584.02	-1761.02	  387.02
     69.7700	  580.00	  578.43	-1736.43	  387.15
     69.8700	  549.00	  574.57	-1763.57	  387.28
     69.9700	  629.00	  572.01	-1681.01	  387.41
     70.0700	  521.00	  570.47	-1787.47	  387.53
     70.1700	  583.00	  569.80	-1724.80	  387.66
     70.2700	  545.00	  570.04	-1763.04	  387.79
     70.3700	  598.00	  571.26	-1711.26	  387.92
     70.4700	  580.00	  573.68	-1731.68	  388.04
     70.5700	  590.00	  577.74	-1725.74	  388.17
     70.6700	  552.00	  584.24	-1770.24	  388.30
     70.7700	  560.00	  594.49	-1772.49	  388.42
     70.8700	  627.00	  610.56	-1721.56	  388.55
     70.9700	  582.00	  635.46	-1791.46	  388.67
     71.0700	  621.00	  673.17	-1790.17	  388.80
     71.1700	  665.00	  728.48	-1801.48	  388.92
     71.2700	  797.00	  806.35	-1747.35	  389.04
     71.3700	  957.00	  911.66	-1692.66	  389.17
     71.4700	 1067.00	 1044.56	-1715.56	  389.29
     71.5700	 1174.00	 1203.77	-1767.77	  389.41
     71.6700	 1287.00	 1382.04	-1833.04	  389.53
     71.7700	 1495.00	 1566.08	-1809.08	  389.65
     71.8700	 1740.00	 1736.07	-1734.07	  389.77
     71.9700	 1905.00	 1866.97	-1699.97	  389.89
     72.0700	 1900.00	 1933.53	-1771.53	  390.01
     72.1700	 1966.00	 1920.44	-1692.44	  390.13
     72.2700	 1807.00	 1830.89	-1761.89	  390.25
     72.3700	 1687.00	 1684.70	-1735.70	  390.37
     72.4700	 1511.00	 1507.94	-1734.94	  390.49
     72.5700	 1335.00	 1324.23	-1727.23	  390.60
     72.6700	 1182.00	 1151.15	-1707.15	  390.72
     72.7700	 1047.00	  999.85	-1690.85	  390.83
     72.8700	  896.00	  875.68	-1717.68	  390.95
     72.9700	  826.00	  779.25	-1691.25	  391.06
     73.0700	  756.00	  707.44	-1689.44	  391.17
     73.1700	  768.00	  656.78	-1626.78	  391.29
     73.2700	  696.00	  621.93	-1663.93	  391.40
     73.3700	  645.00	  598.41	-1691.41	  391.51
     73.4700	  601.00	  582.63	-1719.63	  391.62
     73.5700	  593.00	  571.96	-1716.96	  391.73
     73.6700	  647.00	  564.63	-1655.63	  391.84
     73.7700	  620.00	  559.51	-1677.51	  391.95
     73.8700	  591.00	  555.95	-1702.95	  392.06
     73.9700	  608.00	  553.55	-1683.55	  392.16
     74.0700	  556.00	  552.05	-1734.05	  392.27
     74.1700	  556.00	  551.26	-1733.26	  392.38
     74.2700	  655.00	  551.00	-1634.00	  392.48
     74.3700	  576.00	  551.07	-1713.07	  392.59
     74.4700	  598.00	  551.22	-1691.22	  392.69
     74.5700	  614.00	  551.21	-1675.21	  392.79
     74.6700	  603.00	  550.79	-1685.79	  392.89
     74.7700	  617.00	  549.83	-1670.83	  392.99
     74.8700	  617.00	  548.38	-1669.38	  393.09
     74.9700	  631.00	  546.65	-1653.65	  393.19
     75.0700	  583.00	  544.92	-1699.92	  393.29
     75.1700	  628.00	  543.51	-1653.51	  393.39
     75.2700	  599.00	  542.76	-1681.76	  393.48
     75.3700	  601.00	  542.96	-1679.96	  393.58
     75.4700	  601.00	  544.63	-1681.63	  393.68
     75.5700	  540.00	  548.14	-1746.14	  393.77
     75.6700	  565.00	  553.96	-1726.96	  393.86
     75.7700	  599.00	  562.50	-1701.50	  393.95
     75.8700	  608.00	  574.00	-1704.00	  394.05
     75.9700	  606.00	  588.68	-1720.68	  394.14
     76.0700	  609.00	  606.17	-1735.17	  394.22
     76.1700	  634.00	  625.71	-1729.71	  394.31
     76.2700	  664.00	  646.00	-1720.00	  394.40
     76.3700	  737.00	  665.15	-1666.15	  394.49
     76.4700	  692.00	  680.90	-1726.90	  394.57
     76.5700	  685.00	  690.74	-1743.74	  394.66
     76.6700	  678.00	  692.74	-1752.74	  394.74
     76.7700	  650.00	  686.46	-1774.46	  394.82
     76.8700	  605.00	  673.12	-1806.12	  394.90
     76.9700	  670.00	  655.03	-1723.03	  394.98
     77.0700	  650.00	  634.66	-1722.66	  395.06
     77.1700	  580.00	  614.12	-1772.12	  395.14
     77.2700	  587.00	  594.96	-1745.96	  395.22
     77.3700	  562.00	  578.01	-1754.01	  395.30
     77.4700	  540.00	  564.13	-1762.13	  395.37
     77.5700	  498.00	  553.20	-1793.20	  395.44
     77.6700	  541.00	  544.96	-1741.96	  395.52
     77.7700	  558.00	  539.00	-1719.00	  395.59
     77.8700	  515.00	  534.83	-1757.83	  395.66
     77.9700	  510.00	  532.00	-1760.00	  395.73
     78.0700	  515.00	  530.10	-1753.10	  395.80
     78.1700	  565.00	  528.84	-1701.84	  395.87
     78.2700	  514.00	  528.01	-1752.01	  395.93
     78.3700	  547.00	  527.46	-1718.46	  396.00
     78.4700	  503.00	  527.11	-1762.11	  396.06
     78.5700	  512.00	  526.91	-1752.91	  396.12
     78.6700	  494.00	  526.83	-1770.83	  396.19
     78.7700	  522.00	  526.87	-1742.87	  396.25
     78.8700	  506.00	  527.03	-1759.03	  396.31
     78.9700	  551.00	  527.34	-1714.34	  396.36
     79.0700	  486.00	  527.83	-1779.83	  396.42
     79.1700	  492.00	  528.52	-1774.52	  396.48
     79.2700	  483.00	  529.46	-1784.46	  396.53
     79.3700	  551.00	  530.68	-1717.68	  396.58
     79.4700	  501.00	  532.25	-1769.25	  396.64
     79.5700	  494.00	  534.21	-1778.21	  396.69
     79.6700	  558.00	  536.63	-1716.63	  396.74
     79.7700	  514.00	  539.61	-1763.61	  396.79
     79.8700	  528.00	  543.06	-1753.06	  396.83
     79.9700	  585.00	  547.52	-1700.52	  396.88
     80.0700	  562.00	  552.98	-1728.98	  396.92
     80.1700	  560.00	  559.67	-1737.67	  396.97
     80.2700	  559.00	  567.89	-1746.89	  397.01
     80.3700	  562.00	  577.93	-1753.93	  397.05
     80.4700	  585.00	  590.04	-1743.04	  397.09
     80.5700	  588.00	  604.27	-1754.27	  397.13
     80.6700	  557.00	  620.44	-1801.44	  397.16
     80.7700	  605.00	  638.05	-1771.05	  397.20
     80.8700	  646.00	  656.28	-1748.28	  397.23
     80.9700	  673.00	  674.03	-1739.03	  397.27
     81.0700	  683.00	  690.11	-1745.11	  397.30
     81.1700	  718.00	  703.50	-1723.50	  397.33
     81.2700	  748.00	  713.37	-1703.37	  397.36
     81.3700	  754.00	  719.20	-1703.20	  397.39
     81.4700	  765.00	  720.70	-1693.70	  397.41
     81.5700	  751.00	  717.84	-1704.84	  397.44
     81.6700	  736.00	  710.86	-1712.86	  397.46
     81.7700	  711.00	  700.10	-1727.10	  397.48
     81.8700	  774.00	  686.18	-1650.18	  397.50
     81.9700	  641.00	  670.03	-1767.03	  397.52
     82.0700	  691.00	  652.78	-1699.78	  397.54
     82.1700	  697.00	  635.50	-1676.50	  397.56
     82.2700	  667.00	  619.01	-1690.01	  397.57
     82.3700	  606.00	  603.84	-1735.84	  397.59
     82.4700	  557.00	  590.31	-1771.31	  397.60
     82.5700	  604.00	  578.58	-1712.58	  397.61
     82.6700	  588.00	  568.74	-1718.74	  397.62
     82.7700	  552.00	  560.84	-1746.84	  397.63
     82.8700	  536.00	  554.76	-1756.76	  397.63
     82.9700	  543.00	  550.57	-1745.57	  397.64
     83.0700	  544.00	  548.08	-1742.08	  397.64
     83.1700	  531.00	  547.17	-1754.17	  397.64
     83.2700	  528.00	  547.68	-1757.68	  397.65
     83.3700	  523.00	  549.49	-1764.49	  397.64
     83.4700	  526.00	  552.34	-1764.34	  397.64
     83.5700	  532.00	  555.97	-1761.97	  397.64
     83.6700	  534.00	  560.02	-1764.02	  397.63
     83.7700	  546.00	  564.07	-1756.07	  397.63
     83.8700	  520.00	  567.62	-1785.62	  397.62
     83.9700	  563.00	  570.19	-1745.19	  397.61
     84.0700	  558.00	  571.33	-1751.33	  397.60
     84.1700	  553.00	  570.78	-1755.78	  397.59
     84.2700	  576.00	  568.59	-1730.59	  397.57
     84.3700	  558.00	  565.04	-1745.04	  397.56
     84.4700	  563.00	  560.57	-1735.57	  397.54
     84.5700	  527.00	  555.64	-1766.64	  397.52
     84.6700	  570.00	  550.63	-1718.63	  397.50
     84.7700	  543.00	  545.87	-1740.87	  397.48
     84.8700	  500.00	  541.57	-1779.57	  397.46
     84.9700	  521.00	  537.88	-1754.88	  397.43
     85.0700	  471.00	  534.84	-1801.84	  397.41
     85.1700	  511.00	  532.45	-1759.45	  397.38
     85.2700	  519.00	  530.66	-1749.66	  397.35
     85.3700	  572.00	  529.39	-1695.39	  397.32
     85.4700	  551.00	  528.56	-1715.56	  397.29
     85.5700	  546.00	  528.11	-1720.11	  397.25
     85.6700	  512.00	  527.99	-1753.99	  397.22
     85.7700	  542.00	  528.19	-1724.19	  397.18
     85.8700	  530.00	  528.72	-1736.72	  397.14
     85.9700	  551.00	  529.64	-1716.64	  397.10
     86.0700	  557.00	  531.04	-1712.04	  397.06
     86.1700	  507.00	  533.07	-1764.07	  397.02
     86.2700	  532.00	  535.87	-1741.87	  396.98
     86.3700	  568.00	  539.62	-1709.62	  396.93
     86.4700	  561.00	  544.49	-1721.49	  396.88
     86.5700	  528.00	  550.61	-1760.61	  396.83
     86.6700	  568.00	  558.04	-1728.04	  396.78
     86.7700	  587.00	  566.76	-1717.76	  396.73
     86.8700	  553.00	  576.60	-1761.60	  396.68
     86.9700	  623.00	  587.23	-1702.23	  396.62
     87.0700	  602.00	  598.18	-1734.18	  396.56
     87.1700	  598.00	  608.78	-1748.78	  396.51
     87.2700	  615.00	  618.23	-1741.23	  396.45
     87.3700	  618.00	  625.67	-1745.67	  396.38
     87.4700	  598.00	  630.26	-1770.26	  396.32
     87.5700	  633.00	  631.08	-1736.08	  396.26
     87.6700	  646.00	  628.79	-1720.79	  396.19
     87.7700	  628.00	  623.42	-1733.42	  396.12
     87.8700	  625.00	  615.75	-1728.75	  396.05
     87.9700	  587.00	  606.73	-1757.73	  395.98
     88.0700	  589.00	  597.26	-1746.26	  395.91
     88.1700	  549.00	  588.16	-1777.16	  395.83
     88.2700	  583.00	  580.10	-1735.10	  395.76
     88.3700	  606.00	  573.60	-1705.60	  395.68
     88.4700	  577.00	  568.97	-1729.97	  395.60
     88.5700	  535.00	  566.38	-1769.38	  395.52
     88.6700	  593.00	  565.80	-1710.80	  395.44
     88.7700	  587.00	  567.06	-1718.06	  395.36
     88.8700	  587.00	  569.88	-1720.88	  395.27
     88.9700	  544.00	  573.83	-1767.83	  395.18
     89.0700	  603.00	  578.42	-1713.42	  395.10
     89.1700	  626.00	  583.07	-1695.07	  395.01
     89.2700	  599.00	  587.18	-1726.18	  394.91
     89.3700	  623.00	  590.15	-1705.15	  394.82
     89.4700	  565.00	  591.48	-1764.48	  394.73
     89.5700	  568.00	  590.89	-1760.89	  394.63
     89.6700	  566.00	  588.39	-1760.39	  394.53
     89.7700	  516.00	  584.25	-1806.25	  394.43
     89.8700	  600.00	  578.90	-1716.90	  394.33
     89.9700	  563.00	  572.84	-1747.84	  394.23
     90.0700	  547.00	  566.52	-1757.52	  394.13
     90.1700	  572.00	  560.31	-1726.31	  394.02
     90.2700	  506.00	  554.52	-1786.52	  393.91
     90.3700	  549.00	  549.35	-1738.35	  393.81
     90.4700	  518.00	  544.92	-1764.92	  393.69
     90.5700	  518.00	  541.28	-1761.28	  393.58
     90.6700	  535.00	  538.42	-1741.42	  393.47
     90.7700	  526.00	  536.29	-1748.29	  393.36
     90.8700	  506.00	  534.82	-1766.82	  393.24
     90.9700	  546.00	  533.92	-1725.92	  393.12
     91.0700	  540.00	  533.52	-1731.52	  393.00
     91.1700	  517.00	  533.58	-1754.58	  392.88
     91.2700	  487.00	  534.08	-1785.08	  392.76
     91.3700	  549.00	  535.04	-1724.04	  392.63
     91.4700	  476.00	  536.51	-1798.51	  392.51
     91.5700	  526.00	  538.61	-1750.61	  392.38
     91.6700	  543.00	  541.46	-1736.46	  392.25
     91.7700	  517.00	  545.24	-1766.24	  392.12
     91.8700	  547.00	  550.14	-1741.14	  391.99
     91.9700	  546.00	  556.37	-1748.37	  391.86
     92.0700	  525.00	  564.13	-1777.13	  391.72
     92.1700	  556.00	  573.57	-1755.57	  391.59
     92.2700	  568.00	  584.81	-1754.81	  391.45
     92.3700	  584.00	  597.87	-1751.87	  391.31
     92.4700	  590.00	  612.67	-1760.67	  391.17
     92.5700	  610.00	  629.01	-1757.01	  391.03
     92.6700	  631.00	  646.56	-1753.56	  390.89
     92.7700	  667.00	  664.57	-1735.57	  390.74
     92.8700	  658.00	  682.95	-1762.95	  390.59
     92.9700	  687.00	  700.72	-1751.72	  390.45
     93.0700	  709.00	  717.17	-1746.17	  390.30
     93.1700	  771.00	  731.71	-1698.71	  390.15
     93.2700	  751.00	  744.08	-1731.08	  390.00
     93.3700	  799.00	  754.39	-1693.39	  389.84
     93.4700	  779.00	  763.06	-1722.06	  389.69
     93.5700	  794.00	  770.64	-1714.64	  389.53
     93.6700	  804.00	  777.68	-1711.68	  389.37
     93.7700	  836.00	  784.63	-1686.63	  389.21
     93.8700	  830.00	  791.90	-1699.90	  389.05
     93.9700	  829.00	  799.88	-1708.88	  388.89
     94.0700	  852.00	  809.00	-1695.00	  388.73
     94.1700	  850.00	  819.63	-1707.63	  388.56
     94.2700	  793.00	  831.95	-1776.95	  388.40
     94.3700	  914.00	  845.78	-1669.78	  388.23
     94.4700	  878.00	  860.51	-1720.51	  388.06
     94.5700	  789.00	  875.09	-1824.09	  387.89
     94.6700	  942.00	  888.08	-1684.08	  387.72
     94.7700	  928.00	  897.82	-1707.82	  387.55
     94.8700	  956.00	  902.60	-1684.60	  387.37
     94.9700	  913.00	  901.11	-1726.11	  387.20
     95.0700	  863.00	  892.72	-1767.72	  387.02
     95.1700	  864.00	  877.73	-1751.73	  386.84
     95.2700	  877.00	  857.27	-1718.27	  386.66
     95.3700	  877.00	  833.01	-1694.01	  386.48
     95.4700	  801.00	  806.84	-1743.84	  386.30
     95.5700	  824.00	  780.68	-1694.68	  386.12
     95.6700	  779.00	  756.33	-1715.33	  385.93
     95.7700	  706.00	  735.45	-1767.45	  385.75
     95.8700	  673.00	  719.50	-1784.50	  385.56
     95.9700	  709.00	  709.81	-1738.81	  385.37
     96.0700	  721.00	  707.53	-1724.53	  385.18
     96.1700	  709.00	  713.61	-1742.61	  384.99
     96.2700	  741.00	  728.83	-1725.83	  384.80
     96.3700	  725.00	  753.73	-1766.73	  384.61
     96.4700	  790.00	  788.59	-1736.59	  384.41
     96.5700	  751.00	  833.35	-1820.35	  384.22
     96.6700	  918.00	  887.52	-1707.52	  384.02
     96.7700	  926.00	  950.12	-1762.12	  383.82
     96.8700	  958.00	 1019.57	-1799.57	  383.62
     96.9700	 1045.00	 1093.68	-1786.68	  383.42
     97.0700	 1206.00	 1169.64	-1701.64	  383.22
     97.1700	 1256.00	 1244.00	-1726.00	  383.02
     97.2700	 1350.00	 1312.77	-1700.77	  382.82
     97.3700	 1276.00	 1371.60	-1833.60	  382.61
     97.4700	 1373.00	 1416.22	-1781.22	  382.41
     97.5700	 1394.00	 1443.08	-1787.08	  382.20
     97.6700	 1525.00	 1450.02	-1663.02	  381.99
     97.7700	 1435.00	 1436.83	-1739.83	  381.79
     97.8700	 1381.00	 1405.26	-1762.26	  381.58
     97.9700	 1333.00	 1358.47	-1763.47	  381.37
     98.0700	 1256.00	 1300.44	-1782.44	  381.15
     98.1700	 1177.00	 1235.32	-1796.32	  380.94
     98.2700	 1178.00	 1167.14	-1727.14	  380.73
     98.3700	 1148.00	 1099.54	-1689.54	  380.51
     98.4700	 1048.00	 1035.72	-1725.72	  380.30
     98.5700	  933.00	  978.32	-1783.32	  380.08
     98.6700	  927.00	  929.54	-1740.54	  379.86
     98.7700	  871.00	  891.11	-1758.11	  379.64
     98.8700	  847.00	  864.37	-1755.37	  379.43
     98.9700	  816.00	  850.26	-1772.26	  379.21
     99.0700	  847.00	  849.50	-1740.50	  378.98
     99.1700	  894.00	  862.48	-1706.48	  378.76
     99.2700	  899.00	  889.38	-1728.38	  378.54
     99.3700	  908.00	  930.15	-1760.15	  378.32
     99.4700	 1023.00	  984.45	-1699.45	  378.09
     99.5700	  997.00	 1051.65	-1792.65	  377.87
     99.6700	 1148.00	 1130.72	-1720.72	  377.64
     99.7700	 1206.00	 1220.16	-1752.16	  377.41
     99.8700	 1255.00	 1317.91	-1800.91	  377.19
     99.9700	 1450.00	 1421.29	-1709.29	  376.96
    100.0700	 1550.00	 1526.99	-1714.99	  376.73
    100.1700	 1663.00	 1631.13	-1706.13	  376.50
    100.2700	 1723.00	 1729.52	-1744.52	  376.27
    100.3700	 1815.00	 1818.05	-1741.05	  376.04
    100.4700	 1925.00	 1893.10	-1706.10	  375.81
    100.5700	 1953.00	 1951.93	-1736.93	  375.58
    100.6700	 2053.00	 1992.68	-1677.68	  375.34
    100.7700	 1985.00	 2014.20	-1767.20	  375.11
    100.8700	 2033.00	 2015.84	-1720.84	  374.87
    100.9700	 1957.00	 1997.48	-1778.48	  374.64
    101.0700	 1851.00	 1959.79	-1846.79	  374.40
    101.1700	 1927.00	 1904.60	-1715.60	  374.17
    101.2700	 1853.00	 1835.08	-1720.08	  373.93
    101.3700	 1760.00	 1755.43	-1733.43	  373.70
    101.4700	 1674.00	 1670.37	-1734.37	  373.46
    101.5700	 1637.00	 1584.50	-1685.50	  373.22
    101.6700	 1547.00	 1501.87	-1692.87	  372.98
    101.7700	 1458.00	 1425.66	-1705.66	  372.74
    101.8700	 1360.00	 1358.09	-1736.09	  372.50
    101.9700	 1324.00	 1300.41	-1714.41	  372.26
    102.0700	 1312.00	 1252.91	-1678.91	  372.02
    102.1700	 1187.00	 1215.04	-1766.04	  371.78
    102.2700	 1220.00	 1185.45	-1703.45	  371.54
    102.3700	 1156.00	 1162.18	-1744.18	  371.30
    102.4700	 1094.00	 1142.84	-1786.84	  371.06
    102.5700	 1126.00	 1124.86	-1736.86	  370.82
    102.6700	 1049.00	 1105.82	-1794.82	  370.58
    102.7700	 1093.00	 1083.77	-1728.77	  370.34
    102.8700	 1123.00	 1057.52	-1672.52	  370.09
    102.9700	 1040.00	 1026.72	-1724.72	  369.85
    103.0700	  985.00	  991.73	-1744.73	  369.61
    103.1700	  935.00	  953.45	-1756.45	  369.36
    103.2700	  916.00	  913.03	-1735.03	  369.12
    103.3700	  895.00	  871.69	-1714.69	  368.88
    103.4700	  847.00	  830.63	-1721.63	  368.64
    103.5700	  804.00	  790.89	-1724.89	  368.39
    103.6700	  713.00	  753.36	-1778.36	  368.15
    103.7700	  692.00	  718.73	-1764.73	  367.90
    103.8700	  651.00	  687.47	-1774.47	  367.66
    103.9700	  717.00	  659.86	-1680.86	  367.42
    104.0700	  618.00	  635.99	-1755.99	  367.17
    104.1700	  640.00	  615.77	-1713.77	  366.93
    104.2700	  598.00	  599.01	-1739.01	  366.69
    104.3700	  578.00	  585.41	-1745.41	  366.44
    104.4700	  619.00	  574.62	-1693.62	  366.20
    104.5700	  567.00	  566.26	-1737.26	  365.96
    104.6700	  533.00	  559.98	-1764.98	  365.71
    104.7700	  598.00	  555.43	-1695.43	  365.47
    104.8700	  527.00	  552.30	-1763.30	  365.23
    104.9700	  563.00	  550.34	-1725.34	  364.99
    105.0700	  539.00	  549.33	-1748.33	  364.75
    105.1700	  549.00	  549.08	-1738.08	  364.50
    105.2700	  563.00	  549.51	-1724.51	  364.26
    105.3700	  516.00	  550.52	-1772.52	  364.02
    105.4700	  597.00	  552.05	-1693.05	  363.78
    105.5700	  544.00	  554.10	-1748.10	  363.54
    105.6700	  563.00	  556.70	-1731.70	  363.30
    105.7700	  537.00	  559.90	-1760.90	  363.06
    105.8700	  563.00	  563.78	-1738.78	  362.82
    105.9700	  506.00	  568.42	-1800.42	  362.58
    106.0700	  575.00	  573.87	-1736.87	  362.34
    106.1700	  587.00	  580.20	-1731.20	  362.11
    106.2700	  600.00	  587.41	-1725.41	  361.87
    106.3700	  598.00	  595.46	-1735.46	  361.63
    106.4700	  606.00	  604.25	-1736.25	  361.40
    106.5700	  605.00	  613.63	-1746.63	  361.16
    106.6700	  631.00	  623.40	-1730.40	  360.93
    106.7700	  618.00	  633.28	-1753.28	  360.69
    106.8700	  634.00	  642.97	-1746.97	  360.46
    106.9700	  626.00	  652.14	-1764.14	  360.23
    107.0700	  669.00	  660.43	-1729.43	  360.00
    107.1700	  665.00	  667.51	-1740.51	  359.77
    107.2700	  658.00	  673.11	-1753.11	  359.54
    107.3700	  656.00	  677.10	-1759.10	  359.31
    107.4700	  689.00	  679.47	-1728.47	  359.08
    107.5700	  689.00	  680.40	-1729.40	  358.85
    107.6700	  631.00	  680.16	-1787.16	  358.62
    107.7700	  671.00	  679.15	-1746.15	  358.40
    107.8700	  652.00	  677.77	-1763.77	  358.17
    107.9700	  647.00	  676.37	-1767.37	  357.95
    108.0700	  728.00	  675.27	-1685.27	  357.73
    108.1700	  679.00	  674.69	-1733.69	  357.51
    108.2700	  690.00	  674.74	-1722.74	  357.29
    108.3700	  669.00	  675.44	-1744.44	  357.07
    108.4700	  652.00	  676.68	-1762.68	  356.85
    108.5700	  666.00	  678.28	-1750.28	  356.63
    108.6700	  655.00	  679.94	-1762.94	  356.42
    108.7700	  765.00	  681.31	-1654.31	  356.20
    108.8700	  728.00	  681.99	-1691.99	  355.99
    108.9700	  670.00	  681.60	-1749.60	  355.78
    109.0700	  651.00	  679.83	-1766.83	  355.57
    109.1700	  678.00	  676.45	-1736.45	  355.36
    109.2700	  681.00	  671.41	-1728.41	  355.15
    109.3700	  680.00	  664.78	-1722.78	  354.95
    109.4700	  716.00	  656.76	-1678.76	  354.74
    109.5700	  609.00	  647.64	-1776.64	  354.54
    109.6700	  641.00	  637.74	-1734.74	  354.34
    109.7700	  633.00	  627.39	-1732.39	  354.14
    109.8700	  626.00	  616.91	-1728.91	  353.94
    109.9700	  615.00	  606.59	-1729.59	  353.74
    110.0700	  602.00	  596.68	-1732.68	  353.55
    110.1700	  592.00	  587.39	-1733.39	  353.36
    110.2700	  603.00	  578.87	-1713.87	  353.16
    110.3700	  594.00	  571.25	-1715.25	  352.97
    110.4700	  544.00	  564.58	-1758.58	  352.79
    110.5700	  604.00	  558.91	-1692.91	  352.60
    110.6700	  561.00	  554.22	-1731.22	  352.42
    110.7700	  525.00	  550.48	-1763.48	  352.23
    110.8700	  583.00	  547.63	-1702.63	  352.05
    110.9700	  588.00	  545.60	-1695.60	  351.88
    111.0700	  543.00	  544.30	-1739.30	  351.70
    111.1700	  534.00	  543.65	-1747.65	  351.53
    111.2700	  546.00	  543.57	-1735.57	  351.35
    111.3700	  547.00	  543.97	-1734.97	  351.18
    111.4700	  549.00	  544.79	-1733.79	  351.02
    111.5700	  532.00	  545.96	-1751.96	  350.85
    111.6700	  525.00	  547.43	-1760.43	  350.69
    111.7700	  553.00	  549.15	-1734.15	  350.53
    111.8700	  559.00	  551.10	-1730.10	  350.37
    111.9700	  563.00	  553.25	-1728.25	  350.21
    112.0700	  559.00	  555.59	-1734.59	  350.06
    112.1700	  555.00	  558.12	-1741.12	  349.91
    112.2700	  581.00	  560.85	-1717.85	  349.76
    112.3700	  556.00	  563.81	-1745.81	  349.61
    112.4700	  586.00	  567.02	-1719.02	  349.47
    112.5700	  605.00	  570.52	-1703.52	  349.33
    112.6700	  553.00	  574.38	-1759.38	  349.19
    112.7700	  595.00	  578.65	-1721.65	  349.05
    112.8700	  595.00	  583.43	-1726.43	  348.92
    112.9700	  595.00	  588.82	-1731.82	  348.79
    113.0700	  625.00	  594.98	-1707.98	  348.66
    113.1700	  629.00	  602.08	-1711.08	  348.54
    113.2700	  653.00	  610.36	-1695.36	  348.42
    113.3700	  650.00	  620.13	-1708.13	  348.30
    113.4700	  668.00	  631.78	-1701.78	  348.18
    113.5700	  649.00	  645.80	-1734.80	  348.07
    113.6700	  699.00	  662.81	-1701.81	  347.96
    113.7700	  722.00	  683.57	-1699.57	  347.85
    113.8700	  740.00	  709.00	-1707.00	  347.75
    113.9700	  813.00	  740.22	-1665.22	  347.65
    114.0700	  835.00	  778.53	-1681.53	  347.55
    114.1700	  861.00	  825.48	-1702.48	  347.46
    114.2700	  954.00	  882.77	-1666.77	  347.36
    114.3700	 1009.00	  952.37	-1681.37	  347.28
    114.4700	 1067.00	 1036.36	-1707.36	  347.19
    114.5700	 1170.00	 1136.97	-1704.97	  347.11
    114.6700	 1300.00	 1256.51	-1694.51	  347.03
    114.7700	 1400.00	 1397.19	-1735.19	  346.96
    114.8700	 1693.00	 1561.14	-1606.14	  346.89
    114.9700	 1858.00	 1750.14	-1630.14	  346.82
    115.0700	 2077.00	 1965.66	-1626.66	  346.76
    115.1700	 2289.00	 2208.56	-1657.56	  346.70
    115.2700	 2555.00	 2478.98	-1661.98	  346.65
    115.3700	 2867.00	 2776.17	-1647.17	  346.59
    115.4700	 3125.00	 3098.39	-1711.39	  346.55
    115.5700	 3377.00	 3442.87	-1803.87	  346.50
    115.6700	 3802.00	 3805.73	-1741.73	  346.46
    115.7700	 4065.00	 4181.75	-1854.75	  346.43
    115.8700	 4425.00	 4564.59	-1877.59	  346.39
    115.9700	 4866.00	 4946.69	-1818.69	  346.36
    116.0700	 5197.00	 5319.52	-1860.52	  346.34
    116.1700	 5612.00	 5673.63	-1799.63	  346.32
    116.2700	 5851.00	 5998.74	-1885.74	  346.30
    116.3700	 6231.00	 6284.31	-1791.31	  346.29
    116.4700	 6543.00	 6519.98	-1714.98	  346.29
    116.5700	 6580.00	 6696.46	-1854.46	  346.28
    116.6700	 6671.00	 6806.20	-1873.20	  346.28
    116.7700	 6805.00	 6844.32	-1777.32	  346.29
    116.8700	 6952.00	 6809.25	-1595.25	  346.30
    116.9700	 6759.00	 6702.99	-1681.99	  346.31
    117.0700	 6442.00	 6530.70	-1826.70	  346.33
    117.1700	 6259.00	 6300.10	-1779.10	  346.36
    117.2700	 6054.00	 6020.68	-1704.68	  346.39
    117.3700	 5624.00	 5702.74	-1816.74	  346.42
    117.4700	 5245.00	 5356.75	-1849.75	  346.46
    117.5700	 4911.00	 4992.70	-1819.70	  346.50
    117.6700	 4681.00	 4619.78	-1676.78	  346.55
    117.7700	 4288.00	 4246.37	-1696.37	  346.60
    117.8700	 3909.00	 3879.66	-1708.66	  346.66
    117.9700	 3787.00	 3525.73	-1476.73	  346.72
    118.0700	 3338.00	 3189.36	-1589.36	  346.79
    118.1700	 2979.00	 2874.14	-1633.14	  346.86
    118.2700	 2631.00	 2582.68	-1689.68	  346.94
    118.3700	 2373.00	 2316.51	-1681.51	  347.02
    118.4700	 2098.00	 2076.27	-1716.27	  347.11
    118.5700	 1913.00	 1861.76	-1686.76	  347.21
    118.6700	 1606.00	 1672.17	-1804.17	  347.31
    118.7700	 1536.00	 1506.23	-1708.23	  347.41
    118.8700	 1270.00	 1362.27	-1830.27	  347.52
    118.9700	 1193.00	 1238.41	-1783.41	  347.64
    119.0700	 1098.00	 1132.59	-1772.59	  347.76
    119.1700	  960.00	 1042.73	-1820.73	  347.88
    119.2700	  949.00	  966.83	-1755.83	  348.02
    119.3700	  838.00	  902.98	-1802.98	  348.16
    119.4700	  802.00	  849.44	-1785.44	  348.30
    119.5700	  789.00	  804.62	-1753.62	  348.45
    119.6700	  763.00	  767.13	-1742.13	  348.61
    119.7700	  742.00	  735.77	-1731.77	  348.77
    119.8700	  665.00	  709.52	-1782.52	  348.94
    119.9700	  645.00	  687.52	-1780.52	  349.11
    120.0700	  637.00	  669.05	-1770.05	  349.29
    120.1700	  610.00	  653.53	-1781.53	  349.48
    120.2700	  620.00	  640.48	-1758.48	  349.67
    120.3700	  565.00	  629.51	-1802.51	  349.87
    120.4700	  573.00	  620.32	-1785.32	  350.08
    120.5700	  635.00	  612.67	-1715.67	  350.29
    120.6700	  603.00	  606.34	-1741.34	  350.51
    120.7700	  560.00	  601.19	-1779.19	  350.73
    120.8700	  540.00	  597.09	-1795.09	  350.96
    120.9700	  571.00	  593.93	-1760.93	  351.20
    121.0700	  521.00	  591.64	-1808.64	  351.45
    121.1700	  550.00	  590.15	-1778.15	  351.70
    121.2700	  572.00	  589.39	-1755.39	  351.96
    121.3700	  574.00	  589.31	-1753.31	  352.22
    121.4700	  596.00	  589.86	-1731.86	  352.50
    121.5700	  593.00	  590.99	-1735.99	  352.78
    121.6700	  569.00	  592.64	-1761.64	  353.06
    121.7700	  603.00	  594.74	-1729.74	  353.36
    121.8700	  600.00	  597.25	-1735.25	  353.66
    121.9700	  606.00	  600.07	-1732.07	  353.97
    122.0700	  569.00	  603.15	-1772.15	  354.28
    122.1700	  569.00	  606.37	-1775.37	  354.60
    122.2700	  627.00	  609.67	-1720.67	  354.94
    122.3700	  618.00	  612.93	-1732.93	  355.27
    122.4700	  597.00	  616.06	-1757.06	  355.62
    122.5700	  631.00	  618.95	-1725.95	  355.97
    122.6700	  672.00	  621.50	-1687.50	  356.33
    122.7700	  622.00	  623.60	-1739.60	  356.70
    122.8700	  658.00	  625.21	-1705.21	  357.08
    122.9700	  629.00	  626.25	-1735.25	  357.46
    123.0700	  647.00	  626.69	-1717.69	  357.86
    123.1700	  625.00	  626.51	-1739.51	  358.26
    123.2700	  714.00	  625.73	-1649.73	  358.67
    123.3700	  652.00	  624.39	-1710.39	  359.08
    123.4700	  676.00	  622.53	-1684.53	  359.51
    123.5700	  637.00	  620.23	-1721.23	  359.94
    123.6700	  596.00	  617.55	-1759.55	  360.38
    123.7700	  601.00	  614.55	-1751.55	  360.83
    123.8700	  644.00	  611.34	-1705.34	  361.29
    123.9700	  654.00	  607.97	-1691.97	  361.76
    124.0700	  602.00	  604.52	-1740.52	  362.23
    124.1700	  592.00	  601.04	-1747.04	  362.72
    124.2700	  592.00	  597.59	-1743.59	  363.21
    124.3700	  623.00	  594.23	-1709.23	  363.71
    124.4700	  610.00	  590.99	-1718.99	  364.22
    124.5700	  599.00	  587.91	-1726.91	  364.74
    124.6700	  570.00	  585.03	-1753.03	  365.27
    124.7700	  547.00	  582.35	-1773.35	  365.81
    124.8700	  598.00	  579.91	-1719.91	  366.36
    124.9700	  533.00	  482.34	-1687.34	  366.91
    125.0700	  555.00	  482.91	-1738.00	  367.48
    125.1700	  560.00	  483.48	-1738.00	  368.05
    125.2700	  568.00	  484.07	-1738.00	  368.64
    125.3700	  567.00	  484.66	-1738.00	  369.23
    125.4700	  619.00	  485.26	-1738.00	  369.84
    125.5700	  563.00	  485.88	-1738.00	  370.45
    125.6700	  507.00	  486.50	-1738.00	  371.07
    125.7700	  578.00	  487.13	-1738.00	  371.71
    125.8700	  571.00	  487.78	-1738.00	  372.35
    125.9700	  606.00	  488.43	-1738.00	  373.00
    126.0700	  546.00	  489.09	-1738.00	  373.66
    126.1700	  575.00	  489.76	-1738.00	  374.34
    126.2700	  573.00	  490.45	-1738.00	  375.02
    126.3700	  569.00	  491.14	-1738.00	  375.71
    126.4700	  597.00	  491.84	-1738.00	  376.42
    126.5700	  570.00	  492.56	-1738.00	  377.13
    126.6700	  620.00	  493.28	-1738.00	  377.85
    126.7700	  595.00	  494.02	-1738.00	  378.59
    126.8700	  649.00	  494.76	-1738.00	  379.33
    126.9700	  656.00	  495.52	-1738.00	  380.09
    127.0700	  586.00	  496.28	-1738.00	  380.86
    127.1700	  620.00	  497.06	-1738.00	  381.63
    127.2700	  604.00	  497.85	-1738.00	  382.42
    127.3700	  651.00	  498.65	-1738.00	  383.22
    127.4700	  628.00	  499.46	-1738.00	  384.03
    127.5700	  656.00	  500.28	-1738.00	  384.85
    127.6700	  707.00	  501.11	-1738.00	  385.69
    127.7700	  684.00	  501.96	-1738.00	  386.53
    127.8700	  749.00	  502.81	-1738.00	  387.39
    127.9700	  735.00	  503.68	-1738.00	  388.25
    128.0700	  706.00	  504.56	-1738.00	  389.13
    128.1700	  748.00	  505.45	-1738.00	  390.02
    128.2700	  779.00	  506.35	-1738.00	  390.92
    128.3700	  791.00	  507.26	-1738.00	  391.84
    128.4700	  790.00	  508.19	-1738.00	  392.76
    128.5700	    0.00	  509.13	-1738.00	  393.70
    128.6700	    0.00	  510.08	-1738.00	  394.65
     12.3061	        	        	        	        	       0	(  0  0  2)	  0  1
     24.8960	        	        	        	        	       0	(  0  0  4)	  0  1
     28.3431	        	        	        	        	       0	(  1  0  0)	  0  1
     29.0406	        	        	        	        	       0	(  1  0  1)	  0  1
     31.0477	        	        	        	        	       0	(  1  0  2)	  0  1
     34.1576	        	        	        	        	       0	(  1  0  3)	  0  1
     37.8025	        	        	        	        	       0	(  0  0  6)	  0  1
     38.1367	        	        	        	        	       0	(  1  0  4)	  0  1
     42.7893	        	        	        	        	       0	(  1  0  5)	  0  1
     47.9762	        	        	        	        	       0	(  1  0  6)	  0  1
     50.2959	        	        	        	        	       0	(  1  1  0)	  0  1
     51.2321	        	        	        	        	       0	(  0  0  8)	  0  1
     52.0199	        	        	        	        	       0	(  1  1  2)	  0  1
     53.6100	        	        	        	        	       0	(  1  0  7)	  0  1
     56.9706	        	        	        	        	       0	(  1  1  4)	  0  1
     58.7998	        	        	        	        	       0	(  2  0  0)	  0  1
     59.1916	        	        	        	        	       0	(  2  0  1)	  0  1
     59.6442	        	        	        	        	       0	(  1  0  8)	  0  1
     60.3577	        	        	        	        	       0	(  2  0  2)	  0  1
     62.2721	        	        	        	        	       0	(  2  0  3)	  0  1
     64.6702	        	        	        	        	       0	(  1  1  6)	  0  1
     64.8979	        	        	        	        	       0	(  2  0  4)	  0  1
     65.4705	        	        	        	        	       0	(  0  0 10)	  0  1
     66.0648	        	        	        	        	       0	(  1  0  9)	  0  1
     68.1944	        	        	        	        	       0	(  2  0  5)	  0  1
     72.1247	        	        	        	        	       0	(  2  0  6)	  0  1
     72.8859	        	        	        	        	       0	(  1  0 10)	  0  1
     74.7151	        	        	        	        	       0	(  1  1  8)	  0  1
     76.6623	        	        	        	        	       0	(  2  0  7)	  0  1
     80.1493	        	        	        	        	       0	(  1  0 11)	  0  1
     80.9627	        	        	        	        	       0	(  0  0 12)	  0  1
     81.0624	        	        	        	        	       0	(  2  1  0)	  0  1
     81.4025	        	        	        	        	       0	(  2  1  1)	  0  1
     81.7968	        	        	        	        	       0	(  2  0  8)	  0  1
     82.4213	        	        	        	        	       0	(  2  1  2)	  0  1
     84.1141	        	        	        	        	       0	(  2  1  3)	  0  1
     86.4759	        	        	        	        	       0	(  2  1  4)	  0  1
     86.9970	        	        	        	        	       0	(  1  1 10)	  0  1
     87.5401	        	        	        	        	       0	(  2  0  9)	  0  1
     87.9306	        	        	        	        	       0	(  1  0 12)	  0  1
     89.5047	        	        	        	        	       0	(  2  1  5)	  0  1
     93.2060	        	        	        	        	       0	(  2  1  6)	  0  1
     93.9340	        	        	        	        	       0	(  2  0 10)	  0  1
     94.9685	        	        	        	        	       0	(  3  0  0)	  0  1
     95.3063	        	        	        	        	       0	(  3  0  1)	  0  1
     96.3207	        	        	        	        	       0	(  3  0  2)	  0  1
     96.3525	        	        	        	        	       0	(  1  0 13)	  0  1
     97.5996	        	        	        	        	       0	(  2  1  7)	  0  1
     98.0160	        	        	        	        	       0	(  3  0  3)	  0  1
     98.5195	        	        	        	        	       0	(  0  0 14)	  0  1
    100.4020	        	        	        	        	       0	(  3  0  4)	  0  1
    101.0642	        	        	        	        	       0	(  2  0 11)	  0  1
    101.8837	        	        	        	        	       0	(  1  1 12)	  0  1
    102.7285	        	        	        	        	       0	(  2  1  8)	  0  1
    103.4978	        	        	        	        	       0	(  3  0  5)	  0  1
    105.6167	        	        	        	        	       0	(  1  0 14)	  0  1
    107.3385	        	        	        	        	       0	(  3  0  6)	  0  1
    108.6740	        	        	        	        	       0	(  2  1  9)	  0  1
    109.0867	        	        	        	        	       0	(  2  0 12)	  0  1
    111.9864	        	        	        	        	       0	(  3  0  7)	  0  1
    115.5827	        	        	        	        	       0	(  2  1 10)	  0  1
    116.0766	        	        	        	        	       0	(  1  0 15)	  0  1
    116.7329	        	        	        	        	       0	(  2  2  0)	  0  1
    117.5503	        	        	        	        	       0	(  3  0  8)	  0  1
    118.2513	        	        	        	        	       0	(  2  2  2)	  0  1
    118.2872	        	        	        	        	       0	(  2  0 13)	  0  1
    120.0408	        	        	        	        	       0	(  0  0 16)	  0  1
    120.7592	        	        	        	        	       0	(  1  1 14)	  0  1
    122.9477	        	        	        	        	       0	(  2  2  4)	  0  1
    123.7274	        	        	        	        	       0	(  2  1 11)	  0  1
    124.2256	        	        	        	        	       0	(  3  0  9)	  0  1
    124.8196	        	        	        	        	       0	(  3  1  0)	  0  1
    125.2310	        	        	        	        	       0	(  3  1  1)	  0  1
    126.4779	        	        	        	        	       0	(  3  1  2)	  0  1
    128.4480	        	        	        	        	       0	(  1  0 16)	  0  1
    128.6026	        	        	        	        	       0	(  3  1  3)	  0  1
    129.2439	        	        	        	        	       0	(  2  0 14)	  0  1
    131.4126	        	        	        	        	       0	(  2  2  6)	  0  1
    131.6888	        	        	        	        	       0	(  3  1  4)	  0  1
    132.3908	        	        	        	        	       0	(  3  0 10)	  0  1
    133.6696	        	        	        	        	       0	(  2  1 12)	  0  1
    135.8921	        	        	        	        	       0	(  3  1  5)	  0  1
    141.5149	        	        	        	        	       0	(  3  1  6)	  0  1
    142.9172	        	        	        	        	       0	(  3  0 11)	  0  1
    143.4429	        	        	        	        	       0	(  2  0 15)	  0  1
    144.6848	        	        	        	        	       0	(  1  0 17)	  0  1
    145.7171	        	        	        	        	       0	(  2  2  8)	  0  1
    146.8935	        	        	        	        	       0	(  2  1 13)	  0  1
    149.2421	        	        	        	        	       0	(  3  1  7)	  0  1
    149.8198	        	        	        	        	       0	(  1  1 16)	  0  1
    154.2592	        	        	        	        	       0	(  0  0 18)	  0  1
    158.9616	        	        	        	        	       0	(  3  0 12)	  0  1
    159.2393	        	        	        	        	       0	(  4  0  0)	  0  1
    160.2161	        	        	        	        	       0	(  4  0  1)	  0  1
    161.4115	        	        	        	        	       0	(  3  1  8)	  0  1
    163.4782	        	        	        	        	       0	(  4  0  2)	  0  1
    170.4815	        	        	        	        	       0	(  2  0 16)	  0  1
    171.2532	        	        	        	        	       0	(  4  0  3)	  0  1
    175.7457	        	        	        	        	       0	(  2  1 14)	  0  1
