MSG Master    CELL:    5.91892   5.91892  23.27398   90.0000   90.0000  120.0000   SPGR: P 63/m m c             TEMP:   1074.85
  1   1280     2.52000     0.00000    -0.13196     0.00000     0.00000    0
    99     0     2
       0.00000      10.00000
     125.00000     130.00000
 2Theta	Yobs	Ycal	Yobs-Ycal	Backg	Posr	(hkl)	K
      0.7700	    0.00	  524.17	-1753.75	  405.90
      0.8700	    0.00	  525.14	-1753.75	  406.87
      0.9700	   45.00	  526.09	-1753.75	  407.82
      1.0700	   57.00	  527.03	-1753.75	  408.76
      1.1700	   31.00	  527.96	-1753.75	  409.69
      1.2700	   42.00	  528.87	-1753.75	  410.61
      1.3700	   52.00	  529.78	-1753.75	  411.51
      1.4700	   93.00	  530.67	-1753.75	  412.40
      1.5700	  301.00	  531.55	-1753.75	  413.28
      1.6700	  487.00	  532.41	-1753.75	  414.14
      1.7700	  560.00	  533.26	-1753.75	  415.00
      1.8700	  640.00	  534.11	-1753.75	  415.84
      1.9700	  705.00	  534.93	-1753.75	  416.67
      2.0700	  767.00	  535.75	-1753.75	  417.48
      2.1700	  798.00	  536.56	-1753.75	  418.29
      2.2700	  775.00	  537.35	-1753.75	  419.08
      2.3700	  766.00	  538.13	-1753.75	  419.86
      2.4700	  693.00	  538.90	-1753.75	  420.63
      2.5700	  682.00	  539.66	-1753.75	  421.39
      2.6700	  678.00	  540.41	-1753.75	  422.14
      2.7700	  681.00	  541.14	-1753.75	  422.87
      2.8700	  691.00	  541.87	-1753.75	  423.60
      2.9700	  635.00	  542.58	-1753.75	  424.31
      3.0700	  609.00	  543.28	-1753.75	  425.01
      3.1700	  623.00	  543.97	-1753.75	  425.70
      3.2700	  634.00	  544.65	-1753.75	  426.38
      3.3700	  641.00	  545.32	-1753.75	  427.05
      3.4700	  743.00	  545.98	-1753.75	  427.71
      3.5700	  822.00	  546.62	-1753.75	  428.35
      3.6700	  883.00	  547.26	-1753.75	  428.99
      3.7700	  969.00	  547.88	-1753.75	  429.62
      3.8700	  951.00	  548.50	-1753.75	  430.23
      3.9700	  999.00	  549.10	-1753.75	  430.84
      4.0700	 1018.00	  549.70	-1753.75	  431.43
      4.1700	 1162.00	  550.28	-1753.75	  432.01
      4.2700	 1129.00	  550.85	-1753.75	  432.59
      4.3700	 1072.00	  551.42	-1753.75	  433.15
      4.4700	 1055.00	  551.97	-1753.75	  433.70
      4.5700	 1026.00	  552.51	-1753.75	  434.25
      4.6700	 1034.00	  553.05	-1753.75	  434.78
      4.7700	  991.00	  553.57	-1753.75	  435.30
      4.8700	 1009.00	  554.08	-1753.75	  435.81
      4.9700	  980.00	  554.59	-1753.75	  436.32
      5.0700	  962.00	  555.08	-1753.75	  436.81
      5.1700	  924.00	  555.56	-1753.75	  437.30
      5.2700	  882.00	  556.04	-1753.75	  437.77
      5.3700	  887.00	  556.50	-1753.75	  438.24
      5.4700	  917.00	  556.96	-1753.75	  438.69
      5.5700	  837.00	  557.41	-1753.75	  439.14
      5.6700	  863.00	  557.84	-1753.75	  439.58
      5.7700	  765.00	  558.27	-1753.75	  440.00
      5.8700	  876.00	  558.69	-1753.75	  440.42
      5.9700	  811.00	  559.10	-1753.75	  440.83
      6.0700	  802.00	  559.50	-1753.75	  441.23
      6.1700	  782.00	  559.89	-1753.75	  441.63
      6.2700	  792.00	  560.28	-1753.75	  442.01
      6.3700	  762.00	  560.65	-1753.75	  442.38
      6.4700	  736.00	  561.02	-1753.75	  442.75
      6.5700	  760.00	  561.38	-1753.75	  443.11
      6.6700	  742.00	  561.72	-1753.75	  443.46
      6.7700	  744.00	  562.06	-1753.75	  443.80
      6.8700	  751.00	  562.40	-1753.75	  444.13
      6.9700	  661.00	  562.72	-1753.75	  444.45
      7.0700	  671.00	  563.04	-1753.75	  444.77
      7.1700	  689.00	  563.34	-1753.75	  445.07
      7.2700	  671.00	  563.64	-1753.75	  445.37
      7.3700	  659.00	  563.93	-1753.75	  445.66
      7.4700	  663.00	  564.21	-1753.75	  445.95
      7.5700	  666.00	  564.49	-1753.75	  446.22
      7.6700	  659.00	  564.76	-1753.75	  446.49
      7.7700	  665.00	  565.02	-1753.75	  446.75
      7.8700	  640.00	  565.27	-1753.75	  447.00
      7.9700	  621.00	  565.51	-1753.75	  447.24
      8.0700	  620.00	  565.75	-1753.75	  447.48
      8.1700	  600.00	  565.98	-1753.75	  447.71
      8.2700	  651.00	  566.20	-1753.75	  447.93
      8.3700	  601.00	  566.41	-1753.75	  448.14
      8.4700	  642.00	  566.62	-1753.75	  448.35
      8.5700	  675.00	  566.82	-1753.75	  448.55
      8.6700	  638.00	  567.01	-1753.75	  448.74
      8.7700	  649.00	  567.19	-1753.75	  448.92
      8.8700	  650.00	  567.37	-1753.75	  449.10
      8.9700	  628.00	  567.54	-1753.75	  449.27
      9.0700	  639.00	  567.70	-1753.75	  449.44
      9.1700	  607.00	  567.86	-1753.75	  449.59
      9.2700	  614.00	  568.01	-1753.75	  449.74
      9.3700	  618.00	  568.15	-1753.75	  449.89
      9.4700	  645.00	  568.29	-1753.75	  450.02
      9.5700	  610.00	  568.42	-1753.75	  450.15
      9.6700	  575.00	  568.54	-1753.75	  450.27
      9.7700	  597.00	  568.66	-1753.75	  450.39
      9.8700	  589.00	  568.77	-1753.75	  450.50
      9.9700	  596.00	  568.87	-1753.75	  450.60
     10.0700	  645.00	  569.87	-1678.62	  450.70
     10.1700	  619.00	  570.06	-1704.81	  450.79
     10.2700	  633.00	  570.26	-1691.01	  450.88
     10.3700	  595.00	  570.50	-1729.25	  450.95
     10.4700	  532.00	  570.80	-1792.55	  451.03
     10.5700	  562.00	  571.23	-1762.98	  451.09
     10.6700	  604.00	  571.87	-1721.62	  451.15
     10.7700	  572.00	  572.85	-1754.60	  451.21
     10.8700	  590.00	  574.23	-1737.98	  451.25
     10.9700	  570.00	  576.00	-1759.75	  451.30
     11.0700	  574.00	  578.13	-1757.88	  451.33
     11.1700	  592.00	  580.62	-1742.37	  451.36
     11.2700	  595.00	  583.51	-1742.26	  451.39
     11.3700	  576.00	  586.87	-1764.62	  451.41
     11.4700	  573.00	  590.87	-1771.62	  451.42
     11.5700	  626.00	  595.70	-1723.45	  451.43
     11.6700	  621.00	  601.76	-1734.51	  451.43
     11.7700	  660.00	  609.67	-1703.43	  451.43
     11.8700	  581.00	  620.35	-1793.10	  451.42
     11.9700	  667.00	  634.20	-1720.95	  451.41
     12.0700	  682.00	  649.27	-1721.02	  451.39
     12.1700	  659.00	  659.14	-1753.89	  451.37
     12.2700	  680.00	  654.42	-1728.17	  451.34
     12.3700	  665.00	  633.31	-1722.06	  451.31
     12.4700	  603.00	  608.57	-1759.32	  451.27
     12.5700	  597.00	  590.60	-1747.35	  451.22
     12.6700	  555.00	  580.71	-1779.46	  451.17
     12.7700	  594.00	  576.11	-1735.86	  451.12
     12.8700	  556.00	  573.99	-1771.74	  451.06
     12.9700	  562.00	  572.84	-1764.59	  451.00
     13.0700	  570.00	  572.08	-1755.83	  450.93
     13.1700	  564.00	  571.51	-1761.26	  450.86
     13.2700	  538.00	  571.06	-1786.81	  450.78
     13.3700	  569.00	  570.70	-1755.45	  450.70
     13.4700	  538.00	  570.39	-1786.14	  450.61
     13.5700	  555.00	  570.12	-1768.87	  450.52
     13.6700	  555.00	  569.88	-1768.62	  450.43
     13.7700	  526.00	  569.66	-1797.41	  450.33
     13.8700	  570.00	  569.45	-1753.20	  450.23
     13.9700	  554.00	  569.26	-1769.01	  450.12
     14.0700	  500.00	  569.08	-1822.83	  450.00
     14.1700	  571.00	  568.90	-1751.65	  449.89
     14.2700	  568.00	  568.73	-1754.48	  449.77
     14.3700	  529.00	  568.55	-1793.30	  449.64
     14.4700	  601.00	  568.39	-1721.14	  449.51
     14.5700	  549.00	  568.22	-1772.97	  449.38
     14.6700	  576.00	  568.05	-1745.80	  449.25
     14.7700	  560.00	  567.88	-1761.63	  449.11
     14.8700	  589.00	  567.71	-1732.46	  448.96
     14.9700	  540.00	  567.54	-1781.29	  448.81
     15.0700	  578.00	  567.37	-1743.12	  448.66
     15.1700	  478.00	  567.20	-1842.95	  448.51
     15.2700	  539.00	  567.02	-1781.77	  448.35
     15.3700	  618.00	  566.84	-1702.59	  448.18
     15.4700	  536.00	  566.66	-1784.41	  448.02
     15.5700	  543.00	  566.48	-1777.23	  447.85
     15.6700	  596.00	  566.30	-1724.05	  447.68
     15.7700	  538.00	  566.11	-1781.86	  447.50
     15.8700	  561.00	  565.92	-1758.67	  447.32
     15.9700	  554.00	  565.76	-1765.51	  447.14
     16.0700	  592.00	  565.56	-1727.31	  446.95
     16.1700	  483.00	  565.37	-1836.12	  446.76
     16.2700	  573.00	  565.17	-1745.92	  446.57
     16.3700	  554.00	  564.96	-1764.71	  446.37
     16.4700	  531.00	  564.76	-1787.51	  446.17
     16.5700	  541.00	  564.55	-1777.30	  445.97
     16.6700	  566.00	  564.34	-1752.09	  445.77
     16.7700	  530.00	  564.13	-1787.88	  445.56
     16.8700	  553.00	  563.92	-1764.67	  445.35
     16.9700	  572.00	  563.70	-1745.45	  445.13
     17.0700	  515.00	  563.48	-1802.23	  444.92
     17.1700	  570.00	  563.26	-1747.01	  444.70
     17.2700	  556.00	  563.03	-1760.78	  444.47
     17.3700	  539.00	  562.80	-1777.55	  444.25
     17.4700	  527.00	  562.57	-1789.32	  444.02
     17.5700	  569.00	  562.34	-1747.09	  443.79
     17.6700	  570.00	  562.11	-1745.86	  443.56
     17.7700	  571.00	  561.87	-1744.62	  443.32
     17.8700	  562.00	  561.63	-1753.38	  443.08
     17.9700	  568.00	  561.39	-1747.14	  442.84
     18.0700	  561.00	  561.15	-1753.90	  442.60
     18.1700	  566.00	  561.01	-1748.76	  442.36
     18.2700	  593.00	  560.76	-1721.51	  442.11
     18.3700	  527.00	  560.52	-1787.27	  441.86
     18.4700	  588.00	  560.27	-1726.02	  441.61
     18.5700	  580.00	  560.01	-1733.76	  441.35
     18.6700	  564.00	  559.76	-1749.51	  441.10
     18.7700	  551.00	  559.50	-1762.25	  440.84
     18.8700	  580.00	  559.25	-1733.00	  440.58
     18.9700	  597.00	  559.07	-1715.82	  440.31
     19.0700	  587.00	  558.81	-1725.56	  440.05
     19.1700	  548.00	  558.55	-1764.30	  439.78
     19.2700	  542.00	  558.28	-1770.03	  439.51
     19.3700	  564.00	  558.02	-1747.77	  439.24
     19.4700	  577.00	  557.75	-1734.50	  438.97
     19.5700	  522.00	  557.49	-1789.24	  438.69
     19.6700	  578.00	  557.22	-1732.97	  438.42
     19.7700	  565.00	  556.95	-1745.70	  438.14
     19.8700	  559.00	  556.67	-1751.42	  437.86
     19.9700	  549.00	  556.40	-1761.15	  437.58
     20.0700	  559.00	  556.13	-1750.88	  437.29
     20.1700	  565.00	  555.85	-1744.60	  437.01
     20.2700	  571.00	  555.58	-1738.33	  436.72
     20.3700	  551.00	  555.30	-1758.05	  436.43
     20.4700	  572.00	  555.02	-1736.77	  436.14
     20.5700	  544.00	  554.74	-1764.49	  435.85
     20.6700	  532.00	  554.46	-1776.21	  435.56
     20.7700	  550.00	  554.18	-1757.93	  435.27
     20.8700	  551.00	  553.90	-1756.65	  434.97
     20.9700	  568.00	  553.62	-1739.37	  434.67
     21.0700	  540.00	  553.34	-1767.09	  434.38
     21.1700	  544.00	  553.06	-1762.81	  434.08
     21.2700	  544.00	  552.78	-1762.53	  433.78
     21.3700	  562.00	  552.50	-1744.25	  433.47
     21.4700	  594.00	  552.22	-1711.97	  433.17
     21.5700	  583.00	  551.94	-1722.69	  432.87
     21.6700	  542.00	  551.66	-1763.41	  432.56
     21.7700	  569.00	  551.38	-1736.13	  432.25
     21.8700	  542.00	  551.11	-1762.86	  431.95
     21.9700	  549.00	  550.83	-1755.58	  431.64
     22.0700	  574.00	  550.56	-1730.31	  431.33
     22.1700	  532.00	  550.28	-1772.03	  431.02
     22.2700	  538.00	  550.01	-1765.76	  430.71
     22.3700	  530.00	  549.75	-1773.50	  430.39
     22.4700	  572.00	  549.49	-1731.24	  430.08
     22.5700	  590.00	  549.23	-1712.98	  429.77
     22.6700	  559.00	  548.98	-1743.73	  429.45
     22.7700	  552.00	  548.73	-1750.48	  429.13
     22.8700	  521.00	  548.49	-1781.24	  428.82
     22.9700	  535.00	  548.27	-1767.02	  428.50
     23.0700	  590.00	  548.05	-1711.80	  428.18
     23.1700	  569.00	  547.86	-1732.61	  427.86
     23.2700	  525.00	  547.68	-1776.43	  427.54
     23.3700	  532.00	  547.53	-1769.28	  427.22
     23.4700	  536.00	  547.42	-1765.17	  426.90
     23.5700	  560.00	  547.36	-1741.11	  426.58
     23.6700	  540.00	  547.50	-1761.25	  426.26
     23.7700	  509.00	  547.63	-1792.38	  425.94
     23.8700	  565.00	  548.00	-1736.75	  425.62
     23.9700	  506.00	  548.82	-1796.57	  425.29
     24.0700	  584.00	  550.51	-1720.26	  424.97
     24.1700	  585.00	  553.72	-1722.47	  424.65
     24.2700	  551.00	  559.23	-1761.98	  424.32
     24.3700	  594.00	  567.94	-1727.69	  424.00
     24.4700	  576.00	  580.71	-1758.46	  423.67
     24.5700	  571.00	  597.47	-1780.22	  423.35
     24.6700	  637.00	  615.25	-1732.00	  423.02
     24.7700	  601.00	  626.68	-1779.43	  422.70
     24.8700	  610.00	  622.52	-1766.27	  422.37
     24.9700	  582.00	  602.69	-1774.44	  422.05
     25.0700	  556.00	  579.59	-1777.34	  421.72
     25.1700	  585.00	  562.38	-1731.13	  421.39
     25.2700	  549.00	  552.51	-1757.26	  421.07
     25.3700	  580.00	  547.72	-1721.47	  420.74
     25.4700	  529.00	  545.46	-1770.21	  420.41
     25.5700	  580.00	  544.24	-1717.99	  420.09
     25.6700	  562.00	  543.44	-1735.19	  419.76
     25.7700	  558.00	  542.85	-1738.60	  419.43
     25.8700	  567.00	  542.41	-1729.16	  419.11
     25.9700	  551.00	  542.07	-1744.82	  418.78
     26.0700	  535.00	  541.83	-1760.58	  418.46
     26.1700	  532.00	  541.66	-1763.41	  418.13
     26.2700	  564.00	  541.57	-1731.32	  417.80
     26.3700	  584.00	  541.56	-1711.31	  417.48
     26.4700	  596.00	  541.64	-1699.39	  417.15
     26.5700	  544.00	  541.81	-1751.56	  416.83
     26.6700	  543.00	  542.11	-1752.86	  416.50
     26.7700	  552.00	  542.54	-1744.29	  416.18
     26.8700	  562.00	  543.15	-1734.90	  415.85
     26.9700	  558.00	  544.00	-1739.75	  415.53
     27.0700	  567.00	  545.16	-1731.91	  415.20
     27.1700	  520.00	  546.77	-1780.52	  414.88
     27.2700	  524.00	  549.11	-1778.86	  414.56
     27.3700	  616.00	  552.71	-1690.46	  414.23
     27.4700	  559.00	  558.64	-1753.39	  413.91
     27.5700	  553.00	  568.85	-1769.60	  413.59
     27.6700	  572.00	  586.37	-1768.12	  413.27
     27.7700	  589.00	  615.16	-1779.91	  412.95
     27.8700	  623.00	  658.62	-1789.37	  412.63
     27.9700	  678.00	  716.83	-1792.58	  412.31
     28.0700	  779.00	  782.80	-1757.55	  411.99
     28.1700	  934.00	  839.21	-1658.96	  411.67
     28.2700	  979.00	  860.49	-1635.24	  411.35
     28.3700	  886.00	  832.73	-1700.48	  411.03
     28.4700	  801.00	  781.14	-1733.89	  410.71
     28.5700	  732.00	  744.12	-1765.87	  410.40
     28.6700	  655.00	  738.26	-1837.01	  410.08
     28.7700	  697.00	  758.12	-1814.87	  409.77
     28.8700	  804.00	  783.09	-1732.84	  409.45
     28.9700	  845.00	  785.25	-1694.00	  409.14
     29.0700	  792.00	  748.12	-1709.87	  408.82
     29.1700	  685.00	  687.85	-1756.60	  408.51
     29.2700	  659.00	  631.49	-1726.24	  408.20
     29.3700	  642.00	  591.34	-1703.09	  407.89
     29.4700	  560.00	  567.33	-1761.08	  407.58
     29.5700	  588.00	  554.43	-1720.18	  407.27
     29.6700	  604.00	  547.61	-1697.36	  406.96
     29.7700	  582.00	  543.71	-1715.46	  406.65
     29.8700	  619.00	  541.27	-1676.02	  406.35
     29.9700	  552.00	  539.71	-1741.46	  406.04
     30.0700	  557.00	  538.93	-1735.68	  405.74
     30.1700	  544.00	  539.09	-1748.84	  405.43
     30.2700	  540.00	  540.73	-1754.48	  405.13
     30.3700	  615.00	  544.89	-1683.64	  404.83
     30.4700	  543.00	  553.11	-1763.86	  404.52
     30.5700	  537.00	  566.97	-1783.72	  404.22
     30.6700	  581.00	  586.80	-1759.55	  403.93
     30.7700	  613.00	  609.99	-1750.74	  403.63
     30.8700	  574.00	  629.76	-1809.51	  403.33
     30.9700	  626.00	  636.03	-1763.78	  403.03
     31.0700	  619.00	  622.35	-1757.10	  402.74
     31.1700	  585.00	  596.06	-1764.81	  402.44
     31.2700	  560.00	  570.15	-1763.90	  402.15
     31.3700	  525.00	  551.19	-1779.94	  401.86
     31.4700	  563.00	  539.71	-1730.46	  401.57
     31.5700	  527.00	  533.57	-1760.32	  401.28
     31.6700	  507.00	  530.40	-1777.15	  400.99
     31.7700	  556.00	  528.63	-1726.38	  400.70
     31.8700	  506.00	  527.51	-1775.26	  400.42
     31.9700	  565.00	  526.73	-1715.48	  400.13
     32.0700	  574.00	  526.18	-1705.93	  399.85
     32.1700	  532.00	  525.80	-1747.55	  399.57
     32.2700	  539.00	  525.59	-1740.34	  399.29
     32.3700	  573.00	  525.52	-1706.27	  399.01
     32.4700	  566.00	  525.61	-1713.36	  398.73
     32.5700	  525.00	  525.88	-1754.63	  398.45
     32.6700	  541.00	  526.34	-1739.09	  398.17
     32.7700	  548.00	  527.06	-1732.81	  397.90
     32.8700	  498.00	  528.10	-1783.85	  397.62
     32.9700	  560.00	  529.58	-1723.33	  397.35
     33.0700	  554.00	  531.73	-1731.48	  397.08
     33.1700	  540.00	  535.05	-1748.80	  396.81
     33.2700	  547.00	  540.64	-1747.39	  396.54
     33.3700	  540.00	  550.88	-1764.63	  396.28
     33.4700	  530.00	  570.26	-1794.01	  396.01
     33.5700	  598.00	  605.76	-1761.51	  395.75
     33.6700	  677.00	  665.12	-1741.87	  395.48
     33.7700	  788.00	  751.22	-1716.97	  395.22
     33.8700	  883.00	  853.97	-1724.72	  394.96
     33.9700	 1043.00	  945.15	-1655.90	  394.71
     34.0700	  997.00	  982.57	-1739.32	  394.45
     34.1700	  990.00	  937.08	-1700.83	  394.19
     34.2700	  916.00	  832.73	-1670.48	  393.94
     34.3700	  745.00	  722.35	-1731.10	  393.69
     34.4700	  651.00	  637.40	-1740.15	  393.43
     34.5700	  544.00	  583.96	-1793.71	  393.18
     34.6700	  564.00	  554.89	-1744.64	  392.94
     34.7700	  556.00	  540.16	-1737.91	  392.69
     34.8700	  534.00	  532.40	-1752.15	  392.45
     34.9700	  515.00	  527.73	-1766.48	  392.20
     35.0700	  579.00	  524.52	-1699.27	  391.96
     35.1700	  512.00	  522.07	-1763.82	  391.72
     35.2700	  498.00	  520.14	-1775.89	  391.48
     35.3700	  506.00	  518.56	-1766.31	  391.24
     35.4700	  529.00	  517.25	-1742.00	  391.01
     35.5700	  548.00	  516.14	-1721.89	  390.77
     35.6700	  525.00	  515.19	-1743.94	  390.54
     35.7700	  539.00	  514.36	-1729.11	  390.31
     35.8700	  547.00	  513.63	-1720.38	  390.08
     35.9700	  464.00	  512.98	-1802.73	  389.85
     36.0700	  488.00	  512.40	-1778.15	  389.63
     36.1700	  506.00	  512.35	-1760.10	  389.40
     36.2700	  535.00	  511.88	-1730.63	  389.18
     36.3700	  536.00	  511.46	-1729.21	  388.96
     36.4700	  470.00	  511.07	-1794.82	  388.74
     36.5700	  511.00	  510.73	-1753.48	  388.52
     36.6700	  513.00	  510.43	-1751.18	  388.30
     36.7700	  509.00	  510.17	-1754.92	  388.09
     36.8700	  521.00	  510.00	-1742.75	  387.88
     36.9700	  512.00	  509.95	-1751.70	  387.66
     37.0700	  545.00	  510.15	-1718.90	  387.45
     37.1700	  519.00	  510.84	-1745.59	  387.25
     37.2700	  495.00	  512.33	-1771.08	  387.04
     37.3700	  511.00	  514.92	-1757.67	  386.84
     37.4700	  533.00	  518.55	-1739.30	  386.63
     37.5700	  517.00	  522.61	-1759.36	  386.43
     37.6700	  544.00	  525.80	-1735.55	  386.23
     37.7700	  547.00	  526.72	-1733.47	  386.04
     37.8700	  532.00	  525.10	-1746.85	  385.84
     37.9700	  508.00	  522.07	-1767.82	  385.65
     38.0700	  501.00	  518.62	-1771.37	  385.45
     38.1700	  491.00	  515.10	-1777.85	  385.26
     38.2700	  473.00	  511.94	-1792.69	  385.07
     38.3700	  531.00	  509.46	-1732.21	  384.89
     38.4700	  554.00	  507.72	-1707.47	  384.70
     38.5700	  510.00	  506.58	-1750.33	  384.52
     38.6700	  505.00	  505.76	-1754.51	  384.34
     38.7700	  507.00	  505.28	-1752.03	  384.16
     38.8700	  525.00	  504.94	-1733.69	  383.98
     38.9700	  531.00	  504.66	-1727.41	  383.80
     39.0700	  486.00	  504.41	-1772.16	  383.63
     39.1700	  501.00	  504.12	-1756.87	  383.45
     39.2700	  461.00	  503.92	-1796.67	  383.28
     39.3700	  563.00	  503.86	-1694.61	  383.11
     39.4700	  463.00	  503.69	-1794.44	  382.95
     39.5700	  495.00	  503.53	-1762.28	  382.78
     39.6700	  489.00	  503.38	-1768.13	  382.62
     39.7700	  518.00	  503.24	-1738.99	  382.46
     39.8700	  500.00	  503.11	-1756.86	  382.30
     39.9700	  516.00	  502.99	-1740.74	  382.14
     40.0700	  461.00	  502.88	-1795.63	  381.98
     40.1700	  493.00	  502.78	-1763.53	  381.83
     40.2700	  514.00	  502.69	-1742.44	  381.67
     40.3700	  493.00	  502.62	-1763.37	  381.52
     40.4700	  508.00	  502.56	-1748.31	  381.37
     40.5700	  502.00	  502.51	-1754.26	  381.23
     40.6700	  463.00	  502.49	-1793.24	  381.08
     40.7700	  488.00	  502.48	-1768.23	  380.94
     40.8700	  468.00	  502.50	-1788.25	  380.80
     40.9700	  493.00	  502.55	-1763.30	  380.66
     41.0700	  519.00	  502.63	-1737.38	  380.52
     41.1700	  490.00	  502.76	-1766.51	  380.38
     41.2700	  518.00	  502.90	-1738.65	  380.25
     41.3700	  504.00	  503.15	-1752.90	  380.11
     41.4700	  504.00	  503.50	-1753.25	  379.98
     41.5700	  506.00	  504.40	-1752.15	  379.86
     41.6700	  492.00	  505.07	-1766.82	  379.73
     41.7700	  494.00	  506.08	-1765.83	  379.60
     41.8700	  505.00	  507.77	-1756.52	  379.48
     41.9700	  473.00	  510.90	-1791.65	  379.36
     42.0700	  490.00	  516.88	-1780.63	  379.24
     42.1700	  523.00	  527.89	-1758.64	  379.12
     42.2700	  504.00	  546.33	-1796.08	  379.01
     42.3700	  542.00	  573.40	-1785.15	  378.89
     42.4700	  568.00	  606.90	-1792.65	  378.78
     42.5700	  578.00	  639.26	-1815.01	  378.67
     42.6700	  608.00	  658.70	-1804.45	  378.56
     42.7700	  629.00	  654.91	-1779.66	  378.45
     42.8700	  603.00	  629.31	-1780.06	  378.35
     42.9700	  537.00	  594.31	-1811.06	  378.25
     43.0700	  541.00	  561.78	-1774.53	  378.14
     43.1700	  529.00	  537.43	-1762.18	  378.05
     43.2700	  504.00	  521.89	-1771.64	  377.95
     43.3700	  487.00	  513.14	-1779.89	  377.85
     43.4700	  522.00	  508.56	-1740.31	  377.76
     43.5700	  497.00	  506.15	-1762.90	  377.67
     43.6700	  521.00	  504.77	-1737.52	  377.58
     43.7700	  453.00	  504.04	-1804.79	  377.49
     43.8700	  497.00	  503.43	-1760.18	  377.40
     43.9700	  514.00	  502.93	-1742.68	  377.32
     44.0700	  478.00	  502.55	-1778.30	  377.24
     44.1700	  525.00	  502.25	-1731.00	  377.16
     44.2700	  490.00	  502.02	-1765.77	  377.08
     44.3700	  523.00	  501.84	-1732.59	  377.00
     44.4700	  458.00	  501.70	-1797.45	  376.92
     44.5700	  514.00	  501.61	-1741.36	  376.85
     44.6700	  485.00	  501.42	-1770.17	  376.78
     44.7700	  511.00	  501.39	-1744.14	  376.71
     44.8700	  511.00	  501.38	-1744.13	  376.64
     44.9700	  502.00	  501.40	-1753.15	  376.58
     45.0700	  526.00	  501.45	-1729.20	  376.51
     45.1700	  479.00	  501.51	-1776.26	  376.45
     45.2700	  531.00	  501.78	-1724.53	  376.39
     45.3700	  546.00	  501.90	-1709.65	  376.33
     45.4700	  477.00	  502.04	-1778.79	  376.27
     45.5700	  542.00	  502.20	-1713.95	  376.22
     45.6700	  500.00	  502.38	-1756.13	  376.16
     45.7700	  480.00	  502.60	-1776.35	  376.11
     45.8700	  509.00	  502.84	-1747.59	  376.06
     45.9700	  515.00	  503.12	-1741.87	  376.01
     46.0700	  526.00	  503.43	-1731.18	  375.97
     46.1700	  525.00	  503.78	-1732.53	  375.92
     46.2700	  517.00	  504.18	-1740.93	  375.88
     46.3700	  525.00	  504.63	-1733.38	  375.84
     46.4700	  508.00	  505.15	-1750.90	  375.80
     46.5700	  510.00	  505.74	-1749.49	  375.76
     46.6700	  533.00	  506.43	-1727.18	  375.73
     46.7700	  521.00	  507.24	-1739.99	  375.69
     46.8700	  519.00	  508.24	-1742.99	  375.66
     46.9700	  529.00	  509.59	-1734.34	  375.63
     47.0700	  463.00	  511.58	-1802.33	  375.60
     47.1700	  549.00	  514.91	-1719.66	  375.57
     47.2700	  499.00	  520.39	-1775.14	  375.55
     47.3700	  555.00	  529.36	-1728.11	  375.53
     47.4700	  547.00	  542.93	-1749.68	  375.50
     47.5700	  577.00	  561.14	-1737.89	  375.48
     47.6700	  562.00	  582.04	-1773.79	  375.47
     47.7700	  573.00	  601.12	-1781.87	  375.45
     47.8700	  560.00	  612.09	-1805.84	  375.43
     47.9700	  625.00	  610.33	-1739.08	  375.42
     48.0700	  559.00	  597.37	-1792.12	  375.41
     48.1700	  543.00	  579.49	-1790.24	  375.40
     48.2700	  574.00	  562.70	-1742.45	  375.39
     48.3700	  592.00	  550.27	-1712.02	  375.39
     48.4700	  517.00	  543.09	-1779.84	  375.38
     48.5700	  518.00	  540.51	-1776.26	  375.38
     48.6700	  503.00	  541.37	-1792.12	  375.38
     48.7700	  555.00	  544.68	-1743.43	  375.38
     48.8700	  553.00	  549.93	-1750.68	  375.38
     48.9700	  514.00	  557.14	-1796.89	  375.38
     49.0700	  557.00	  566.97	-1763.72	  375.39
     49.1700	  594.00	  581.03	-1740.78	  375.39
     49.2700	  581.00	  602.83	-1775.58	  375.40
     49.3700	  669.00	  639.09	-1723.84	  375.41
     49.4700	  704.00	  701.56	-1751.31	  375.42
     49.5700	  739.00	  806.12	-1820.87	  375.44
     49.6700	  892.00	  971.95	-1833.70	  375.45
     49.7700	 1094.00	 1213.11	-1872.86	  375.47
     49.8700	 1460.00	 1527.46	-1821.21	  375.49
     49.9700	 1870.00	 1884.47	-1768.22	  375.51
     50.0700	 2256.00	 2216.12	-1713.87	  375.53
     50.1700	 2542.00	 2422.78	-1634.53	  375.55
     50.2700	 2478.00	 2418.28	-1694.03	  375.57
     50.3700	 2319.00	 2202.58	-1637.33	  375.60
     50.4700	 1847.00	 1865.87	-1772.62	  375.63
     50.5700	 1409.00	 1511.19	-1855.94	  375.66
     50.6700	  998.00	 1205.61	-1961.36	  375.69
     50.7700	  847.00	  977.30	-1884.05	  375.72
     50.8700	  718.00	  826.16	-1861.91	  375.75
     50.9700	  660.00	  735.65	-1829.40	  375.79
     51.0700	  653.00	  684.02	-1784.77	  375.82
     51.1700	  591.00	  652.20	-1814.95	  375.86
     51.2700	  589.00	  628.09	-1792.84	  375.90
     51.3700	  594.00	  607.04	-1766.79	  375.94
     51.4700	  600.00	  588.65	-1742.40	  375.99
     51.5700	  574.00	  573.56	-1753.31	  376.03
     51.6700	  573.00	  562.11	-1742.86	  376.07
     51.7700	  544.00	  554.03	-1763.78	  376.12
     51.8700	  532.00	  548.63	-1770.38	  376.17
     51.9700	  585.00	  545.16	-1713.91	  376.22
     52.0700	  587.00	  543.02	-1709.77	  376.27
     52.1700	  536.00	  542.13	-1759.88	  376.32
     52.2700	  590.00	  541.96	-1705.71	  376.38
     52.3700	  536.00	  542.88	-1760.63	  376.43
     52.4700	  559.00	  545.40	-1740.15	  376.49
     52.5700	  563.00	  550.65	-1741.40	  376.55
     52.6700	  621.00	  560.96	-1693.71	  376.61
     52.7700	  580.00	  580.47	-1754.22	  376.67
     52.8700	  655.00	  615.33	-1714.08	  376.73
     52.9700	  734.00	  672.84	-1692.59	  376.79
     53.0700	  848.00	  758.70	-1664.45	  376.86
     53.1700	  965.00	  872.67	-1661.42	  376.93
     53.2700	 1029.00	 1004.10	-1728.85	  376.99
     53.3700	 1155.00	 1129.09	-1727.84	  377.06
     53.4700	 1133.00	 1212.81	-1833.56	  377.13
     53.5700	 1140.00	 1223.22	-1836.97	  377.20
     53.6700	 1075.00	 1155.26	-1834.01	  377.28
     53.7700	 1011.00	 1036.39	-1779.14	  377.35
     53.8700	  863.00	  903.55	-1794.30	  377.43
     53.9700	  748.00	  784.03	-1789.78	  377.50
     54.0700	  690.00	  691.46	-1755.21	  377.58
     54.1700	  599.00	  628.11	-1782.86	  377.66
     54.2700	  580.00	  589.14	-1762.89	  377.74
     54.3700	  558.00	  567.23	-1762.98	  377.82
     54.4700	  591.00	  555.72	-1718.47	  377.91
     54.5700	  564.00	  549.95	-1739.70	  377.99
     54.6700	  574.00	  547.18	-1726.93	  378.08
     54.7700	  580.00	  546.14	-1719.89	  378.16
     54.8700	  569.00	  546.16	-1730.91	  378.25
     54.9700	  549.00	  547.02	-1751.77	  378.34
     55.0700	  557.00	  548.63	-1745.38	  378.43
     55.1700	  555.00	  551.03	-1749.78	  378.52
     55.2700	  533.00	  554.23	-1774.98	  378.61
     55.3700	  580.00	  558.39	-1732.14	  378.70
     55.4700	  588.00	  563.72	-1729.47	  378.80
     55.5700	  589.00	  570.63	-1735.38	  378.89
     55.6700	  576.00	  579.97	-1757.72	  378.99
     55.7700	  532.00	  593.46	-1815.21	  379.09
     55.8700	  604.00	  614.52	-1764.27	  379.19
     55.9700	  595.00	  649.55	-1808.30	  379.29
     56.0700	  652.00	  709.15	-1810.90	  379.39
     56.1700	  738.00	  808.57	-1824.32	  379.49
     56.2700	  918.00	  965.74	-1801.49	  379.59
     56.3700	 1180.00	 1195.95	-1769.70	  379.70
     56.4700	 1405.00	 1503.15	-1851.90	  379.80
     56.5700	 1836.00	 1870.13	-1787.88	  379.91
     56.6700	 2182.00	 2251.05	-1822.80	  380.02
     56.7700	 2558.00	 2569.23	-1764.98	  380.12
     56.8700	 2673.00	 2732.33	-1813.08	  380.23
     56.9700	 2581.00	 2679.58	-1852.33	  380.34
     57.0700	 2453.00	 2431.42	-1732.17	  380.46
     57.1700	 2072.00	 2072.48	-1754.23	  380.57
     57.2700	 1701.00	 1692.49	-1745.24	  380.68
     57.3700	 1327.00	 1353.65	-1780.40	  380.79
     57.4700	 1045.00	 1087.10	-1795.85	  380.91
     57.5700	  893.00	  898.70	-1759.45	  381.02
     57.6700	  770.00	  777.99	-1761.74	  381.14
     57.7700	  714.00	  708.23	-1747.98	  381.26
     57.8700	  669.00	  673.66	-1758.41	  381.38
     57.9700	  687.00	  663.24	-1729.99	  381.50
     58.0700	  688.00	  671.16	-1736.91	  381.62
     58.1700	  715.00	  695.57	-1734.32	  381.74
     58.2700	  797.00	  736.60	-1693.34	  381.86
     58.3700	  818.00	  794.50	-1730.25	  381.98
     58.4700	  947.00	  867.91	-1674.66	  382.10
     58.5700	 1024.00	  952.30	-1682.05	  382.23
     58.6700	 1179.00	 1039.44	-1614.19	  382.35
     58.7700	 1253.00	 1119.76	-1620.51	  382.48
     58.8700	 1393.00	 1186.63	-1547.38	  382.61
     58.9700	 1467.00	 1236.29	-1523.04	  382.73
     59.0700	 1467.00	 1263.56	-1550.31	  382.86
     59.1700	 1472.00	 1263.86	-1545.61	  382.99
     59.2700	 1410.00	 1240.94	-1584.69	  383.12
     59.3700	 1376.00	 1207.10	-1584.85	  383.25
     59.4700	 1318.00	 1174.89	-1610.64	  383.38
     59.5700	 1154.00	 1152.81	-1752.56	  383.51
     59.6700	 1134.00	 1148.41	-1768.16	  383.64
     59.7700	 1189.00	 1170.53	-1735.28	  383.78
     59.8700	 1263.00	 1224.69	-1715.44	  383.91
     59.9700	 1298.00	 1306.82	-1762.57	  384.04
     60.0700	 1507.00	 1400.25	-1647.00	  384.18
     60.1700	 1534.00	 1476.58	-1696.33	  384.31
     60.2700	 1579.00	 1502.95	-1677.70	  384.45
     60.3700	 1529.00	 1459.27	-1684.02	  384.59
     60.4700	 1439.00	 1352.70	-1667.45	  384.72
     60.5700	 1263.00	 1210.37	-1701.12	  384.86
     60.6700	 1108.00	 1061.19	-1706.94	  385.00
     60.7700	  942.00	  926.20	-1737.95	  385.14
     60.8700	  776.00	  817.19	-1794.94	  385.28
     60.9700	  693.00	  738.11	-1798.86	  385.42
     61.0700	  649.00	  687.71	-1792.46	  385.56
     61.1700	  631.00	  662.64	-1785.39	  385.70
     61.2700	  607.00	  660.22	-1806.97	  385.84
     61.3700	  623.00	  680.11	-1810.86	  385.98
     61.4700	  774.00	  724.47	-1704.22	  386.12
     61.5700	  813.00	  796.60	-1737.35	  386.27
     61.6700	  876.00	  898.48	-1776.23	  386.41
     61.7700	  946.00	 1027.68	-1835.43	  386.55
     61.8700	 1164.00	 1174.65	-1764.40	  386.70
     61.9700	 1258.00	 1321.04	-1816.79	  386.84
     62.0700	 1425.00	 1439.66	-1768.41	  386.99
     62.1700	 1461.00	 1499.92	-1792.67	  387.13
     62.2700	 1350.00	 1482.11	-1885.86	  387.28
     62.3700	 1324.00	 1391.68	-1821.43	  387.42
     62.4700	 1176.00	 1255.00	-1832.75	  387.57
     62.5700	  993.00	 1102.55	-1863.30	  387.72
     62.6700	  910.00	  957.97	-1801.72	  387.87
     62.7700	  731.00	  835.57	-1858.32	  388.01
     62.8700	  709.00	  741.18	-1785.93	  388.16
     62.9700	  627.00	  674.07	-1800.82	  388.31
     63.0700	  598.00	  629.69	-1785.44	  388.46
     63.1700	  614.00	  602.14	-1741.89	  388.60
     63.2700	  603.00	  586.04	-1736.79	  388.75
     63.3700	  545.00	  577.41	-1786.16	  388.90
     63.4700	  598.00	  573.91	-1729.66	  389.05
     63.5700	  578.00	  574.72	-1750.47	  389.20
     63.6700	  583.00	  580.26	-1751.01	  389.35
     63.7700	  662.00	  591.96	-1683.71	  389.50
     63.8700	  633.00	  611.88	-1732.63	  389.65
     63.9700	  719.00	  642.21	-1676.96	  389.80
     64.0700	  739.00	  684.44	-1699.19	  389.95
     64.1700	  808.00	  738.34	-1684.09	  390.10
     64.2700	  807.00	  801.11	-1747.86	  390.25
     64.3700	  852.00	  866.66	-1768.41	  390.40
     64.4700	  986.00	  925.16	-1692.91	  390.55
     64.5700	  998.00	  966.38	-1722.13	  390.71
     64.6700	  993.00	  981.15	-1741.90	  390.86
     64.7700	 1002.00	  967.47	-1719.22	  391.01
     64.8700	  966.00	  930.01	-1717.76	  391.16
     64.9700	  933.00	  877.62	-1698.37	  391.31
     65.0700	  859.00	  820.06	-1714.81	  391.46
     65.1700	  704.00	  765.24	-1814.99	  391.61
     65.2700	  721.00	  717.71	-1750.46	  391.76
     65.3700	  704.00	  678.78	-1728.53	  391.92
     65.4700	  660.00	  647.76	-1741.51	  392.07
     65.5700	  612.00	  623.40	-1765.15	  392.22
     65.6700	  619.00	  604.58	-1739.33	  392.37
     65.7700	  624.00	  590.37	-1720.12	  392.52
     65.8700	  534.00	  580.02	-1799.77	  392.67
     65.9700	  607.00	  572.88	-1719.63	  392.82
     66.0700	  512.00	  568.43	-1810.18	  392.98
     66.1700	  520.00	  566.22	-1799.97	  393.13
     66.2700	  581.00	  565.84	-1738.59	  393.28
     66.3700	  544.00	  566.99	-1776.74	  393.43
     66.4700	  599.00	  569.54	-1724.29	  393.58
     66.5700	  554.00	  573.62	-1773.37	  393.73
     66.6700	  572.00	  579.45	-1761.20	  393.88
     66.7700	  545.00	  588.04	-1796.79	  394.03
     66.8700	  581.00	  601.20	-1773.95	  394.18
     66.9700	  573.00	  622.00	-1802.75	  394.33
     67.0700	  684.00	  655.31	-1725.06	  394.48
     67.1700	  704.00	  708.06	-1757.81	  394.63
     67.2700	  793.00	  788.94	-1749.69	  394.78
     67.3700	  930.00	  907.30	-1731.05	  394.93
     67.4700	 1053.00	 1070.66	-1771.41	  395.08
     67.5700	 1298.00	 1281.71	-1737.46	  395.23
     67.6700	 1575.00	 1534.27	-1713.02	  395.37
     67.7700	 1748.00	 1811.15	-1816.90	  395.52
     67.8700	 2061.00	 2082.39	-1775.14	  395.67
     67.9700	 2360.00	 2306.63	-1700.38	  395.82
     68.0700	 2539.00	 2437.53	-1652.28	  395.96
     68.1700	 2494.00	 2441.41	-1701.16	  396.11
     68.2700	 2266.00	 2317.20	-1804.95	  396.26
     68.3700	 2175.00	 2097.25	-1676.00	  396.40
     68.4700	 1907.00	 1827.63	-1674.38	  396.55
     68.5700	 1583.00	 1550.48	-1721.23	  396.70
     68.6700	 1202.00	 1296.44	-1848.19	  396.84
     68.7700	 1038.00	 1083.52	-1799.27	  396.99
     68.8700	  915.00	  918.04	-1756.79	  397.13
     68.9700	  784.00	  797.92	-1767.67	  397.27
     69.0700	  707.00	  715.74	-1762.49	  397.42
     69.1700	  640.00	  662.23	-1775.98	  397.56
     69.2700	  640.00	  628.58	-1742.33	  397.70
     69.3700	  628.00	  607.76	-1733.51	  397.84
     69.4700	  601.00	  594.78	-1747.53	  397.99
     69.5700	  571.00	  586.46	-1769.21	  398.13
     69.6700	  594.00	  580.90	-1740.65	  398.27
     69.7700	  576.00	  577.08	-1754.83	  398.41
     69.8700	  609.00	  574.43	-1719.18	  398.55
     69.9700	  588.00	  572.69	-1738.44	  398.69
     70.0700	  580.00	  571.71	-1745.46	  398.83
     70.1700	  572.00	  571.48	-1753.23	  398.96
     70.2700	  564.00	  571.97	-1761.72	  399.10
     70.3700	  552.00	  573.30	-1775.05	  399.24
     70.4700	  567.00	  575.73	-1762.48	  399.37
     70.5700	  568.00	  579.74	-1765.49	  399.51
     70.6700	  560.00	  586.23	-1779.98	  399.65
     70.7700	  572.00	  596.73	-1778.48	  399.78
     70.8700	  603.00	  613.71	-1764.46	  399.91
     70.9700	  637.00	  640.75	-1757.50	  400.05
     71.0700	  680.00	  682.66	-1756.41	  400.18
     71.1700	  694.00	  745.10	-1804.85	  400.31
     71.2700	  804.00	  833.74	-1783.49	  400.44
     71.3700	  984.00	  952.84	-1722.59	  400.57
     71.4700	 1041.00	 1103.27	-1816.02	  400.70
     71.5700	 1215.00	 1280.69	-1819.44	  400.83
     71.6700	 1368.00	 1474.86	-1860.61	  400.96
     71.7700	 1631.00	 1665.94	-1788.69	  401.09
     71.8700	 1816.00	 1829.83	-1767.58	  401.22
     71.9700	 1902.00	 1938.07	-1789.82	  401.34
     72.0700	 1904.00	 1967.30	-1817.05	  401.47
     72.1700	 1967.00	 1910.56	-1697.31	  401.59
     72.2700	 1799.00	 1781.53	-1736.28	  401.72
     72.3700	 1616.00	 1606.56	-1744.31	  401.84
     72.4700	 1438.00	 1413.04	-1728.79	  401.96
     72.5700	 1337.00	 1224.54	-1641.29	  402.08
     72.6700	 1160.00	 1056.24	-1649.99	  402.21
     72.7700	 1000.00	  916.50	-1670.25	  402.33
     72.8700	  856.00	  807.53	-1705.28	  402.44
     72.9700	  864.00	  727.12	-1616.87	  402.56
     73.0700	  716.00	  670.48	-1708.23	  402.68
     73.1700	  770.00	  632.03	-1615.78	  402.80
     73.2700	  667.00	  606.54	-1693.29	  402.91
     73.3700	  676.00	  589.77	-1667.52	  403.03
     73.4700	  641.00	  578.67	-1691.42	  403.14
     73.5700	  585.00	  571.19	-1739.94	  403.25
     73.6700	  580.00	  566.07	-1739.82	  403.37
     73.7700	  575.00	  562.56	-1741.31	  403.48
     73.8700	  571.00	  560.24	-1742.99	  403.59
     73.9700	  583.00	  558.86	-1729.61	  403.70
     74.0700	  594.00	  558.23	-1717.98	  403.81
     74.1700	  641.00	  558.17	-1670.92	  403.91
     74.2700	  622.00	  558.50	-1690.25	  404.02
     74.3700	  582.00	  559.00	-1730.75	  404.13
     74.4700	  629.00	  559.40	-1684.15	  404.23
     74.5700	  617.00	  559.44	-1696.19	  404.33
     74.6700	  682.00	  558.93	-1630.68	  404.44
     74.7700	  631.00	  557.82	-1680.57	  404.54
     74.8700	  614.00	  556.26	-1696.01	  404.64
     74.9700	  587.00	  554.50	-1721.25	  404.74
     75.0700	  551.00	  552.86	-1755.61	  404.83
     75.1700	  612.00	  551.62	-1693.37	  404.93
     75.2700	  592.00	  551.22	-1712.97	  405.03
     75.3700	  582.00	  552.01	-1723.76	  405.12
     75.4700	  584.00	  554.40	-1724.15	  405.22
     75.5700	  522.00	  558.88	-1790.63	  405.31
     75.6700	  609.00	  566.13	-1710.88	  405.40
     75.7700	  552.00	  576.56	-1778.31	  405.49
     75.8700	  619.00	  590.46	-1725.21	  405.58
     75.9700	  597.00	  607.79	-1764.54	  405.67
     76.0700	  687.00	  628.00	-1694.75	  405.76
     76.1700	  654.00	  649.95	-1749.70	  405.84
     76.2700	  686.00	  671.80	-1739.55	  405.93
     76.3700	  703.00	  691.16	-1741.91	  406.01
     76.4700	  750.00	  705.23	-1708.98	  406.09
     76.5700	  730.00	  711.49	-1735.24	  406.18
     76.6700	  720.00	  708.64	-1742.39	  406.26
     76.7700	  743.00	  697.24	-1707.99	  406.34
     76.8700	  609.00	  679.45	-1824.20	  406.41
     76.9700	  627.00	  657.85	-1784.60	  406.49
     77.0700	  603.00	  635.41	-1786.16	  406.56
     77.1700	  567.00	  614.00	-1800.75	  406.64
     77.2700	  537.00	  595.03	-1811.78	  406.71
     77.3700	  530.00	  579.26	-1803.01	  406.78
     77.4700	  558.00	  566.86	-1762.61	  406.85
     77.5700	  518.00	  557.61	-1793.36	  406.92
     77.6700	  563.00	  551.02	-1741.77	  406.99
     77.7700	  528.00	  546.51	-1772.26	  407.06
     77.8700	  554.00	  543.53	-1743.28	  407.12
     77.9700	  519.00	  541.60	-1776.35	  407.19
     78.0700	  528.00	  540.37	-1766.12	  407.25
     78.1700	  503.00	  539.58	-1790.33	  407.31
     78.2700	  489.00	  539.08	-1803.83	  407.37
     78.3700	  497.00	  538.77	-1795.52	  407.43
     78.4700	  512.00	  538.59	-1780.34	  407.49
     78.5700	  560.00	  538.52	-1732.27	  407.54
     78.6700	  560.00	  538.55	-1732.30	  407.60
     78.7700	  492.00	  538.69	-1800.44	  407.65
     78.8700	  496.00	  538.97	-1796.72	  407.70
     78.9700	  522.00	  539.40	-1771.15	  407.75
     79.0700	  525.00	  540.05	-1768.80	  407.80
     79.1700	  537.00	  540.94	-1757.69	  407.85
     79.2700	  537.00	  542.15	-1758.90	  407.90
     79.3700	  541.00	  543.53	-1756.28	  407.94
     79.4700	  535.00	  545.51	-1764.26	  407.98
     79.5700	  514.00	  547.97	-1787.72	  408.03
     79.6700	  529.00	  550.97	-1775.72	  408.07
     79.7700	  565.00	  554.60	-1743.35	  408.11
     79.8700	  556.00	  558.97	-1756.72	  408.14
     79.9700	  540.00	  564.26	-1778.01	  408.18
     80.0700	  576.00	  570.67	-1748.42	  408.22
     80.1700	  553.00	  578.51	-1779.26	  408.25
     80.2700	  605.00	  588.13	-1736.88	  408.28
     80.3700	  597.00	  599.84	-1756.59	  408.31
     80.4700	  591.00	  613.80	-1776.55	  408.34
     80.5700	  571.00	  629.93	-1812.68	  408.37
     80.6700	  616.00	  647.79	-1785.54	  408.40
     80.7700	  654.00	  666.56	-1766.31	  408.42
     80.8700	  657.00	  685.06	-1781.81	  408.44
     80.9700	  653.00	  701.91	-1802.66	  408.47
     81.0700	  709.00	  715.76	-1760.51	  408.49
     81.1700	  703.00	  725.50	-1776.25	  408.50
     81.2700	  780.00	  730.34	-1704.09	  408.52
     81.3700	  772.00	  729.90	-1711.65	  408.54
     81.4700	  729.00	  724.28	-1749.03	  408.55
     81.5700	  783.00	  714.07	-1684.82	  408.56
     81.6700	  787.00	  700.14	-1666.89	  408.57
     81.7700	  745.00	  683.53	-1692.28	  408.58
     81.8700	  727.00	  665.33	-1692.08	  408.59
     81.9700	  709.00	  646.73	-1691.48	  408.60
     82.0700	  644.00	  628.77	-1738.52	  408.60
     82.1700	  662.00	  612.20	-1703.95	  408.61
     82.2700	  622.00	  597.65	-1729.40	  408.61
     82.3700	  612.00	  585.29	-1727.04	  408.61
     82.4700	  607.00	  575.18	-1721.93	  408.61
     82.5700	  580.00	  567.23	-1740.98	  408.61
     82.6700	  550.00	  561.30	-1765.05	  408.60
     82.7700	  577.00	  557.27	-1734.02	  408.59
     82.8700	  584.00	  554.95	-1724.70	  408.59
     82.9700	  526.00	  554.22	-1781.97	  408.58
     83.0700	  539.00	  554.96	-1769.71	  408.57
     83.1700	  572.00	  557.07	-1738.82	  408.55
     83.2700	  563.00	  560.43	-1751.18	  408.54
     83.3700	  533.00	  564.87	-1785.62	  408.53
     83.4700	  502.00	  570.14	-1821.89	  408.51
     83.5700	  575.00	  575.90	-1754.65	  408.49
     83.6700	  558.00	  581.69	-1777.44	  408.47
     83.7700	  532.00	  586.97	-1808.72	  408.45
     83.8700	  640.00	  591.11	-1704.86	  408.42
     83.9700	  573.00	  593.54	-1774.29	  408.40
     84.0700	  583.00	  593.83	-1764.58	  408.37
     84.1700	  579.00	  591.90	-1766.65	  408.34
     84.2700	  548.00	  588.03	-1793.78	  408.31
     84.3700	  584.00	  582.74	-1752.49	  408.28
     84.4700	  581.00	  576.63	-1749.38	  408.25
     84.5700	  535.00	  570.25	-1789.00	  408.21
     84.6700	  585.00	  564.06	-1732.81	  408.17
     84.7700	  531.00	  558.40	-1781.15	  408.14
     84.8700	  548.00	  553.48	-1759.23	  408.10
     84.9700	  490.00	  549.41	-1813.16	  408.05
     85.0700	  503.00	  546.21	-1796.96	  408.01
     85.1700	  564.00	  543.81	-1733.56	  407.97
     85.2700	  541.00	  542.12	-1754.87	  407.92
     85.3700	  499.00	  541.05	-1795.80	  407.87
     85.4700	  528.00	  540.48	-1766.23	  407.82
     85.5700	  572.00	  540.33	-1722.08	  407.77
     85.6700	  555.00	  540.55	-1739.30	  407.72
     85.7700	  545.00	  541.12	-1749.87	  407.66
     85.8700	  555.00	  542.04	-1740.79	  407.60
     85.9700	  534.00	  543.37	-1763.12	  407.55
     86.0700	  560.00	  545.18	-1738.93	  407.49
     86.1700	  510.00	  547.60	-1791.35	  407.42
     86.2700	  556.00	  550.75	-1748.50	  407.36
     86.3700	  516.00	  554.79	-1792.54	  407.30
     86.4700	  553.00	  559.88	-1760.63	  407.23
     86.5700	  563.00	  566.12	-1756.87	  407.16
     86.6700	  590.00	  573.57	-1737.32	  407.09
     86.7700	  583.00	  582.14	-1752.89	  407.02
     86.8700	  623.00	  591.29	-1722.04	  406.95
     86.9700	  624.00	  601.23	-1730.98	  406.87
     87.0700	  623.00	  611.06	-1741.81	  406.79
     87.1700	  653.00	  620.04	-1720.79	  406.72
     87.2700	  608.00	  627.33	-1773.08	  406.64
     87.3700	  666.00	  632.10	-1719.85	  406.55
     87.4700	  637.00	  633.71	-1750.46	  406.47
     87.5700	  627.00	  631.95	-1758.70	  406.39
     87.6700	  682.00	  627.10	-1698.85	  406.30
     87.7700	  648.00	  619.84	-1725.59	  406.21
     87.8700	  687.00	  611.09	-1677.84	  406.12
     87.9700	  643.00	  601.78	-1712.53	  406.03
     88.0700	  611.00	  592.79	-1735.54	  405.94
     88.1700	  623.00	  584.81	-1715.56	  405.84
     88.2700	  585.00	  578.39	-1747.14	  405.74
     88.3700	  551.00	  573.91	-1776.66	  405.65
     88.4700	  541.00	  571.53	-1784.28	  405.55
     88.5700	  613.00	  571.27	-1712.02	  405.44
     88.6700	  587.00	  572.96	-1739.71	  405.34
     88.7700	  599.00	  576.29	-1731.04	  405.24
     88.8700	  549.00	  580.87	-1785.62	  405.13
     88.9700	  558.00	  586.17	-1781.92	  405.02
     89.0700	  583.00	  591.62	-1762.37	  404.91
     89.1700	  613.00	  596.58	-1737.33	  404.80
     89.2700	  603.00	  600.42	-1751.17	  404.69
     89.3700	  578.00	  602.58	-1778.33	  404.57
     89.4700	  597.00	  602.70	-1759.45	  404.46
     89.5700	  622.00	  600.70	-1732.45	  404.34
     89.6700	  599.00	  596.81	-1751.56	  404.22
     89.7700	  547.00	  591.46	-1798.21	  404.10
     89.8700	  556.00	  585.18	-1782.93	  403.97
     89.9700	  577.00	  578.47	-1755.22	  403.85
     90.0700	  564.00	  571.79	-1761.54	  403.72
     90.1700	  540.00	  565.48	-1779.23	  403.60
     90.2700	  582.00	  559.80	-1731.55	  403.47
     90.3700	  529.00	  554.90	-1779.65	  403.34
     90.4700	  546.00	  550.85	-1758.60	  403.20
     90.5700	  518.00	  547.64	-1783.39	  403.07
     90.6700	  488.00	  545.21	-1810.96	  402.93
     90.7700	  501.00	  543.47	-1796.22	  402.80
     90.8700	  527.00	  542.33	-1769.08	  402.66
     90.9700	  506.00	  541.69	-1789.44	  402.52
     91.0700	  497.00	  541.48	-1798.23	  402.37
     91.1700	  487.00	  541.66	-1808.41	  402.23
     91.2700	  522.00	  542.24	-1773.99	  402.08
     91.3700	  522.00	  543.25	-1775.00	  401.94
     91.4700	  556.00	  544.76	-1742.51	  401.79
     91.5700	  555.00	  546.90	-1745.65	  401.64
     91.6700	  534.00	  549.82	-1769.57	  401.49
     91.7700	  522.00	  553.70	-1785.45	  401.34
     91.8700	  530.00	  558.74	-1782.49	  401.18
     91.9700	  539.00	  565.14	-1779.89	  401.02
     92.0700	  553.00	  572.86	-1773.61	  400.87
     92.1700	  540.00	  582.46	-1796.21	  400.71
     92.2700	  553.00	  593.76	-1794.51	  400.55
     92.3700	  613.00	  606.72	-1747.47	  400.39
     92.4700	  613.00	  621.15	-1761.90	  400.22
     92.5700	  658.00	  636.75	-1732.50	  400.06
     92.6700	  658.00	  653.07	-1748.82	  399.89
     92.7700	  719.00	  669.56	-1704.31	  399.72
     92.8700	  703.00	  685.55	-1736.30	  399.55
     92.9700	  735.00	  700.37	-1719.12	  399.38
     93.0700	  688.00	  713.44	-1779.19	  399.21
     93.1700	  767.00	  724.49	-1711.24	  399.04
     93.2700	  750.00	  733.60	-1737.35	  398.86
     93.3700	  776.00	  741.22	-1718.97	  398.68
     93.4700	  784.00	  747.99	-1717.74	  398.51
     93.5700	  812.00	  754.61	-1696.36	  398.33
     93.6700	  759.00	  761.70	-1756.45	  398.14
     93.7700	  850.00	  769.81	-1673.56	  397.96
     93.8700	  845.00	  779.45	-1688.20	  397.78
     93.9700	  796.00	  791.04	-1748.79	  397.59
     94.0700	  885.00	  804.90	-1673.65	  397.41
     94.1700	  836.00	  821.12	-1738.87	  397.22
     94.2700	  907.00	  839.37	-1686.12	  397.03
     94.3700	  840.00	  858.93	-1772.68	  396.84
     94.4700	  889.00	  878.59	-1743.34	  396.65
     94.5700	  915.00	  896.75	-1735.50	  396.45
     94.6700	  950.00	  911.51	-1715.26	  396.26
     94.7700	  923.00	  920.92	-1751.67	  396.06
     94.8700	  877.00	  923.35	-1800.10	  395.87
     94.9700	  886.00	  917.86	-1785.61	  395.67
     95.0700	  874.00	  904.54	-1784.29	  395.47
     95.1700	  898.00	  884.40	-1740.15	  395.27
     95.2700	  860.00	  859.18	-1752.93	  395.07
     95.3700	  821.00	  830.94	-1763.69	  394.86
     95.4700	  785.00	  801.79	-1770.54	  394.66
     95.5700	  792.00	  773.73	-1735.48	  394.45
     95.6700	  723.00	  748.62	-1779.37	  394.24
     95.7700	  713.00	  728.13	-1768.88	  394.04
     95.8700	  698.00	  713.71	-1769.46	  393.83
     95.9700	  662.00	  706.64	-1798.39	  393.62
     96.0700	  758.00	  708.03	-1703.78	  393.40
     96.1700	  729.00	  718.77	-1743.52	  393.19
     96.2700	  717.00	  739.57	-1776.32	  392.98
     96.3700	  792.00	  770.85	-1732.60	  392.76
     96.4700	  816.00	  812.69	-1750.44	  392.54
     96.5700	  850.00	  864.73	-1768.48	  392.33
     96.6700	  932.00	  926.11	-1747.86	  392.11
     96.7700	 1021.00	  995.31	-1728.06	  391.89
     96.8700	 1028.00	 1070.14	-1795.89	  391.67
     96.9700	 1115.00	 1147.68	-1786.43	  391.45
     97.0700	 1185.00	 1224.36	-1793.11	  391.22
     97.1700	 1331.00	 1296.03	-1718.78	  391.00
     97.2700	 1376.00	 1358.17	-1735.92	  390.77
     97.3700	 1358.00	 1406.25	-1802.00	  390.55
     97.4700	 1438.00	 1436.38	-1752.13	  390.32
     97.5700	 1448.00	 1446.03	-1751.78	  390.09
     97.6700	 1387.00	 1434.66	-1801.41	  389.87
     97.7700	 1348.00	 1403.78	-1809.53	  389.64
     97.8700	 1386.00	 1356.56	-1724.31	  389.40
     97.9700	 1299.00	 1297.10	-1751.85	  389.17
     98.0700	 1199.00	 1229.83	-1784.58	  388.94
     98.1700	 1089.00	 1159.02	-1823.77	  388.71
     98.2700	 1135.00	 1088.62	-1707.37	  388.47
     98.3700	 1042.00	 1022.04	-1733.79	  388.24
     98.4700	 1020.00	  962.13	-1695.88	  388.00
     98.5700	  859.00	  911.19	-1805.94	  387.76
     98.6700	  813.00	  870.99	-1811.74	  387.53
     98.7700	  842.00	  842.86	-1754.61	  387.29
     98.8700	  770.00	  827.77	-1811.52	  387.05
     98.9700	  752.00	  826.39	-1828.14	  386.81
     99.0700	  844.00	  839.14	-1748.89	  386.57
     99.1700	  781.00	  866.25	-1839.00	  386.33
     99.2700	  844.00	  907.73	-1817.48	  386.08
     99.3700	  958.00	  963.38	-1759.13	  385.84
     99.4700	  998.00	 1032.68	-1788.43	  385.60
     99.5700	 1070.00	 1114.71	-1798.46	  385.35
     99.6700	 1199.00	 1208.04	-1762.79	  385.11
     99.7700	 1268.00	 1310.67	-1796.42	  384.86
     99.8700	 1398.00	 1419.94	-1775.69	  384.62
     99.9700	 1584.00	 1532.42	-1702.17	  384.37
    100.0700	 1616.00	 1644.04	-1781.79	  384.12
    100.1700	 1741.00	 1750.26	-1763.01	  383.88
    100.2700	 1962.00	 1846.52	-1638.27	  383.63
    100.3700	 1873.00	 1928.71	-1809.46	  383.38
    100.4700	 2077.00	 1993.57	-1670.32	  383.13
    100.5700	 2048.00	 2038.84	-1744.59	  382.88
    100.6700	 2053.00	 2063.12	-1763.87	  382.63
    100.7700	 2148.00	 2065.66	-1671.41	  382.38
    100.8700	 2038.00	 2046.31	-1762.06	  382.13
    100.9700	 2048.00	 2005.78	-1711.53	  381.88
    101.0700	 1967.00	 1946.02	-1732.77	  381.62
    101.1700	 1868.00	 1870.35	-1756.10	  381.37
    101.2700	 1848.00	 1783.24	-1688.99	  381.12
    101.3700	 1752.00	 1689.76	-1691.51	  380.87
    101.4700	 1646.00	 1594.98	-1702.73	  380.61
    101.5700	 1566.00	 1503.42	-1691.17	  380.36
    101.6700	 1445.00	 1418.73	-1727.48	  380.10
    101.7700	 1308.00	 1343.51	-1789.26	  379.85
    101.8700	 1311.00	 1279.30	-1722.05	  379.60
    101.9700	 1228.00	 1226.60	-1752.35	  379.34
    102.0700	 1147.00	 1184.91	-1791.66	  379.09
    102.1700	 1178.00	 1152.87	-1728.62	  378.83
    102.2700	 1133.00	 1128.41	-1749.16	  378.58
    102.3700	 1100.00	 1108.99	-1762.74	  378.32
    102.4700	 1108.00	 1091.86	-1737.61	  378.07
    102.5700	 1052.00	 1074.38	-1776.13	  377.81
    102.6700	 1073.00	 1054.38	-1735.13	  377.56
    102.7700	 1052.00	 1030.45	-1732.20	  377.30
    102.8700	  939.00	 1002.02	-1816.77	  377.04
    102.9700	  940.00	  969.32	-1783.07	  376.79
    103.0700	  901.00	  933.13	-1785.88	  376.53
    103.1700	  920.00	  894.58	-1728.33	  376.28
    103.2700	  872.00	  854.89	-1736.64	  376.02
    103.3700	  846.00	  815.29	-1723.04	  375.77
    103.4700	  733.00	  776.90	-1797.65	  375.51
    103.5700	  750.00	  740.65	-1744.40	  375.26
    103.6700	  703.00	  707.30	-1758.05	  375.00
    103.7700	  706.00	  677.34	-1725.09	  374.75
    103.8700	  643.00	  651.08	-1761.83	  374.50
    103.9700	  637.00	  628.61	-1745.36	  374.24
    104.0700	  645.00	  609.84	-1718.59	  373.99
    104.1700	  611.00	  594.55	-1737.30	  373.74
    104.2700	  588.00	  582.43	-1748.18	  373.48
    104.3700	  618.00	  573.11	-1708.86	  373.23
    104.4700	  545.00	  566.19	-1774.94	  372.98
    104.5700	  548.00	  561.31	-1767.06	  372.73
    104.6700	  550.00	  558.09	-1761.84	  372.47
    104.7700	  590.00	  556.23	-1719.98	  372.22
    104.8700	  563.00	  555.43	-1746.18	  371.97
    104.9700	  494.00	  555.49	-1815.24	  371.72
    105.0700	  535.00	  556.21	-1774.96	  371.47
    105.1700	  546.00	  557.44	-1765.19	  371.23
    105.2700	  555.00	  559.07	-1757.82	  370.98
    105.3700	  543.00	  561.09	-1771.84	  370.73
    105.4700	  562.00	  563.44	-1755.19	  370.48
    105.5700	  562.00	  566.16	-1757.91	  370.24
    105.6700	  593.00	  569.32	-1730.07	  369.99
    105.7700	  534.00	  573.01	-1792.76	  369.75
    105.8700	  553.00	  577.36	-1778.11	  369.50
    105.9700	  560.00	  582.47	-1776.22	  369.26
    106.0700	  583.00	  588.44	-1759.19	  369.02
    106.1700	  547.00	  595.30	-1802.05	  368.78
    106.2700	  608.00	  603.05	-1748.80	  368.54
    106.3700	  616.00	  611.61	-1749.36	  368.30
    106.4700	  610.00	  620.83	-1764.58	  368.06
    106.5700	  632.00	  630.49	-1752.24	  367.82
    106.6700	  660.00	  640.33	-1734.08	  367.58
    106.7700	  662.00	  650.01	-1741.76	  367.35
    106.8700	  669.00	  659.16	-1743.91	  367.11
    106.9700	  643.00	  667.39	-1778.14	  366.88
    107.0700	  666.00	  674.34	-1762.09	  366.65
    107.1700	  679.00	  679.73	-1754.48	  366.42
    107.2700	  703.00	  683.38	-1734.13	  366.19
    107.3700	  674.00	  685.28	-1765.03	  365.96
    107.4700	  671.00	  685.62	-1768.37	  365.73
    107.5700	  696.00	  684.70	-1742.45	  365.50
    107.6700	  652.00	  682.92	-1784.67	  365.28
    107.7700	  688.00	  680.73	-1746.48	  365.06
    107.8700	  652.00	  678.52	-1780.27	  364.83
    107.9700	  712.00	  676.65	-1718.40	  364.61
    108.0700	  687.00	  675.36	-1742.11	  364.39
    108.1700	  676.00	  674.80	-1752.55	  364.18
    108.2700	  687.00	  674.97	-1741.72	  363.96
    108.3700	  698.00	  675.80	-1731.55	  363.74
    108.4700	  659.00	  677.07	-1771.82	  363.53
    108.5700	  639.00	  678.49	-1793.24	  363.32
    108.6700	  669.00	  679.69	-1764.44	  363.11
    108.7700	  686.00	  680.26	-1748.01	  362.90
    108.8700	  640.00	  679.80	-1793.55	  362.70
    108.9700	  685.00	  677.99	-1746.74	  362.49
    109.0700	  636.00	  674.61	-1792.36	  362.29
    109.1700	  646.00	  669.58	-1777.33	  362.09
    109.2700	  684.00	  662.96	-1732.71	  361.89
    109.3700	  649.00	  654.96	-1759.71	  361.69
    109.4700	  673.00	  645.86	-1726.61	  361.50
    109.5700	  703.00	  635.97	-1686.72	  361.30
    109.6700	  628.00	  625.65	-1751.40	  361.11
    109.7700	  568.00	  615.21	-1800.96	  360.92
    109.8700	  604.00	  604.97	-1754.72	  360.73
    109.9700	  607.00	  595.17	-1741.92	  360.55
    110.0700	  600.00	  586.04	-1739.79	  360.37
    110.1700	  596.00	  577.73	-1735.48	  360.19
    110.2700	  567.00	  570.36	-1757.11	  360.01
    110.3700	  556.00	  563.98	-1761.73	  359.83
    110.4700	  579.00	  558.62	-1733.37	  359.66
    110.5700	  546.00	  554.25	-1762.00	  359.48
    110.6700	  542.00	  550.82	-1762.57	  359.32
    110.7700	  556.00	  548.26	-1746.01	  359.15
    110.8700	  554.00	  546.49	-1746.24	  358.98
    110.9700	  522.00	  545.41	-1777.16	  358.82
    111.0700	  536.00	  544.94	-1762.69	  358.66
    111.1700	  534.00	  544.99	-1764.74	  358.51
    111.2700	  535.00	  545.49	-1764.24	  358.35
    111.3700	  553.00	  546.36	-1747.11	  358.20
    111.4700	  469.00	  547.56	-1832.31	  358.05
    111.5700	  548.00	  549.04	-1754.79	  357.91
    111.6700	  530.00	  550.77	-1774.52	  357.76
    111.7700	  539.00	  552.71	-1767.46	  357.62
    111.8700	  541.00	  554.87	-1767.62	  357.48
    111.9700	  573.00	  557.23	-1737.98	  357.35
    112.0700	  549.00	  559.80	-1764.55	  357.22
    112.1700	  522.00	  562.58	-1794.33	  357.09
    112.2700	  531.00	  565.60	-1788.35	  356.96
    112.3700	  556.00	  568.88	-1766.63	  356.84
    112.4700	  565.00	  572.47	-1761.22	  356.72
    112.5700	  602.00	  576.40	-1728.15	  356.61
    112.6700	  606.00	  580.74	-1728.49	  356.49
    112.7700	  599.00	  585.58	-1740.33	  356.38
    112.8700	  573.00	  591.03	-1771.78	  356.28
    112.9700	  668.00	  597.21	-1682.96	  356.17
    113.0700	  667.00	  604.32	-1691.07	  356.07
    113.1700	  720.00	  612.60	-1646.35	  355.98
    113.2700	  696.00	  622.35	-1680.10	  355.88
    113.3700	  686.00	  633.95	-1701.70	  355.79
    113.4700	  740.00	  647.93	-1661.68	  355.71
    113.5700	  808.00	  664.91	-1610.66	  355.62
    113.6700	  808.00	  685.67	-1631.42	  355.55
    113.7700	  843.00	  711.15	-1621.90	  355.47
    113.8700	  845.00	  742.51	-1651.26	  355.40
    113.9700	  952.00	  781.10	-1582.85	  355.33
    114.0700	  979.00	  828.50	-1603.25	  355.27
    114.1700	 1031.00	  886.52	-1609.27	  355.21
    114.2700	 1055.00	  957.15	-1655.90	  355.15
    114.3700	 1169.00	 1042.60	-1627.35	  355.10
    114.4700	 1376.00	 1145.16	-1522.91	  355.05
    114.5700	 1387.00	 1267.22	-1633.97	  355.01
    114.6700	 1569.00	 1411.15	-1595.90	  354.97
    114.7700	 1648.00	 1579.13	-1684.88	  354.93
    114.8700	 1872.00	 1773.06	-1654.81	  354.90
    114.9700	 2079.00	 1994.38	-1669.13	  354.88
    115.0700	 2400.00	 2243.98	-1597.73	  354.85
    115.1700	 2571.00	 2522.01	-1704.76	  354.83
    115.2700	 2896.00	 2827.64	-1685.39	  354.82
    115.3700	 3127.00	 3159.01	-1785.76	  354.81
    115.4700	 3387.00	 3513.07	-1879.82	  354.80
    115.5700	 3728.00	 3885.64	-1911.39	  354.80
    115.6700	 4050.00	 4271.31	-1975.06	  354.81
    115.7700	 4474.00	 4663.30	-1943.05	  354.82
    115.8700	 4819.00	 5053.68	-1988.43	  354.83
    115.9700	 5298.00	 5433.37	-1889.12	  354.85
    116.0700	 5538.00	 5792.49	-2008.24	  354.87
    116.1700	 5834.00	 6120.46	-2040.21	  354.90
    116.2700	 6378.00	 6406.32	-1782.07	  354.93
    116.3700	 6597.00	 6639.53	-1796.28	  354.97
    116.4700	 6820.00	 6810.61	-1744.36	  355.01
    116.5700	 6781.00	 6912.15	-1884.90	  355.06
    116.6700	 6762.00	 6939.61	-1931.36	  355.11
    116.7700	 7015.00	 6891.85	-1630.60	  355.17
    116.8700	 6845.00	 6771.40	-1680.15	  355.23
    116.9700	 6843.00	 6584.06	-1494.81	  355.30
    117.0700	 6289.00	 6338.14	-1802.89	  355.38
    117.1700	 6162.00	 6043.53	-1635.28	  355.46
    117.2700	 5720.00	 5710.98	-1744.73	  355.54
    117.3700	 5275.00	 5351.26	-1830.01	  355.63
    117.4700	 4922.00	 4974.74	-1806.49	  355.73
    117.5700	 4693.00	 4590.86	-1651.61	  355.83
    117.6700	 4327.00	 4208.01	-1634.76	  355.93
    117.7700	 3965.00	 3833.57	-1622.32	  356.05
    117.8700	 3652.00	 3473.61	-1575.36	  356.16
    117.9700	 3256.00	 3132.99	-1630.74	  356.29
    118.0700	 2942.00	 2815.25	-1627.00	  356.42
    118.1700	 2490.00	 2522.76	-1786.51	  356.56
    118.2700	 2308.00	 2256.94	-1702.69	  356.70
    118.3700	 2005.00	 2018.21	-1766.96	  356.85
    118.4700	 1767.00	 1806.22	-1792.97	  357.00
    118.5700	 1607.00	 1619.93	-1766.68	  357.16
    118.6700	 1381.00	 1457.81	-1830.56	  357.33
    118.7700	 1201.00	 1318.02	-1870.77	  357.50
    118.8700	 1156.00	 1198.48	-1796.23	  357.68
    118.9700	  992.00	 1097.03	-1858.78	  357.86
    119.0700	  974.00	 1011.47	-1791.22	  358.06
    119.1700	  851.00	  939.70	-1842.45	  358.25
    119.2700	  819.00	  879.76	-1814.51	  358.46
    119.3700	  757.00	  829.85	-1826.60	  358.67
    119.4700	  757.00	  788.40	-1785.15	  358.89
    119.5700	  681.00	  754.00	-1826.75	  359.11
    119.6700	  648.00	  725.45	-1831.20	  359.35
    119.7700	  630.00	  701.74	-1825.49	  359.59
    119.8700	  609.00	  682.03	-1826.78	  359.83
    119.9700	  614.00	  665.61	-1805.36	  360.08
    120.0700	  642.00	  651.91	-1763.66	  360.34
    120.1700	  579.00	  640.47	-1815.22	  360.61
    120.2700	  603.00	  630.92	-1781.67	  360.88
    120.3700	  565.00	  622.96	-1811.71	  361.17
    120.4700	  571.00	  616.36	-1799.11	  361.45
    120.5700	  587.00	  610.92	-1777.67	  361.75
    120.6700	  618.00	  606.50	-1742.25	  362.05
    120.7700	  597.00	  602.99	-1759.74	  362.37
    120.8700	  558.00	  600.30	-1796.05	  362.68
    120.9700	  585.00	  598.36	-1767.11	  363.01
    121.0700	  562.00	  597.10	-1788.85	  363.34
    121.1700	  587.00	  596.49	-1763.24	  363.68
    121.2700	  581.00	  596.48	-1769.23	  364.03
    121.3700	  582.00	  597.02	-1768.77	  364.39
    121.4700	  595.00	  598.08	-1756.83	  364.76
    121.5700	  608.00	  599.61	-1745.36	  365.13
    121.6700	  596.00	  601.55	-1759.30	  365.51
    121.7700	  610.00	  603.86	-1747.61	  365.90
    121.8700	  607.00	  606.47	-1753.22	  366.30
    121.9700	  625.00	  609.28	-1738.03	  366.70
    122.0700	  608.00	  612.25	-1758.00	  367.12
    122.1700	  630.00	  615.28	-1739.03	  367.54
    122.2700	  664.00	  618.27	-1708.02	  367.97
    122.3700	  649.00	  621.14	-1725.89	  368.41
    122.4700	  625.00	  623.78	-1752.53	  368.86
    122.5700	  656.00	  626.10	-1723.85	  369.32
    122.6700	  625.00	  628.01	-1756.76	  369.78
    122.7700	  627.00	  629.46	-1756.21	  370.26
    122.8700	  664.00	  630.39	-1720.14	  370.74
    122.9700	  673.00	  630.78	-1711.53	  371.23
    123.0700	  647.00	  630.61	-1737.36	  371.73
    123.1700	  605.00	  629.91	-1778.66	  372.24
    123.2700	  660.00	  628.71	-1722.46	  372.76
    123.3700	  670.00	  627.07	-1710.82	  373.29
    123.4700	  615.00	  625.05	-1763.80	  373.83
    123.5700	  619.00	  622.72	-1757.47	  374.38
    123.6700	  604.00	  620.14	-1769.89	  374.93
    123.7700	  655.00	  617.38	-1716.13	  375.50
    123.8700	  648.00	  614.50	-1720.25	  376.07
    123.9700	  643.00	  611.57	-1722.32	  376.66
    124.0700	  663.00	  608.64	-1699.39	  377.26
    124.1700	  614.00	  605.75	-1745.50	  377.86
    124.2700	  568.00	  602.95	-1788.70	  378.48
    124.3700	  591.00	  600.28	-1763.03	  379.10
    124.4700	  618.00	  597.75	-1733.50	  379.73
    124.5700	  588.00	  595.38	-1761.13	  380.38
    124.6700	  602.00	  593.20	-1744.95	  381.03
    124.7700	  559.00	  591.21	-1785.96	  381.70
    124.8700	  579.00	  589.43	-1764.18	  382.38
    124.9700	  595.00	  501.33	-1660.08	  383.06
    125.0700	  591.00	  502.03	-1753.75	  383.76
    125.1700	  573.00	  502.73	-1753.75	  384.47
    125.2700	  557.00	  503.45	-1753.75	  385.18
    125.3700	  603.00	  504.18	-1753.75	  385.91
    125.4700	  577.00	  504.92	-1753.75	  386.65
    125.5700	  630.00	  505.67	-1753.75	  387.40
    125.6700	  603.00	  506.43	-1753.75	  388.16
    125.7700	  524.00	  507.20	-1753.75	  388.93
    125.8700	  565.00	  507.98	-1753.75	  389.72
    125.9700	  560.00	  508.78	-1753.75	  390.51
    126.0700	  598.00	  509.58	-1753.75	  391.32
    126.1700	  564.00	  510.40	-1753.75	  392.13
    126.2700	  558.00	  511.23	-1753.75	  392.96
    126.3700	  562.00	  512.07	-1753.75	  393.80
    126.4700	  588.00	  512.92	-1753.75	  394.65
    126.5700	  574.00	  513.78	-1753.75	  395.51
    126.6700	  594.00	  514.66	-1753.75	  396.39
    126.7700	  566.00	  515.54	-1753.75	  397.27
    126.8700	  597.00	  516.44	-1753.75	  398.17
    126.9700	  601.00	  517.35	-1753.75	  399.08
    127.0700	  616.00	  518.27	-1753.75	  400.00
    127.1700	  633.00	  519.21	-1753.75	  400.94
    127.2700	  675.00	  520.15	-1753.75	  401.88
    127.3700	  637.00	  521.11	-1753.75	  402.84
    127.4700	  675.00	  522.08	-1753.75	  403.81
    127.5700	  656.00	  523.07	-1753.75	  404.80
    127.6700	  652.00	  524.06	-1753.75	  405.79
    127.7700	  691.00	  525.07	-1753.75	  406.80
    127.8700	  697.00	  526.09	-1753.75	  407.82
    127.9700	  735.00	  527.12	-1753.75	  408.86
    128.0700	  756.00	  528.17	-1753.75	  409.90
    128.1700	  709.00	  529.23	-1753.75	  410.96
    128.2700	  748.00	  530.30	-1753.75	  412.04
    128.3700	  799.00	  531.39	-1753.75	  413.12
    128.4700	  801.00	  532.49	-1753.75	  414.22
    128.5700	    0.00	  533.60	-1753.75	  415.33
    128.6700	    0.00	  534.73	-1753.75	  416.46
     12.3000	        	        	        	        	       0	(  0  0  2)	  0  1
     24.8814	        	        	        	        	       0	(  0  0  4)	  0  1
     28.3272	        	        	        	        	       0	(  1  0  0)	  0  1
     29.0242	        	        	        	        	       0	(  1  0  1)	  0  1
     31.0299	        	        	        	        	       0	(  1  0  2)	  0  1
     34.1374	        	        	        	        	       0	(  1  0  3)	  0  1
     37.7786	        	        	        	        	       0	(  0  0  6)	  0  1
     38.1135	        	        	        	        	       0	(  1  0  4)	  0  1
     42.7625	        	        	        	        	       0	(  1  0  5)	  0  1
     47.9453	        	        	        	        	       0	(  1  0  6)	  0  1
     50.2646	        	        	        	        	       0	(  1  1  0)	  0  1
     51.1978	        	        	        	        	       0	(  0  0  8)	  0  1
     51.9871	        	        	        	        	       0	(  1  1  2)	  0  1
     53.5745	        	        	        	        	       0	(  1  0  7)	  0  1
     56.9336	        	        	        	        	       0	(  1  1  4)	  0  1
     58.7618	        	        	        	        	       0	(  2  0  0)	  0  1
     59.1533	        	        	        	        	       0	(  2  0  1)	  0  1
     59.6035	        	        	        	        	       0	(  1  0  8)	  0  1
     60.3183	        	        	        	        	       0	(  2  0  2)	  0  1
     62.2310	        	        	        	        	       0	(  2  0  3)	  0  1
     64.6262	        	        	        	        	       0	(  1  1  6)	  0  1
     64.8543	        	        	        	        	       0	(  2  0  4)	  0  1
     65.4238	        	        	        	        	       0	(  0  0 10)	  0  1
     66.0182	        	        	        	        	       0	(  1  0  9)	  0  1
     68.1476	        	        	        	        	       0	(  2  0  5)	  0  1
     72.0739	        	        	        	        	       0	(  2  0  6)	  0  1
     72.8325	        	        	        	        	       0	(  1  0 10)	  0  1
     74.6611	        	        	        	        	       0	(  1  1  8)	  0  1
     76.6067	        	        	        	        	       0	(  2  0  7)	  0  1
     80.0881	        	        	        	        	       0	(  1  0 11)	  0  1
     80.9000	        	        	        	        	       0	(  0  0 12)	  0  1
     81.0036	        	        	        	        	       0	(  2  1  0)	  0  1
     81.3434	        	        	        	        	       0	(  2  1  1)	  0  1
     81.7355	        	        	        	        	       0	(  2  0  8)	  0  1
     82.3610	        	        	        	        	       0	(  2  1  2)	  0  1
     84.0518	        	        	        	        	       0	(  2  1  3)	  0  1
     86.4107	        	        	        	        	       0	(  2  1  4)	  0  1
     86.9288	        	        	        	        	       0	(  1  1 10)	  0  1
     87.4718	        	        	        	        	       0	(  2  0  9)	  0  1
     87.8600	        	        	        	        	       0	(  1  0 12)	  0  1
     89.4355	        	        	        	        	       0	(  2  1  5)	  0  1
     93.1318	        	        	        	        	       0	(  2  1  6)	  0  1
     93.8571	        	        	        	        	       0	(  2  0 10)	  0  1
     94.8930	        	        	        	        	       0	(  3  0  0)	  0  1
     95.2303	        	        	        	        	       0	(  3  0  1)	  0  1
     96.2432	        	        	        	        	       0	(  3  0  2)	  0  1
     96.2703	        	        	        	        	       0	(  1  0 13)	  0  1
     97.5190	        	        	        	        	       0	(  2  1  7)	  0  1
     97.9360	        	        	        	        	       0	(  3  0  3)	  0  1
     98.4334	        	        	        	        	       0	(  0  0 14)	  0  1
    100.3183	        	        	        	        	       0	(  3  0  4)	  0  1
    100.9765	        	        	        	        	       0	(  2  0 11)	  0  1
    101.7940	        	        	        	        	       0	(  1  1 12)	  0  1
    102.6397	        	        	        	        	       0	(  2  1  8)	  0  1
    103.4089	        	        	        	        	       0	(  3  0  5)	  0  1
    105.5192	        	        	        	        	       0	(  1  0 14)	  0  1
    107.2428	        	        	        	        	       0	(  3  0  6)	  0  1
    108.5745	        	        	        	        	       0	(  2  1  9)	  0  1
    108.9846	        	        	        	        	       0	(  2  0 12)	  0  1
    111.8815	        	        	        	        	       0	(  3  0  7)	  0  1
    115.4687	        	        	        	        	       0	(  2  1 10)	  0  1
    115.9576	        	        	        	        	       0	(  1  0 15)	  0  1
    116.6195	        	        	        	        	       0	(  2  2  0)	  0  1
    117.4330	        	        	        	        	       0	(  3  0  8)	  0  1
    118.1342	        	        	        	        	       0	(  2  2  2)	  0  1
    118.1648	        	        	        	        	       0	(  2  0 13)	  0  1
    119.9112	        	        	        	        	       0	(  0  0 16)	  0  1
    120.6296	        	        	        	        	       0	(  1  1 14)	  0  1
    122.8183	        	        	        	        	       0	(  2  2  4)	  0  1
    123.5923	        	        	        	        	       0	(  2  1 11)	  0  1
    124.0904	        	        	        	        	       0	(  3  0  9)	  0  1
    124.6855	        	        	        	        	       0	(  3  1  0)	  0  1
    125.0956	        	        	        	        	       0	(  3  1  1)	  0  1
    126.3387	        	        	        	        	       0	(  3  1  2)	  0  1
    128.2935	        	        	        	        	       0	(  1  0 16)	  0  1
    128.4564	        	        	        	        	       0	(  3  1  3)	  0  1
    129.0888	        	        	        	        	       0	(  2  0 14)	  0  1
    131.2556	        	        	        	        	       0	(  2  2  6)	  0  1
    131.5315	        	        	        	        	       0	(  3  1  4)	  0  1
    132.2277	        	        	        	        	       0	(  3  0 10)	  0  1
    133.4998	        	        	        	        	       0	(  2  1 12)	  0  1
    135.7175	        	        	        	        	       0	(  3  1  5)	  0  1
    141.3115	        	        	        	        	       0	(  3  1  6)	  0  1
    142.7015	        	        	        	        	       0	(  3  0 11)	  0  1
    143.2189	        	        	        	        	       0	(  2  0 15)	  0  1
    144.4494	        	        	        	        	       0	(  1  0 17)	  0  1
    145.4853	        	        	        	        	       0	(  2  2  8)	  0  1
    146.6476	        	        	        	        	       0	(  2  1 13)	  0  1
    148.9829	        	        	        	        	       0	(  3  1  7)	  0  1
    149.5438	        	        	        	        	       0	(  1  1 16)	  0  1
    153.9294	        	        	        	        	       0	(  0  0 18)	  0  1
    158.5706	        	        	        	        	       0	(  3  0 12)	  0  1
    158.8542	        	        	        	        	       0	(  4  0  0)	  0  1
    159.8117	        	        	        	        	       0	(  4  0  1)	  0  1
    160.9754	        	        	        	        	       0	(  3  1  8)	  0  1
    162.9933	        	        	        	        	       0	(  4  0  2)	  0  1
    169.6132	        	        	        	        	       0	(  2  0 16)	  0  1
    170.3562	        	        	        	        	       0	(  4  0  3)	  0  1
    174.0453	        	        	        	        	       0	(  2  1 14)	  0  1
