MSG Master    CELL:    5.91969   5.91969  23.28508   90.0000   90.0000  120.0000   SPGR: P 63/m m c             TEMP:   1074.85
  1   1280     2.52000     0.00000    -0.11709     0.00000     0.00000    0
    99     0     2
       0.00000      10.00000
     125.00000     130.00000
 2Theta	Yobs	Ycal	Yobs-Ycal	Backg	Posr	(hkl)	K
      0.7700	    0.00	  550.53	-1726.71	  431.30
      0.8700	    0.00	  551.12	-1726.71	  431.89
      0.9700	   33.00	  551.70	-1726.71	  432.47
      1.0700	   34.00	  552.27	-1726.71	  433.04
      1.1700	   63.00	  552.83	-1726.71	  433.60
      1.2700	   40.00	  553.38	-1726.71	  434.15
      1.3700	   40.00	  553.92	-1726.71	  434.69
      1.4700	   94.00	  554.45	-1726.71	  435.22
      1.5700	  313.00	  554.98	-1726.71	  435.75
      1.6700	  467.00	  555.49	-1726.71	  436.26
      1.7700	  584.00	  556.00	-1726.71	  436.77
      1.8700	  657.00	  556.49	-1726.71	  437.26
      1.9700	  685.00	  556.98	-1726.71	  437.75
      2.0700	  760.00	  557.46	-1726.71	  438.23
      2.1700	  783.00	  557.93	-1726.71	  438.70
      2.2700	  782.00	  558.39	-1726.71	  439.16
      2.3700	  739.00	  558.84	-1726.71	  439.61
      2.4700	  681.00	  559.29	-1726.71	  440.06
      2.5700	  690.00	  559.72	-1726.71	  440.49
      2.6700	  649.00	  560.15	-1726.71	  440.92
      2.7700	  620.00	  560.57	-1726.71	  441.34
      2.8700	  610.00	  560.98	-1726.71	  441.75
      2.9700	  615.00	  561.38	-1726.71	  442.15
      3.0700	  678.00	  561.77	-1726.71	  442.54
      3.1700	  630.00	  562.16	-1726.71	  442.93
      3.2700	  635.00	  562.54	-1726.71	  443.31
      3.3700	  720.00	  562.91	-1726.71	  443.68
      3.4700	  739.00	  563.27	-1726.71	  444.04
      3.5700	  850.00	  563.62	-1726.71	  444.39
      3.6700	  855.00	  563.97	-1726.71	  444.74
      3.7700	  861.00	  564.30	-1726.71	  445.08
      3.8700	  937.00	  564.63	-1726.71	  445.41
      3.9700	 1002.00	  564.96	-1726.71	  445.73
      4.0700	 1058.00	  565.27	-1726.71	  446.04
      4.1700	 1035.00	  565.58	-1726.71	  446.35
      4.2700	 1057.00	  565.88	-1726.71	  446.65
      4.3700	 1136.00	  566.17	-1726.71	  446.94
      4.4700	 1088.00	  566.46	-1726.71	  447.23
      4.5700	 1067.00	  566.74	-1726.71	  447.51
      4.6700	 1062.00	  567.01	-1726.71	  447.78
      4.7700	  958.00	  567.27	-1726.71	  448.04
      4.8700	  931.00	  567.53	-1726.71	  448.30
      4.9700	  904.00	  567.78	-1726.71	  448.55
      5.0700	  915.00	  568.02	-1726.71	  448.79
      5.1700	  904.00	  568.25	-1726.71	  449.02
      5.2700	  949.00	  568.48	-1726.71	  449.25
      5.3700	  895.00	  568.70	-1726.71	  449.47
      5.4700	  889.00	  568.92	-1726.71	  449.69
      5.5700	  886.00	  569.12	-1726.71	  449.90
      5.6700	  829.00	  569.33	-1726.71	  450.10
      5.7700	  811.00	  569.52	-1726.71	  450.29
      5.8700	  850.00	  569.71	-1726.71	  450.48
      5.9700	  764.00	  569.89	-1726.71	  450.66
      6.0700	  748.00	  570.06	-1726.71	  450.84
      6.1700	  802.00	  570.23	-1726.71	  451.00
      6.2700	  785.00	  570.40	-1726.71	  451.17
      6.3700	  764.00	  570.55	-1726.71	  451.32
      6.4700	  774.00	  570.70	-1726.71	  451.47
      6.5700	  748.00	  570.84	-1726.71	  451.62
      6.6700	  744.00	  570.98	-1726.71	  451.75
      6.7700	  717.00	  571.11	-1726.71	  451.88
      6.8700	  723.00	  571.24	-1726.71	  452.01
      6.9700	  700.00	  571.36	-1726.71	  452.13
      7.0700	  714.00	  571.47	-1726.71	  452.24
      7.1700	  705.00	  571.58	-1726.71	  452.35
      7.2700	  680.00	  571.68	-1726.71	  452.45
      7.3700	  700.00	  571.77	-1726.71	  452.54
      7.4700	  667.00	  571.86	-1726.71	  452.63
      7.5700	  649.00	  571.95	-1726.71	  452.72
      7.6700	  647.00	  572.03	-1726.71	  452.80
      7.7700	  616.00	  572.10	-1726.71	  452.87
      7.8700	  683.00	  572.17	-1726.71	  452.94
      7.9700	  663.00	  572.23	-1726.71	  453.00
      8.0700	  666.00	  572.28	-1726.71	  453.06
      8.1700	  642.00	  572.34	-1726.71	  453.11
      8.2700	  662.00	  572.38	-1726.71	  453.15
      8.3700	  668.00	  572.42	-1726.71	  453.19
      8.4700	  696.00	  572.46	-1726.71	  453.23
      8.5700	  594.00	  572.49	-1726.71	  453.26
      8.6700	  670.00	  572.51	-1726.71	  453.28
      8.7700	  606.00	  572.53	-1726.71	  453.30
      8.8700	  613.00	  572.55	-1726.71	  453.32
      8.9700	  614.00	  572.56	-1726.71	  453.33
      9.0700	  603.00	  572.56	-1726.71	  453.33
      9.1700	  607.00	  572.56	-1726.71	  453.33
      9.2700	  605.00	  572.56	-1726.71	  453.33
      9.3700	  576.00	  572.55	-1726.71	  453.32
      9.4700	  568.00	  572.53	-1726.71	  453.30
      9.5700	  606.00	  572.51	-1726.71	  453.28
      9.6700	  606.00	  572.49	-1726.71	  453.26
      9.7700	  594.00	  572.46	-1726.71	  453.23
      9.8700	  591.00	  572.43	-1726.71	  453.20
      9.9700	  621.00	  572.39	-1726.71	  453.16
     10.0700	  596.00	  573.31	-1704.02	  453.12
     10.1700	  567.00	  573.37	-1733.08	  453.07
     10.2700	  631.00	  573.45	-1669.16	  453.02
     10.3700	  566.00	  573.57	-1734.28	  452.96
     10.4700	  543.00	  573.75	-1757.47	  452.90
     10.5700	  601.00	  574.07	-1699.78	  452.84
     10.6700	  621.00	  574.62	-1680.33	  452.77
     10.7700	  593.00	  575.52	-1709.23	  452.70
     10.8700	  638.00	  576.85	-1665.57	  452.62
     10.9700	  553.00	  578.62	-1752.33	  452.54
     11.0700	  600.00	  580.78	-1707.49	  452.46
     11.1700	  564.00	  583.34	-1746.05	  452.37
     11.2700	  597.00	  586.33	-1716.04	  452.28
     11.3700	  577.00	  589.84	-1739.55	  452.18
     11.4700	  594.00	  594.01	-1726.72	  452.08
     11.5700	  612.00	  599.08	-1713.79	  451.97
     11.6700	  627.00	  605.44	-1705.15	  451.87
     11.7700	  657.00	  613.75	-1683.46	  451.75
     11.8700	  602.00	  624.94	-1749.66	  451.64
     11.9700	  654.00	  639.56	-1712.27	  451.52
     12.0700	  606.00	  655.74	-1776.46	  451.40
     12.1700	  690.00	  667.08	-1703.79	  451.27
     12.2700	  684.00	  663.56	-1706.27	  451.14
     12.3700	  697.00	  641.91	-1671.62	  451.01
     12.4700	  617.00	  614.92	-1724.63	  450.87
     12.5700	  568.00	  594.56	-1753.27	  450.73
     12.6700	  601.00	  582.98	-1708.70	  450.59
     12.7700	  578.00	  577.44	-1726.15	  450.44
     12.8700	  560.00	  574.84	-1741.55	  450.29
     12.9700	  563.00	  573.41	-1737.12	  450.14
     13.0700	  569.00	  572.45	-1730.16	  449.98
     13.1700	  595.00	  571.72	-1703.43	  449.82
     13.2700	  536.00	  571.13	-1761.84	  449.66
     13.3700	  561.00	  570.64	-1736.35	  449.49
     13.4700	  548.00	  570.22	-1748.93	  449.32
     13.5700	  541.00	  569.84	-1755.55	  449.15
     13.6700	  569.00	  569.50	-1727.21	  448.97
     13.7700	  593.00	  569.19	-1702.90	  448.80
     13.8700	  557.00	  568.89	-1738.60	  448.61
     13.9700	  552.00	  568.61	-1743.32	  448.43
     14.0700	  525.00	  568.34	-1770.06	  448.24
     14.1700	  517.00	  568.09	-1777.80	  448.05
     14.2700	  558.00	  567.83	-1736.54	  447.86
     14.3700	  567.00	  567.59	-1727.30	  447.67
     14.4700	  595.00	  567.34	-1699.05	  447.47
     14.5700	  566.00	  567.10	-1727.81	  447.27
     14.6700	  537.00	  566.86	-1756.58	  447.07
     14.7700	  565.00	  566.63	-1728.34	  446.86
     14.8700	  538.00	  566.39	-1755.10	  446.65
     14.9700	  544.00	  566.16	-1748.87	  446.44
     15.0700	  516.00	  565.92	-1776.63	  446.23
     15.1700	  570.00	  565.68	-1722.40	  446.01
     15.2700	  560.00	  565.45	-1732.16	  445.80
     15.3700	  541.00	  565.21	-1750.92	  445.58
     15.4700	  568.00	  564.97	-1723.68	  445.35
     15.5700	  581.00	  564.73	-1710.45	  445.13
     15.6700	  583.00	  564.49	-1708.21	  444.90
     15.7700	  563.00	  564.25	-1727.96	  444.67
     15.8700	  549.00	  564.04	-1741.75	  444.44
     15.9700	  562.00	  563.79	-1728.51	  444.21
     16.0700	  513.00	  563.55	-1777.26	  443.97
     16.1700	  567.00	  563.30	-1723.02	  443.73
     16.2700	  574.00	  563.06	-1715.77	  443.49
     16.3700	  585.00	  562.81	-1704.52	  443.25
     16.4700	  539.00	  562.56	-1750.27	  443.01
     16.5700	  562.00	  562.31	-1727.02	  442.76
     16.6700	  560.00	  562.05	-1728.77	  442.52
     16.7700	  542.00	  561.80	-1746.51	  442.27
     16.8700	  584.00	  561.54	-1704.26	  442.01
     16.9700	  572.00	  561.29	-1716.00	  441.76
     17.0700	  509.00	  561.03	-1778.74	  441.51
     17.1700	  574.00	  560.77	-1713.48	  441.25
     17.2700	  554.00	  560.51	-1733.22	  440.99
     17.3700	  562.00	  560.24	-1724.95	  440.73
     17.4700	  541.00	  559.98	-1745.69	  440.47
     17.5700	  515.00	  559.71	-1771.42	  440.21
     17.6700	  517.00	  559.45	-1769.16	  439.94
     17.7700	  566.00	  559.18	-1719.89	  439.67
     17.8700	  526.00	  558.91	-1759.62	  439.41
     17.9700	  585.00	  558.64	-1700.35	  439.14
     18.0700	  584.00	  558.47	-1701.18	  438.87
     18.1700	  588.00	  558.20	-1696.91	  438.59
     18.2700	  557.00	  557.92	-1727.64	  438.32
     18.3700	  585.00	  557.65	-1699.36	  438.04
     18.4700	  601.00	  557.37	-1683.09	  437.77
     18.5700	  569.00	  557.10	-1714.81	  437.49
     18.6700	  576.00	  556.82	-1707.53	  437.21
     18.7700	  545.00	  556.54	-1738.26	  436.93
     18.8700	  550.00	  556.26	-1732.98	  436.65
     18.9700	  571.00	  556.07	-1711.78	  436.36
     19.0700	  590.00	  555.79	-1692.50	  436.08
     19.1700	  540.00	  555.51	-1742.22	  435.79
     19.2700	  544.00	  555.23	-1737.94	  435.51
     19.3700	  535.00	  554.95	-1746.66	  435.22
     19.4700	  557.00	  554.67	-1724.38	  434.93
     19.5700	  520.00	  554.39	-1761.10	  434.64
     19.6700	  529.00	  554.10	-1751.81	  434.35
     19.7700	  557.00	  553.82	-1723.53	  434.06
     19.8700	  522.00	  553.53	-1758.25	  433.77
     19.9700	  565.00	  553.25	-1714.96	  433.47
     20.0700	  554.00	  552.96	-1725.68	  433.18
     20.1700	  550.00	  552.68	-1729.39	  432.88
     20.2700	  548.00	  552.39	-1731.10	  432.59
     20.3700	  552.00	  552.11	-1726.82	  432.29
     20.4700	  530.00	  551.82	-1748.53	  431.99
     20.5700	  598.00	  551.53	-1680.25	  431.69
     20.6700	  551.00	  551.25	-1726.96	  431.39
     20.7700	  515.00	  550.96	-1762.67	  431.09
     20.8700	  544.00	  550.71	-1733.42	  430.79
     20.9700	  577.00	  550.39	-1700.10	  430.49
     21.0700	  555.00	  550.10	-1721.82	  430.19
     21.1700	  520.00	  549.82	-1756.53	  429.89
     21.2700	  565.00	  549.54	-1711.25	  429.58
     21.3700	  561.00	  549.26	-1714.97	  429.28
     21.4700	  536.00	  548.97	-1739.69	  428.98
     21.5700	  532.00	  548.69	-1743.41	  428.67
     21.6700	  551.00	  548.42	-1724.13	  428.37
     21.7700	  566.00	  548.14	-1708.85	  428.06
     21.8700	  557.00	  547.86	-1717.57	  427.75
     21.9700	  573.00	  547.59	-1701.30	  427.45
     22.0700	  586.00	  547.32	-1688.03	  427.14
     22.1700	  521.00	  547.05	-1752.76	  426.83
     22.2700	  537.00	  546.78	-1736.49	  426.52
     22.3700	  584.00	  546.52	-1689.23	  426.22
     22.4700	  552.00	  546.26	-1720.97	  425.91
     22.5700	  542.00	  546.01	-1730.72	  425.60
     22.6700	  527.00	  545.76	-1745.48	  425.29
     22.7700	  560.00	  545.53	-1712.24	  424.98
     22.8700	  535.00	  545.30	-1737.01	  424.67
     22.9700	  543.00	  545.08	-1728.79	  424.36
     23.0700	  540.00	  544.87	-1731.58	  424.05
     23.1700	  539.00	  544.68	-1732.40	  423.74
     23.2700	  532.00	  544.52	-1739.23	  423.43
     23.3700	  558.00	  544.38	-1713.09	  423.12
     23.4700	  531.00	  544.28	-1739.99	  422.81
     23.5700	  563.00	  544.23	-1707.94	  422.50
     23.6700	  586.00	  544.38	-1685.09	  422.19
     23.7700	  504.00	  544.53	-1767.24	  421.88
     23.8700	  552.00	  544.90	-1719.61	  421.57
     23.9700	  565.00	  545.72	-1707.43	  421.26
     24.0700	  559.00	  547.39	-1715.10	  420.95
     24.1700	  558.00	  550.53	-1719.24	  420.64
     24.2700	  544.00	  555.91	-1738.62	  420.33
     24.3700	  600.00	  564.41	-1691.12	  420.02
     24.4700	  589.00	  576.83	-1714.55	  419.71
     24.5700	  599.00	  593.13	-1720.84	  419.40
     24.6700	  638.00	  610.46	-1699.18	  419.09
     24.7700	  610.00	  621.82	-1738.53	  418.78
     24.8700	  628.00	  618.23	-1716.94	  418.47
     24.9700	  593.00	  599.26	-1732.97	  418.16
     25.0700	  638.00	  576.73	-1665.44	  417.85
     25.1700	  579.00	  559.73	-1707.44	  417.54
     25.2700	  508.00	  549.84	-1768.55	  417.23
     25.3700	  545.00	  544.98	-1726.69	  416.92
     25.4700	  503.00	  542.68	-1766.39	  416.62
     25.5700	  543.00	  541.44	-1725.16	  416.31
     25.6700	  576.00	  540.65	-1691.36	  416.00
     25.7700	  508.00	  540.07	-1758.78	  415.70
     25.8700	  561.00	  539.64	-1705.35	  415.39
     25.9700	  547.00	  539.32	-1719.03	  415.08
     26.0700	  568.00	  539.08	-1697.79	  414.78
     26.1700	  553.00	  538.93	-1712.64	  414.47
     26.2700	  590.00	  538.85	-1675.56	  414.17
     26.3700	  561.00	  538.85	-1704.56	  413.86
     26.4700	  523.00	  538.93	-1742.64	  413.56
     26.5700	  518.00	  539.11	-1747.82	  413.26
     26.6700	  525.00	  539.40	-1741.12	  412.95
     26.7700	  544.00	  539.83	-1722.54	  412.65
     26.8700	  543.00	  540.43	-1724.14	  412.35
     26.9700	  580.00	  541.25	-1687.96	  412.05
     27.0700	  523.00	  542.37	-1746.08	  411.75
     27.1700	  575.00	  543.91	-1695.62	  411.45
     27.2700	  576.00	  546.11	-1696.82	  411.15
     27.3700	  543.00	  549.45	-1733.16	  410.85
     27.4700	  539.00	  554.90	-1742.61	  410.55
     27.5700	  554.00	  564.18	-1736.89	  410.26
     27.6700	  619.00	  580.11	-1687.82	  409.96
     27.7700	  577.00	  606.38	-1756.09	  409.66
     27.8700	  566.00	  646.40	-1807.11	  409.37
     27.9700	  695.00	  700.78	-1732.49	  409.08
     28.0700	  765.00	  763.80	-1725.51	  408.78
     28.1700	  916.00	  820.24	-1630.96	  408.49
     28.2700	  976.00	  846.34	-1597.05	  408.20
     28.3700	  910.00	  826.26	-1642.97	  407.91
     28.4700	  783.00	  780.30	-1724.01	  407.61
     28.5700	  711.00	  746.26	-1761.97	  407.32
     28.6700	  730.00	  742.64	-1739.35	  407.04
     28.7700	  714.00	  765.61	-1778.32	  406.75
     28.8700	  832.00	  795.16	-1689.87	  406.46
     28.9700	  818.00	  802.37	-1711.08	  406.17
     29.0700	  735.00	  767.36	-1759.07	  405.89
     29.1700	  728.00	  704.15	-1702.86	  405.60
     29.2700	  617.00	  642.49	-1752.20	  405.32
     29.3700	  600.00	  597.48	-1724.19	  405.04
     29.4700	  584.00	  570.09	-1712.80	  404.76
     29.5700	  568.00	  555.27	-1713.98	  404.48
     29.6700	  579.00	  547.48	-1695.19	  404.20
     29.7700	  599.00	  543.12	-1670.83	  403.92
     29.8700	  609.00	  540.42	-1658.13	  403.64
     29.9700	  522.00	  538.71	-1743.42	  403.36
     30.0700	  574.00	  537.82	-1690.53	  403.09
     30.1700	  595.00	  537.88	-1669.59	  402.81
     30.2700	  581.00	  539.40	-1685.11	  402.54
     30.3700	  589.00	  543.37	-1681.08	  402.26
     30.4700	  601.00	  551.31	-1677.02	  401.99
     30.5700	  588.00	  564.84	-1703.55	  401.72
     30.6700	  547.00	  584.44	-1764.15	  401.45
     30.7700	  611.00	  607.80	-1723.51	  401.18
     30.8700	  648.00	  628.48	-1707.20	  400.92
     30.9700	  615.00	  636.41	-1748.12	  400.65
     31.0700	  632.00	  624.35	-1719.06	  400.38
     31.1700	  543.00	  598.42	-1782.13	  400.12
     31.2700	  563.00	  571.85	-1735.56	  399.86
     31.3700	  550.00	  551.95	-1728.67	  399.60
     31.4700	  533.00	  539.70	-1733.41	  399.33
     31.5700	  541.00	  533.08	-1718.79	  399.07
     31.6700	  518.00	  529.66	-1738.37	  398.82
     31.7700	  529.00	  527.79	-1725.50	  398.56
     31.8700	  522.00	  526.63	-1731.34	  398.30
     31.9700	  488.00	  525.84	-1764.55	  398.05
     32.0700	  520.00	  525.29	-1732.00	  397.80
     32.1700	  542.00	  524.92	-1709.64	  397.54
     32.2700	  544.00	  524.72	-1707.44	  397.29
     32.3700	  599.00	  524.68	-1652.39	  397.04
     32.4700	  533.00	  524.79	-1718.51	  396.79
     32.5700	  519.00	  525.08	-1732.80	  396.55
     32.6700	  575.00	  525.58	-1677.29	  396.30
     32.7700	  522.00	  526.32	-1731.04	  396.06
     32.8700	  554.00	  527.39	-1700.10	  395.81
     32.9700	  512.00	  528.90	-1743.62	  395.57
     33.0700	  519.00	  531.08	-1738.79	  395.33
     33.1700	  560.00	  534.39	-1701.10	  395.09
     33.2700	  550.00	  539.91	-1716.62	  394.85
     33.3700	  584.00	  549.92	-1692.63	  394.62
     33.4700	  557.00	  568.75	-1738.47	  394.38
     33.5700	  570.00	  603.22	-1759.93	  394.15
     33.6700	  629.00	  661.06	-1758.77	  393.91
     33.7700	  727.00	  745.64	-1745.35	  393.68
     33.8700	  872.00	  847.94	-1702.66	  393.45
     33.9700	  981.00	  941.06	-1686.77	  393.22
     34.0700	 1087.00	  983.53	-1623.24	  393.00
     34.1700	 1032.00	  943.87	-1638.58	  392.77
     34.2700	  885.00	  842.10	-1683.81	  392.55
     34.3700	  734.00	  730.85	-1723.57	  392.32
     34.4700	  641.00	  643.54	-1729.25	  392.10
     34.5700	  639.00	  587.72	-1675.43	  391.88
     34.6700	  528.00	  556.94	-1755.65	  391.66
     34.7700	  536.00	  541.23	-1731.95	  391.44
     34.8700	  534.00	  533.00	-1725.71	  391.23
     34.9700	  548.00	  528.14	-1706.85	  391.01
     35.0700	  519.00	  524.79	-1732.51	  390.80
     35.1700	  465.00	  522.29	-1784.00	  390.59
     35.2700	  482.00	  520.31	-1765.03	  390.38
     35.3700	  535.00	  518.72	-1710.43	  390.17
     35.4700	  496.00	  517.40	-1748.11	  389.96
     35.5700	  501.00	  516.29	-1742.00	  389.76
     35.6700	  493.00	  515.34	-1749.05	  389.55
     35.7700	  533.00	  514.52	-1708.23	  389.35
     35.8700	  504.00	  513.80	-1736.51	  389.15
     35.9700	  549.00	  513.17	-1690.88	  388.95
     36.0700	  509.00	  513.06	-1730.77	  388.75
     36.1700	  531.00	  512.57	-1708.28	  388.56
     36.2700	  490.00	  512.12	-1748.83	  388.36
     36.3700	  502.00	  511.72	-1736.43	  388.17
     36.4700	  512.00	  511.37	-1726.08	  387.98
     36.5700	  536.00	  511.05	-1701.77	  387.79
     36.6700	  463.00	  510.79	-1774.50	  387.60
     36.7700	  514.00	  510.58	-1723.29	  387.41
     36.8700	  516.00	  510.45	-1721.16	  387.22
     36.9700	  500.00	  510.48	-1737.19	  387.04
     37.0700	  502.00	  510.82	-1735.53	  386.86
     37.1700	  529.00	  511.74	-1709.46	  386.67
     37.2700	  569.00	  513.62	-1671.33	  386.49
     37.3700	  504.00	  516.75	-1739.46	  386.32
     37.4700	  515.00	  521.04	-1732.75	  386.14
     37.5700	  544.00	  525.65	-1708.36	  385.96
     37.6700	  516.00	  529.03	-1739.74	  385.79
     37.7700	  530.00	  529.51	-1726.22	  385.62
     37.8700	  516.00	  526.99	-1737.70	  385.45
     37.9700	  531.00	  523.03	-1718.74	  385.28
     38.0700	  502.00	  518.94	-1743.65	  385.11
     38.1700	  533.00	  515.22	-1708.93	  384.95
     38.2700	  523.00	  512.14	-1715.85	  384.78
     38.3700	  515.00	  509.84	-1721.56	  384.62
     38.4700	  564.00	  508.27	-1670.98	  384.46
     38.5700	  530.00	  507.25	-1703.96	  384.30
     38.6700	  496.00	  506.50	-1737.21	  384.14
     38.7700	  490.00	  506.06	-1742.78	  383.99
     38.8700	  531.00	  505.74	-1701.46	  383.83
     38.9700	  514.00	  505.49	-1718.20	  383.68
     39.0700	  515.00	  505.26	-1716.97	  383.53
     39.1700	  516.00	  505.06	-1715.77	  383.38
     39.2700	  515.00	  504.79	-1716.51	  383.23
     39.3700	  488.00	  504.76	-1743.48	  383.09
     39.4700	  522.00	  504.61	-1709.32	  382.94
     39.5700	  465.00	  504.47	-1766.18	  382.80
     39.6700	  547.00	  504.34	-1684.05	  382.66
     39.7700	  537.00	  504.21	-1693.92	  382.52
     39.8700	  479.00	  504.10	-1751.81	  382.38
     39.9700	  503.00	  504.00	-1727.71	  382.24
     40.0700	  474.00	  503.90	-1756.62	  382.11
     40.1700	  483.00	  503.82	-1747.53	  381.97
     40.2700	  494.00	  503.75	-1736.46	  381.84
     40.3700	  501.00	  503.69	-1729.40	  381.71
     40.4700	  479.00	  503.64	-1751.35	  381.58
     40.5700	  494.00	  503.61	-1736.32	  381.46
     40.6700	  497.00	  503.59	-1733.30	  381.33
     40.7700	  506.00	  503.60	-1724.31	  381.21
     40.8700	  469.00	  503.62	-1761.33	  381.09
     40.9700	  484.00	  503.67	-1746.39	  380.97
     41.0700	  459.00	  503.76	-1771.47	  380.85
     41.1700	  518.00	  503.88	-1712.60	  380.73
     41.2700	  474.00	  504.06	-1756.77	  380.62
     41.3700	  482.00	  504.27	-1748.98	  380.50
     41.4700	  502.00	  505.02	-1729.73	  380.39
     41.5700	  530.00	  505.46	-1702.18	  380.28
     41.6700	  520.00	  506.09	-1712.80	  380.17
     41.7700	  499.00	  507.02	-1734.74	  380.06
     41.8700	  498.00	  508.59	-1737.30	  379.96
     41.9700	  512.00	  511.46	-1726.17	  379.85
     42.0700	  447.00	  516.91	-1796.62	  379.75
     42.1700	  531.00	  526.87	-1722.58	  379.65
     42.2700	  521.00	  543.47	-1749.19	  379.55
     42.3700	  582.00	  567.77	-1712.48	  379.45
     42.4700	  577.00	  597.76	-1747.48	  379.36
     42.5700	  617.00	  626.73	-1736.44	  379.26
     42.6700	  617.00	  644.18	-1753.89	  379.17
     42.7700	  569.00	  640.98	-1798.70	  379.08
     42.8700	  571.00	  618.10	-1773.81	  378.99
     42.9700	  558.00	  586.81	-1755.52	  378.90
     43.0700	  559.00	  557.65	-1725.36	  378.82
     43.1700	  545.00	  535.73	-1717.44	  378.73
     43.2700	  555.00	  521.67	-1693.39	  378.65
     43.3700	  519.00	  513.71	-1721.42	  378.57
     43.4700	  514.00	  509.52	-1722.23	  378.49
     43.5700	  478.00	  507.31	-1756.03	  378.41
     43.6700	  518.00	  506.05	-1714.76	  378.33
     43.7700	  520.00	  505.45	-1712.17	  378.26
     43.8700	  497.00	  504.87	-1734.58	  378.18
     43.9700	  570.00	  504.43	-1661.14	  378.11
     44.0700	  525.00	  504.09	-1705.80	  378.04
     44.1700	  499.00	  503.83	-1731.54	  377.97
     44.2700	  514.00	  503.63	-1716.34	  377.91
     44.3700	  514.00	  503.48	-1716.19	  377.84
     44.4700	  541.00	  503.37	-1689.08	  377.78
     44.5700	  510.00	  503.30	-1720.01	  377.71
     44.6700	  495.00	  503.26	-1734.97	  377.65
     44.7700	  463.00	  503.12	-1766.83	  377.59
     44.8700	  497.00	  503.14	-1732.85	  377.54
     44.9700	  556.00	  503.18	-1673.89	  377.48
     45.0700	  508.00	  503.24	-1721.95	  377.43
     45.1700	  539.00	  503.50	-1691.21	  377.37
     45.2700	  491.00	  503.61	-1739.32	  377.32
     45.3700	  472.00	  503.74	-1758.45	  377.27
     45.4700	  484.00	  503.89	-1746.60	  377.22
     45.5700	  510.00	  504.07	-1720.78	  377.18
     45.6700	  518.00	  504.27	-1712.99	  377.13
     45.7700	  517.00	  504.51	-1714.22	  377.09
     45.8700	  531.00	  504.77	-1700.48	  377.05
     45.9700	  528.00	  505.06	-1703.78	  377.01
     46.0700	  513.00	  505.40	-1719.11	  376.97
     46.1700	  484.00	  505.77	-1748.48	  376.93
     46.2700	  490.00	  506.20	-1742.91	  376.89
     46.3700	  475.00	  506.68	-1758.39	  376.86
     46.4700	  521.00	  507.23	-1712.94	  376.83
     46.5700	  473.00	  507.86	-1761.57	  376.80
     46.6700	  511.00	  508.59	-1724.30	  376.77
     46.7700	  541.00	  509.47	-1695.18	  376.74
     46.8700	  520.00	  510.56	-1717.27	  376.71
     46.9700	  503.00	  512.05	-1735.76	  376.69
     47.0700	  497.00	  514.32	-1744.03	  376.66
     47.1700	  488.00	  518.06	-1756.77	  376.64
     47.2700	  541.00	  524.32	-1710.03	  376.62
     47.3700	  525.00	  534.57	-1736.28	  376.60
     47.4700	  543.00	  549.98	-1733.69	  376.58
     47.5700	  531.00	  570.54	-1766.25	  376.56
     47.6700	  559.00	  593.97	-1761.68	  376.55
     47.7700	  625.00	  615.10	-1716.81	  376.54
     47.8700	  618.00	  626.84	-1735.55	  376.52
     47.9700	  593.00	  624.20	-1757.92	  376.51
     48.0700	  593.00	  609.02	-1742.73	  376.50
     48.1700	  560.00	  588.52	-1755.23	  376.50
     48.2700	  580.00	  569.32	-1716.03	  376.49
     48.3700	  530.00	  555.01	-1751.73	  376.49
     48.4700	  556.00	  546.51	-1717.22	  376.48
     48.5700	  489.00	  543.07	-1780.78	  376.48
     48.6700	  562.00	  543.37	-1708.08	  376.48
     48.7700	  552.00	  546.28	-1720.99	  376.48
     48.8700	  499.00	  551.18	-1778.90	  376.48
     48.9700	  544.00	  558.04	-1740.75	  376.49
     49.0700	  542.00	  567.40	-1752.11	  376.49
     49.1700	  603.00	  580.77	-1704.48	  376.50
     49.2700	  605.00	  601.38	-1723.09	  376.50
     49.3700	  645.00	  635.50	-1717.21	  376.51
     49.4700	  655.00	  694.22	-1765.93	  376.52
     49.5700	  733.00	  792.62	-1786.33	  376.54
     49.6700	  842.00	  949.35	-1834.07	  376.55
     49.7700	 1174.00	 1178.78	-1731.49	  376.56
     49.8700	 1465.00	 1480.43	-1742.14	  376.58
     49.9700	 1818.00	 1827.15	-1735.86	  376.60
     50.0700	 2173.00	 2155.73	-1709.45	  376.61
     50.1700	 2435.00	 2370.69	-1662.40	  376.63
     50.2700	 2483.00	 2384.41	-1628.12	  376.65
     50.3700	 2245.00	 2188.52	-1670.23	  376.68
     50.4700	 1798.00	 1866.26	-1794.97	  376.70
     50.5700	 1373.00	 1519.60	-1873.32	  376.73
     50.6700	 1095.00	 1217.14	-1848.85	  376.75
     50.7700	  895.00	  988.97	-1820.68	  376.78
     50.8700	  729.00	  836.63	-1834.34	  376.81
     50.9700	  631.00	  744.62	-1840.33	  376.84
     51.0700	  662.00	  691.49	-1756.21	  376.87
     51.1700	  638.00	  658.19	-1746.90	  376.90
     51.2700	  611.00	  632.70	-1748.41	  376.94
     51.3700	  572.00	  610.58	-1765.29	  376.97
     51.4700	  613.00	  591.46	-1705.18	  377.01
     51.5700	  530.00	  575.94	-1772.65	  377.05
     51.6700	  546.00	  564.25	-1744.96	  377.08
     51.7700	  551.00	  556.06	-1731.77	  377.12
     51.8700	  558.00	  550.63	-1719.34	  377.17
     51.9700	  544.00	  547.19	-1729.90	  377.21
     52.0700	  535.00	  545.12	-1736.84	  377.25
     52.1700	  562.00	  544.35	-1709.06	  377.30
     52.2700	  552.00	  544.32	-1719.04	  377.34
     52.3700	  566.00	  545.45	-1706.16	  377.39
     52.4700	  545.00	  548.26	-1729.97	  377.44
     52.5700	  569.00	  554.00	-1711.71	  377.49
     52.6700	  567.00	  565.14	-1724.85	  377.54
     52.7700	  586.00	  586.01	-1726.72	  377.59
     52.8700	  669.00	  622.91	-1680.62	  377.64
     52.9700	  768.00	  683.10	-1641.81	  377.70
     53.0700	  892.00	  771.94	-1606.65	  377.75
     53.1700	  950.00	  888.47	-1665.18	  377.81
     53.2700	 1018.00	 1021.11	-1729.83	  377.86
     53.3700	 1167.00	 1145.01	-1704.73	  377.92
     53.4700	 1237.00	 1224.81	-1714.53	  377.98
     53.5700	 1139.00	 1229.51	-1817.22	  378.04
     53.6700	 1097.00	 1156.50	-1786.21	  378.10
     53.7700	  952.00	 1034.91	-1809.62	  378.17
     53.8700	  877.00	  901.51	-1751.22	  378.23
     53.9700	  773.00	  782.67	-1736.38	  378.30
     54.0700	  697.00	  691.21	-1720.92	  378.36
     54.1700	  620.00	  628.85	-1735.56	  378.43
     54.2700	  610.00	  590.55	-1707.26	  378.50
     54.3700	  586.00	  568.97	-1709.68	  378.57
     54.4700	  590.00	  557.57	-1694.28	  378.64
     54.5700	  595.00	  551.79	-1683.51	  378.71
     54.6700	  598.00	  549.01	-1677.72	  378.78
     54.7700	  574.00	  547.85	-1700.57	  378.85
     54.8700	  531.00	  547.80	-1743.51	  378.93
     54.9700	  574.00	  548.58	-1701.29	  379.00
     55.0700	  552.00	  550.14	-1724.85	  379.08
     55.1700	  539.00	  552.44	-1740.15	  379.15
     55.2700	  547.00	  555.55	-1735.26	  379.23
     55.3700	  582.00	  559.61	-1704.32	  379.31
     55.4700	  576.00	  564.83	-1715.54	  379.39
     55.5700	  526.00	  571.62	-1772.33	  379.47
     55.6700	  552.00	  580.80	-1755.52	  379.55
     55.7700	  601.00	  594.04	-1719.75	  379.63
     55.8700	  627.00	  614.67	-1714.38	  379.72
     55.9700	  614.00	  648.90	-1761.61	  379.80
     56.0700	  699.00	  706.99	-1734.70	  379.88
     56.1700	  724.00	  803.66	-1806.37	  379.97
     56.2700	  869.00	  956.31	-1814.02	  380.06
     56.3700	 1113.00	 1179.75	-1793.46	  380.14
     56.4700	 1409.00	 1478.09	-1795.80	  380.23
     56.5700	 1723.00	 1835.06	-1838.77	  380.32
     56.6700	 2040.00	 2206.72	-1893.43	  380.41
     56.7700	 2496.00	 2519.25	-1749.97	  380.50
     56.8700	 2633.00	 2682.73	-1776.44	  380.59
     56.9700	 2630.00	 2636.59	-1733.30	  380.69
     57.0700	 2249.00	 2398.61	-1876.32	  380.78
     57.1700	 2091.00	 2050.39	-1686.10	  380.87
     57.2700	 1697.00	 1679.51	-1709.22	  380.97
     57.3700	 1376.00	 1347.32	-1698.03	  381.06
     57.4700	 1094.00	 1084.78	-1717.49	  381.16
     57.5700	  903.00	  898.25	-1721.97	  381.26
     57.6700	  759.00	  778.04	-1745.76	  381.35
     57.7700	  729.00	  707.98	-1705.69	  381.45
     57.8700	  671.00	  672.64	-1728.35	  381.55
     57.9700	  618.00	  661.03	-1769.75	  381.65
     58.0700	  675.00	  667.28	-1718.99	  381.75
     58.1700	  689.00	  689.33	-1727.04	  381.85
     58.2700	  796.00	  727.21	-1657.92	  381.95
     58.3700	  798.00	  781.10	-1709.81	  382.06
     58.4700	  981.00	  849.82	-1595.54	  382.16
     58.5700	 1032.00	  929.31	-1624.02	  382.26
     58.6700	 1199.00	 1012.02	-1539.73	  382.37
     58.7700	 1264.00	 1089.09	-1551.80	  382.47
     58.8700	 1442.00	 1154.42	-1439.13	  382.58
     58.9700	 1450.00	 1204.90	-1481.61	  382.69
     59.0700	 1555.00	 1236.22	-1407.93	  382.79
     59.1700	 1487.00	 1243.78	-1483.49	  382.90
     59.2700	 1446.00	 1229.85	-1510.56	  383.01
     59.3700	 1372.00	 1204.45	-1559.16	  383.12
     59.4700	 1355.00	 1178.18	-1549.89	  383.23
     59.5700	 1203.00	 1158.62	-1682.33	  383.33
     59.6700	 1075.00	 1153.81	-1805.52	  383.44
     59.7700	 1171.00	 1173.94	-1729.65	  383.56
     59.8700	 1268.00	 1225.92	-1684.63	  383.67
     59.9700	 1316.00	 1306.64	-1717.35	  383.78
     60.0700	 1449.00	 1400.21	-1677.92	  383.89
     60.1700	 1584.00	 1478.63	-1621.34	  384.00
     60.2700	 1594.00	 1508.66	-1641.37	  384.12
     60.3700	 1454.00	 1468.85	-1741.56	  384.23
     60.4700	 1438.00	 1364.82	-1653.53	  384.34
     60.5700	 1220.00	 1223.15	-1729.86	  384.46
     60.6700	 1123.00	 1073.10	-1676.81	  384.57
     60.7700	  925.00	  936.29	-1738.01	  384.69
     60.8700	  772.00	  825.03	-1779.74	  384.81
     60.9700	  714.00	  743.65	-1756.36	  384.92
     61.0700	  653.00	  691.18	-1764.89	  385.04
     61.1700	  634.00	  664.26	-1756.98	  385.16
     61.2700	  594.00	  660.07	-1792.78	  385.27
     61.3700	  611.00	  677.98	-1793.69	  385.39
     61.4700	  693.00	  719.79	-1753.50	  385.51
     61.5700	  733.00	  788.56	-1782.28	  385.63
     61.6700	  900.00	  886.18	-1712.89	  385.75
     61.7700	  948.00	 1010.39	-1789.10	  385.87
     61.8700	 1021.00	 1152.26	-1857.97	  385.99
     61.9700	 1224.00	 1294.29	-1797.00	  386.11
     62.0700	 1335.00	 1410.51	-1802.22	  386.23
     62.1700	 1377.00	 1471.25	-1820.96	  386.35
     62.2700	 1375.00	 1456.77	-1808.48	  386.47
     62.3700	 1288.00	 1371.37	-1810.08	  386.59
     62.4700	 1175.00	 1240.10	-1791.82	  386.71
     62.5700	 1025.00	 1092.54	-1794.25	  386.83
     62.6700	  936.00	  951.84	-1742.55	  386.95
     62.7700	  780.00	  832.18	-1778.89	  387.08
     62.8700	  673.00	  739.45	-1793.17	  387.20
     62.9700	  643.00	  673.24	-1756.95	  387.32
     63.0700	  600.00	  629.24	-1755.96	  387.44
     63.1700	  555.00	  601.82	-1773.53	  387.57
     63.2700	  591.00	  585.74	-1721.45	  387.69
     63.3700	  607.00	  577.08	-1696.80	  387.81
     63.4700	  577.00	  573.56	-1723.27	  387.94
     63.5700	  565.00	  574.32	-1736.03	  388.06
     63.6700	  617.00	  579.74	-1689.46	  388.18
     63.7700	  601.00	  591.19	-1716.91	  388.31
     63.8700	  647.00	  610.65	-1690.36	  388.43
     63.9700	  666.00	  640.21	-1700.93	  388.56
     64.0700	  681.00	  681.29	-1727.00	  388.68
     64.1700	  814.00	  733.70	-1646.41	  388.81
     64.2700	  912.00	  794.77	-1609.49	  388.93
     64.3700	  899.00	  858.72	-1686.43	  389.05
     64.4700	  997.00	  916.51	-1646.22	  389.18
     64.5700	 1018.00	  957.08	-1665.79	  389.30
     64.6700	 1057.00	  972.97	-1642.68	  389.43
     64.7700	 1068.00	  961.59	-1620.31	  389.55
     64.8700	  991.00	  927.06	-1662.77	  389.68
     64.9700	  948.00	  877.49	-1656.21	  389.80
     65.0700	  876.00	  822.17	-1672.89	  389.93
     65.1700	  789.00	  768.75	-1706.47	  390.05
     65.2700	  735.00	  721.71	-1713.42	  390.18
     65.3700	  689.00	  682.45	-1720.16	  390.30
     65.4700	  652.00	  650.58	-1725.30	  390.43
     65.5700	  647.00	  625.23	-1704.94	  390.55
     65.6700	  605.00	  605.54	-1727.25	  390.68
     65.7700	  573.00	  590.70	-1744.41	  390.80
     65.8700	  585.00	  579.94	-1721.65	  390.93
     65.9700	  523.00	  572.60	-1776.31	  391.05
     66.0700	  584.00	  568.08	-1710.79	  391.17
     66.1700	  577.00	  565.88	-1715.59	  391.30
     66.2700	  607.00	  565.54	-1685.26	  391.42
     66.3700	  540.00	  566.77	-1753.48	  391.55
     66.4700	  513.00	  569.49	-1783.20	  391.67
     66.5700	  561.00	  573.56	-1739.27	  391.79
     66.6700	  578.00	  579.51	-1728.22	  391.92
     66.7700	  602.00	  588.29	-1713.01	  392.04
     66.8700	  622.00	  601.73	-1706.44	  392.17
     66.9700	  606.00	  622.96	-1743.67	  392.29
     67.0700	  648.00	  656.89	-1735.60	  392.41
     67.1700	  726.00	  710.47	-1711.18	  392.53
     67.2700	  730.00	  792.40	-1789.11	  392.66
     67.3700	  917.00	  911.93	-1721.64	  392.78
     67.4700	 1089.00	 1076.55	-1714.26	  392.90
     67.5700	 1322.00	 1288.46	-1693.17	  393.02
     67.6700	 1552.00	 1541.60	-1716.31	  393.14
     67.7700	 1902.00	 1818.51	-1643.23	  393.27
     67.8700	 2095.00	 2089.18	-1720.89	  393.39
     67.9700	 2340.00	 2312.21	-1698.92	  393.51
     68.0700	 2435.00	 2441.38	-1733.10	  393.63
     68.1700	 2471.00	 2443.41	-1699.12	  393.75
     68.2700	 2283.00	 2317.83	-1761.54	  393.87
     68.3700	 2078.00	 2096.96	-1745.67	  393.99
     68.4700	 1850.00	 1827.15	-1703.86	  394.11
     68.5700	 1529.00	 1550.20	-1747.91	  394.23
     68.6700	 1251.00	 1296.54	-1772.25	  394.34
     68.7700	 1072.00	 1083.81	-1738.52	  394.46
     68.8700	  891.00	  918.41	-1754.12	  394.58
     68.9700	  781.00	  798.21	-1743.92	  394.70
     69.0700	  683.00	  715.83	-1759.54	  394.82
     69.1700	  618.00	  662.07	-1770.78	  394.93
     69.2700	  589.00	  628.17	-1765.89	  395.05
     69.3700	  641.00	  607.13	-1692.84	  395.16
     69.4700	  612.00	  593.97	-1708.68	  395.28
     69.5700	  574.00	  585.49	-1738.20	  395.40
     69.6700	  540.00	  579.81	-1766.52	  395.51
     69.7700	  559.00	  575.88	-1743.59	  395.62
     69.8700	  597.00	  573.15	-1702.86	  395.74
     69.9700	  571.00	  571.33	-1727.04	  395.85
     70.0700	  579.00	  570.29	-1718.00	  395.96
     70.1700	  603.00	  570.00	-1693.71	  396.08
     70.2700	  577.00	  570.44	-1720.15	  396.19
     70.3700	  548.00	  571.74	-1750.46	  396.30
     70.4700	  573.00	  574.16	-1727.87	  396.41
     70.5700	  594.00	  578.20	-1710.91	  396.52
     70.6700	  543.00	  584.76	-1768.47	  396.63
     70.7700	  557.00	  595.40	-1765.11	  396.74
     70.8700	  607.00	  612.60	-1732.31	  396.85
     70.9700	  601.00	  639.91	-1765.63	  396.96
     71.0700	  631.00	  682.11	-1777.82	  397.07
     71.1700	  675.00	  744.70	-1796.41	  397.17
     71.2700	  848.00	  833.20	-1711.91	  397.28
     71.3700	  963.00	  951.57	-1715.28	  397.38
     71.4700	 1072.00	 1100.41	-1755.12	  397.49
     71.5700	 1201.00	 1275.14	-1800.85	  397.59
     71.6700	 1479.00	 1465.47	-1713.19	  397.70
     71.7700	 1625.00	 1651.72	-1753.43	  397.80
     71.8700	 1855.00	 1809.94	-1681.66	  397.90
     71.9700	 1925.00	 1912.46	-1714.17	  398.01
     72.0700	 1826.00	 1936.89	-1837.61	  398.11
     72.1700	 1892.00	 1877.40	-1712.11	  398.21
     72.2700	 1748.00	 1748.15	-1726.86	  398.31
     72.3700	 1615.00	 1575.25	-1686.96	  398.41
     72.4700	 1443.00	 1385.30	-1669.01	  398.51
     72.5700	 1322.00	 1201.07	-1605.78	  398.61
     72.6700	 1047.00	 1037.02	-1716.73	  398.70
     72.7700	  982.00	  901.08	-1645.79	  398.80
     72.8700	  914.00	  795.30	-1608.01	  398.90
     72.9700	  798.00	  717.37	-1646.08	  398.99
     73.0700	  744.00	  662.63	-1645.34	  399.09
     73.1700	  744.00	  625.56	-1608.27	  399.18
     73.2700	  681.00	  601.05	-1646.76	  399.27
     73.3700	  635.00	  584.97	-1676.68	  399.36
     73.4700	  647.00	  574.32	-1654.03	  399.46
     73.5700	  611.00	  567.10	-1682.81	  399.55
     73.6700	  623.00	  562.07	-1665.78	  399.64
     73.7700	  589.00	  558.49	-1696.20	  399.73
     73.8700	  554.00	  555.95	-1728.66	  399.81
     73.9700	  585.00	  554.18	-1695.89	  399.90
     74.0700	  579.00	  553.03	-1700.74	  399.99
     74.1700	  609.00	  552.34	-1670.05	  400.07
     74.2700	  608.00	  551.98	-1670.69	  400.16
     74.3700	  605.00	  551.79	-1673.50	  400.24
     74.4700	  660.00	  551.60	-1618.31	  400.33
     74.5700	  642.00	  551.24	-1635.95	  400.41
     74.6700	  667.00	  550.60	-1610.31	  400.49
     74.7700	  604.00	  549.67	-1672.38	  400.57
     74.8700	  585.00	  548.55	-1690.26	  400.65
     74.9700	  575.00	  547.42	-1699.14	  400.73
     75.0700	  578.00	  546.51	-1695.22	  400.81
     75.1700	  611.00	  546.01	-1661.72	  400.89
     75.2700	  593.00	  546.32	-1680.03	  400.96
     75.3700	  550.00	  547.77	-1724.48	  401.04
     75.4700	  582.00	  550.74	-1695.45	  401.11
     75.5700	  561.00	  555.75	-1721.46	  401.19
     75.6700	  612.00	  563.50	-1678.21	  401.26
     75.7700	  596.00	  574.37	-1705.08	  401.33
     75.8700	  598.00	  588.67	-1717.38	  401.40
     75.9700	  648.00	  606.32	-1685.03	  401.47
     76.0700	  624.00	  626.73	-1729.44	  401.54
     76.1700	  626.00	  648.72	-1749.43	  401.61
     76.2700	  643.00	  670.42	-1754.13	  401.67
     76.3700	  696.00	  689.38	-1720.09	  401.74
     76.4700	  632.00	  702.83	-1797.54	  401.80
     76.5700	  763.00	  708.31	-1672.03	  401.87
     76.6700	  663.00	  704.67	-1768.39	  401.93
     76.7700	  655.00	  692.64	-1764.35	  401.99
     76.8700	  621.00	  674.45	-1780.17	  402.05
     76.9700	  648.00	  652.70	-1731.41	  402.11
     77.0700	  605.00	  630.31	-1752.02	  402.17
     77.1700	  586.00	  609.08	-1749.79	  402.23
     77.2700	  605.00	  590.35	-1712.07	  402.29
     77.3700	  554.00	  574.84	-1747.55	  402.34
     77.4700	  547.00	  562.68	-1742.39	  402.40
     77.5700	  491.00	  553.62	-1789.34	  402.45
     77.6700	  547.00	  547.18	-1726.89	  402.50
     77.7700	  504.00	  542.77	-1765.48	  402.55
     77.8700	  511.00	  539.84	-1755.56	  402.60
     77.9700	  504.00	  537.95	-1760.66	  402.65
     78.0700	  532.00	  536.73	-1731.44	  402.70
     78.1700	  488.00	  535.94	-1774.65	  402.75
     78.2700	  480.00	  535.43	-1782.14	  402.79
     78.3700	  509.00	  535.11	-1752.82	  402.84
     78.4700	  496.00	  534.92	-1765.63	  402.88
     78.5700	  537.00	  534.84	-1724.55	  402.92
     78.6700	  500.00	  534.87	-1761.58	  402.96
     78.7700	  492.00	  535.02	-1769.73	  403.00
     78.8700	  522.00	  535.31	-1740.02	  403.04
     78.9700	  539.00	  535.77	-1723.49	  403.08
     79.0700	  527.00	  536.46	-1736.17	  403.12
     79.1700	  550.00	  537.42	-1714.13	  403.15
     79.2700	  539.00	  538.69	-1726.40	  403.19
     79.3700	  493.00	  540.14	-1773.85	  403.22
     79.4700	  544.00	  542.18	-1724.90	  403.25
     79.5700	  514.00	  544.67	-1757.38	  403.28
     79.6700	  568.00	  547.65	-1706.36	  403.31
     79.7700	  522.00	  551.17	-1755.88	  403.34
     79.8700	  558.00	  555.33	-1724.05	  403.37
     79.9700	  558.00	  560.26	-1728.98	  403.39
     80.0700	  547.00	  566.16	-1745.88	  403.42
     80.1700	  573.00	  573.33	-1727.04	  403.44
     80.2700	  567.00	  582.10	-1741.81	  403.46
     80.3700	  615.00	  592.81	-1704.52	  403.48
     80.4700	  551.00	  605.63	-1781.35	  403.50
     80.5700	  577.00	  620.52	-1770.23	  403.52
     80.6700	  603.00	  637.09	-1760.81	  403.54
     80.7700	  695.00	  654.66	-1686.37	  403.56
     80.8700	  644.00	  672.16	-1754.87	  403.57
     80.9700	  709.00	  688.36	-1706.07	  403.58
     81.0700	  662.00	  702.06	-1766.78	  403.60
     81.1700	  717.00	  712.29	-1722.01	  403.61
     81.2700	  734.00	  718.34	-1711.05	  403.62
     81.3700	  680.00	  719.77	-1766.48	  403.63
     81.4700	  778.00	  716.51	-1665.23	  403.63
     81.5700	  740.00	  708.83	-1695.54	  403.64
     81.6700	  751.00	  697.23	-1672.94	  403.64
     81.7700	  692.00	  682.44	-1717.15	  403.65
     81.8700	  727.00	  665.47	-1665.18	  403.65
     81.9700	  679.00	  647.49	-1695.20	  403.65
     82.0700	  662.00	  629.66	-1694.37	  403.65
     82.1700	  637.00	  612.86	-1702.57	  403.65
     82.2700	  675.00	  597.83	-1649.54	  403.64
     82.3700	  637.00	  584.86	-1674.57	  403.64
     82.4700	  623.00	  574.12	-1677.83	  403.63
     82.5700	  572.00	  565.61	-1720.32	  403.63
     82.6700	  542.00	  559.21	-1743.92	  403.62
     82.7700	  544.00	  554.84	-1737.55	  403.61
     82.8700	  507.00	  552.33	-1772.04	  403.60
     82.9700	  523.00	  551.54	-1755.25	  403.59
     83.0700	  536.00	  552.35	-1743.06	  403.57
     83.1700	  521.00	  554.65	-1760.36	  403.56
     83.2700	  561.00	  558.30	-1724.02	  403.54
     83.3700	  547.00	  563.12	-1742.83	  403.52
     83.4700	  606.00	  568.83	-1689.55	  403.50
     83.5700	  539.00	  575.07	-1762.78	  403.48
     83.6700	  535.00	  581.33	-1773.04	  403.46
     83.7700	  569.00	  587.03	-1744.75	  403.44
     83.8700	  603.00	  591.51	-1715.22	  403.41
     83.9700	  564.00	  594.13	-1756.84	  403.39
     84.0700	  581.00	  594.44	-1740.15	  403.36
     84.1700	  568.00	  592.36	-1751.07	  403.33
     84.2700	  569.00	  588.19	-1745.90	  403.30
     84.3700	  595.00	  582.48	-1714.19	  403.27
     84.4700	  566.00	  575.89	-1736.60	  403.24
     84.5700	  557.00	  569.01	-1738.72	  403.20
     84.6700	  542.00	  562.33	-1747.04	  403.17
     84.7700	  552.00	  556.21	-1730.92	  403.13
     84.8700	  542.00	  550.88	-1735.59	  403.09
     84.9700	  551.00	  546.45	-1722.16	  403.05
     85.0700	  532.00	  542.93	-1737.64	  403.01
     85.1700	  515.00	  540.26	-1751.97	  402.97
     85.2700	  524.00	  538.33	-1741.04	  402.93
     85.3700	  543.00	  537.02	-1720.73	  402.88
     85.4700	  522.00	  536.22	-1740.94	  402.84
     85.5700	  552.00	  535.85	-1710.56	  402.79
     85.6700	  525.00	  535.83	-1737.55	  402.74
     85.7700	  530.00	  536.17	-1732.88	  402.69
     85.8700	  541.00	  536.89	-1722.60	  402.64
     85.9700	  531.00	  538.05	-1733.76	  402.58
     86.0700	  535.00	  539.78	-1731.49	  402.53
     86.1700	  540.00	  542.23	-1728.94	  402.47
     86.2700	  526.00	  545.57	-1746.28	  402.42
     86.3700	  542.00	  550.00	-1734.71	  402.36
     86.4700	  551.00	  555.67	-1731.38	  402.30
     86.5700	  563.00	  562.70	-1726.41	  402.24
     86.6700	  596.00	  571.10	-1701.81	  402.17
     86.7700	  568.00	  580.73	-1739.44	  402.11
     86.8700	  558.00	  591.28	-1759.99	  402.04
     86.9700	  626.00	  601.95	-1702.66	  401.98
     87.0700	  632.00	  612.70	-1707.41	  401.91
     87.1700	  621.00	  622.38	-1728.10	  401.84
     87.2700	  683.00	  630.07	-1673.79	  401.77
     87.3700	  633.00	  634.89	-1728.61	  401.69
     87.4700	  667.00	  636.22	-1695.93	  401.62
     87.5700	  639.00	  633.89	-1721.60	  401.54
     87.6700	  615.00	  628.30	-1740.01	  401.47
     87.7700	  649.00	  620.23	-1697.94	  401.39
     87.8700	  649.00	  610.67	-1688.38	  401.31
     87.9700	  600.00	  600.60	-1727.31	  401.23
     88.0700	  604.00	  590.91	-1713.62	  401.15
     88.1700	  618.00	  582.32	-1691.03	  401.06
     88.2700	  576.00	  575.38	-1726.09	  400.98
     88.3700	  551.00	  570.42	-1746.13	  400.89
     88.4700	  623.00	  567.61	-1671.32	  400.80
     88.5700	  594.00	  566.92	-1699.63	  400.71
     88.6700	  572.00	  568.17	-1722.88	  400.62
     88.7700	  559.00	  571.06	-1738.77	  400.53
     88.8700	  578.00	  575.16	-1723.87	  400.44
     88.9700	  582.00	  579.98	-1724.69	  400.34
     89.0700	  592.00	  584.95	-1719.67	  400.25
     89.1700	  598.00	  589.47	-1718.19	  400.15
     89.2700	  607.00	  592.94	-1712.66	  400.05
     89.3700	  600.00	  594.84	-1721.56	  399.95
     89.4700	  565.00	  594.84	-1756.56	  399.85
     89.5700	  599.00	  592.88	-1720.60	  399.74
     89.6700	  615.00	  589.19	-1700.90	  399.64
     89.7700	  564.00	  584.17	-1746.88	  399.54
     89.8700	  592.00	  578.31	-1713.02	  399.43
     89.9700	  536.00	  572.08	-1762.79	  399.32
     90.0700	  536.00	  565.90	-1756.61	  399.21
     90.1700	  562.00	  560.08	-1724.79	  399.10
     90.2700	  568.00	  554.87	-1713.58	  398.99
     90.3700	  516.00	  550.39	-1761.10	  398.87
     90.4700	  506.00	  546.70	-1767.41	  398.76
     90.5700	  533.00	  543.80	-1737.51	  398.64
     90.6700	  552.00	  541.63	-1716.35	  398.53
     90.7700	  505.00	  540.12	-1761.83	  398.41
     90.8700	  499.00	  539.16	-1766.87	  398.29
     90.9700	  540.00	  538.69	-1725.40	  398.16
     91.0700	  529.00	  538.65	-1736.36	  398.04
     91.1700	  532.00	  539.02	-1733.73	  397.92
     91.2700	  482.00	  539.80	-1784.52	  397.79
     91.3700	  547.00	  541.07	-1720.78	  397.67
     91.4700	  530.00	  542.92	-1739.63	  397.54
     91.5700	  527.00	  545.49	-1745.20	  397.41
     91.6700	  504.00	  548.97	-1771.68	  397.28
     91.7700	  507.00	  553.57	-1773.29	  397.15
     91.8700	  546.00	  559.54	-1740.25	  397.01
     91.9700	  563.00	  567.09	-1730.80	  396.88
     92.0700	  520.00	  576.19	-1782.91	  396.74
     92.1700	  574.00	  587.44	-1740.15	  396.61
     92.2700	  577.00	  600.65	-1750.36	  396.47
     92.3700	  582.00	  615.74	-1760.45	  396.33
     92.4700	  594.00	  632.49	-1765.21	  396.19
     92.5700	  662.00	  650.53	-1715.24	  396.05
     92.6700	  703.00	  669.32	-1693.03	  395.90
     92.7700	  696.00	  688.16	-1718.87	  395.76
     92.8700	  754.00	  706.27	-1678.98	  395.61
     92.9700	  734.00	  722.82	-1715.53	  395.47
     93.0700	  831.00	  737.13	-1632.84	  395.32
     93.1700	  843.00	  748.83	-1632.54	  395.17
     93.2700	  801.00	  758.01	-1683.72	  395.02
     93.3700	  763.00	  765.10	-1728.81	  394.87
     93.4700	  851.00	  770.79	-1646.50	  394.72
     93.5700	  811.00	  775.78	-1691.49	  394.56
     93.6700	  824.00	  780.75	-1683.46	  394.41
     93.7700	  849.00	  786.29	-1664.01	  394.25
     93.8700	  839.00	  793.00	-1680.71	  394.10
     93.9700	  821.00	  801.43	-1707.14	  393.94
     94.0700	  866.00	  812.04	-1672.75	  393.78
     94.1700	  846.00	  825.01	-1705.72	  393.62
     94.2700	  816.00	  840.16	-1750.87	  393.46
     94.3700	  845.00	  856.82	-1738.53	  393.29
     94.4700	  914.00	  873.87	-1686.58	  393.13
     94.5700	  938.00	  889.76	-1678.47	  392.97
     94.6700	  945.00	  902.67	-1684.38	  392.80
     94.7700	  948.00	  910.69	-1689.40	  392.63
     94.8700	  931.00	  912.21	-1707.92	  392.46
     94.9700	  924.00	  906.31	-1709.02	  392.29
     95.0700	  951.00	  893.04	-1668.75	  392.12
     95.1700	  890.00	  873.37	-1710.08	  391.95
     95.2700	  854.00	  848.94	-1721.65	  391.78
     95.3700	  775.00	  821.73	-1773.44	  391.61
     95.4700	  714.00	  793.77	-1806.49	  391.43
     95.5700	  799.00	  767.02	-1694.74	  391.26
     95.6700	  722.00	  743.27	-1747.98	  391.08
     95.7700	  665.00	  724.14	-1785.85	  390.90
     95.8700	  698.00	  711.07	-1739.78	  390.73
     95.9700	  696.00	  705.33	-1736.04	  390.55
     96.0700	  720.00	  708.01	-1714.72	  390.37
     96.1700	  722.00	  719.98	-1724.70	  390.19
     96.2700	  733.00	  741.93	-1735.64	  390.00
     96.3700	  696.00	  774.25	-1804.96	  389.82
     96.4700	  784.00	  816.97	-1759.69	  389.64
     96.5700	  894.00	  869.71	-1702.42	  389.45
     96.6700	  945.00	  931.49	-1713.20	  389.27
     96.7700	 1004.00	 1000.75	-1723.46	  389.08
     96.8700	 1026.00	 1075.23	-1775.94	  388.89
     96.9700	 1164.00	 1151.98	-1714.70	  388.70
     97.0700	 1213.00	 1227.39	-1741.10	  388.51
     97.1700	 1312.00	 1297.27	-1711.98	  388.32
     97.2700	 1342.00	 1357.14	-1741.85	  388.13
     97.3700	 1310.00	 1402.56	-1819.28	  387.94
     97.4700	 1416.00	 1429.83	-1740.54	  387.75
     97.5700	 1388.00	 1436.67	-1775.38	  387.56
     97.6700	 1430.00	 1422.83	-1719.54	  387.36
     97.7700	 1365.00	 1390.04	-1751.75	  387.17
     97.8700	 1354.00	 1341.58	-1714.29	  386.97
     97.9700	 1279.00	 1281.57	-1729.28	  386.77
     98.0700	 1258.00	 1214.34	-1683.05	  386.58
     98.1700	 1100.00	 1144.08	-1770.79	  386.38
     98.2700	 1091.00	 1074.60	-1710.31	  386.18
     98.3700	  982.00	 1009.16	-1753.87	  385.98
     98.4700	  907.00	  950.51	-1770.22	  385.78
     98.5700	  900.00	  900.85	-1727.56	  385.58
     98.6700	  840.00	  861.90	-1748.61	  385.38
     98.7700	  846.00	  834.93	-1715.64	  385.18
     98.8700	  822.00	  820.86	-1725.58	  384.98
     98.9700	  763.00	  820.34	-1784.05	  384.77
     99.0700	  799.00	  833.77	-1761.48	  384.57
     99.1700	  861.00	  861.37	-1727.09	  384.36
     99.2700	  869.00	  903.18	-1760.89	  384.16
     99.3700	  973.00	  958.99	-1712.70	  383.95
     99.4700	 1051.00	 1028.28	-1703.99	  383.75
     99.5700	 1034.00	 1110.15	-1802.86	  383.54
     99.6700	 1215.00	 1203.17	-1714.88	  383.33
     99.7700	 1192.00	 1305.31	-1840.03	  383.13
     99.8700	 1341.00	 1413.90	-1799.62	  382.92
     99.9700	 1463.00	 1525.47	-1789.18	  382.71
    100.0700	 1695.00	 1635.92	-1667.64	  382.50
    100.1700	 1754.00	 1740.72	-1713.43	  382.29
    100.2700	 1901.00	 1835.25	-1660.97	  382.08
    100.3700	 1960.00	 1915.43	-1682.15	  381.87
    100.4700	 2024.00	 1977.95	-1680.66	  381.66
    100.5700	 1986.00	 2020.53	-1761.24	  381.45
    100.6700	 2007.00	 2041.73	-1761.44	  381.24
    100.7700	 2074.00	 2040.79	-1693.50	  381.03
    100.8700	 2054.00	 2017.73	-1690.45	  380.81
    100.9700	 2022.00	 1973.60	-1678.31	  380.60
    101.0700	 1975.00	 1910.78	-1662.49	  380.39
    101.1700	 1886.00	 1833.04	-1673.75	  380.18
    101.2700	 1776.00	 1745.17	-1695.88	  379.96
    101.3700	 1635.00	 1652.35	-1744.06	  379.75
    101.4700	 1506.00	 1559.59	-1780.31	  379.53
    101.5700	 1515.00	 1471.21	-1682.93	  379.32
    101.6700	 1418.00	 1390.62	-1699.33	  379.11
    101.7700	 1332.00	 1320.15	-1714.86	  378.89
    101.8700	 1225.00	 1261.02	-1762.73	  378.68
    101.9700	 1199.00	 1213.45	-1741.16	  378.46
    102.0700	 1187.00	 1176.63	-1716.34	  378.25
    102.1700	 1164.00	 1148.95	-1711.67	  378.03
    102.2700	 1129.00	 1128.18	-1725.89	  377.82
    102.3700	 1094.00	 1111.58	-1744.29	  377.60
    102.4700	 1118.00	 1096.35	-1705.06	  377.39
    102.5700	 1105.00	 1079.86	-1701.57	  377.17
    102.6700	 1081.00	 1060.06	-1705.77	  376.96
    102.7700	 1029.00	 1035.71	-1733.42	  376.74
    102.8700	  991.00	 1006.44	-1742.15	  376.52
    102.9700	  967.00	  972.67	-1732.38	  376.31
    103.0700	  920.00	  935.35	-1742.06	  376.09
    103.1700	  899.00	  895.71	-1723.42	  375.88
    103.2700	  801.00	  855.05	-1780.76	  375.66
    103.3700	  822.00	  814.65	-1719.37	  375.45
    103.4700	  804.00	  775.65	-1698.37	  375.23
    103.5700	  747.00	  739.00	-1718.71	  375.02
    103.6700	  713.00	  705.41	-1719.12	  374.80
    103.7700	  708.00	  675.37	-1694.08	  374.59
    103.8700	  649.00	  649.13	-1726.84	  374.38
    103.9700	  631.00	  626.75	-1722.46	  374.16
    104.0700	  598.00	  608.10	-1736.81	  373.95
    104.1700	  611.00	  592.92	-1708.64	  373.73
    104.2700	  591.00	  580.88	-1716.59	  373.52
    104.3700	  568.00	  571.58	-1730.29	  373.31
    104.4700	  519.00	  564.62	-1772.34	  373.10
    104.5700	  569.00	  559.62	-1717.33	  372.88
    104.6700	  557.00	  556.20	-1725.91	  372.67
    104.7700	  502.00	  554.06	-1778.77	  372.46
    104.8700	  546.00	  552.92	-1733.63	  372.25
    104.9700	  497.00	  552.59	-1782.30	  372.04
    105.0700	  542.00	  552.89	-1737.60	  371.83
    105.1700	  564.00	  553.70	-1716.41	  371.62
    105.2700	  564.00	  554.91	-1717.63	  371.41
    105.3700	  503.00	  556.55	-1780.26	  371.20
    105.4700	  523.00	  558.58	-1762.29	  370.99
    105.5700	  504.00	  561.05	-1783.76	  370.79
    105.6700	  547.00	  564.05	-1743.76	  370.58
    105.7700	  549.00	  567.67	-1745.38	  370.37
    105.8700	  556.00	  572.01	-1742.72	  370.17
    105.9700	  527.00	  577.17	-1776.89	  369.96
    106.0700	  561.00	  583.21	-1748.93	  369.76
    106.1700	  603.00	  590.15	-1713.86	  369.56
    106.2700	  583.00	  597.95	-1741.67	  369.35
    106.3700	  601.00	  606.52	-1732.24	  369.15
    106.4700	  607.00	  615.70	-1735.42	  368.95
    106.5700	  583.00	  625.28	-1768.99	  368.75
    106.6700	  615.00	  634.97	-1746.68	  368.55
    106.7700	  690.00	  644.47	-1681.18	  368.35
    106.8700	  648.00	  653.42	-1732.13	  368.16
    106.9700	  602.00	  661.46	-1786.17	  367.96
    107.0700	  667.00	  668.27	-1727.98	  367.76
    107.1700	  649.00	  673.59	-1751.30	  367.57
    107.2700	  707.00	  677.30	-1697.01	  367.37
    107.3700	  650.00	  679.40	-1756.12	  367.18
    107.4700	  646.00	  680.10	-1760.81	  366.99
    107.5700	  715.00	  679.69	-1691.41	  366.80
    107.6700	  694.00	  678.56	-1711.28	  366.61
    107.7700	  675.00	  677.12	-1728.83	  366.42
    107.8700	  678.00	  675.71	-1724.43	  366.23
    107.9700	  697.00	  674.65	-1704.36	  366.05
    108.0700	  655.00	  674.13	-1745.84	  365.86
    108.1700	  695.00	  674.24	-1705.95	  365.68
    108.2700	  701.00	  674.96	-1700.67	  365.50
    108.3700	  699.00	  676.17	-1703.88	  365.32
    108.4700	  709.00	  677.65	-1695.36	  365.14
    108.5700	  658.00	  679.07	-1747.78	  364.96
    108.6700	  706.00	  680.06	-1700.77	  364.78
    108.7700	  689.00	  680.25	-1717.96	  364.61
    108.8700	  674.00	  679.27	-1731.98	  364.43
    108.9700	  692.00	  676.84	-1711.55	  364.26
    109.0700	  685.00	  672.82	-1714.53	  364.09
    109.1700	  633.00	  667.19	-1760.90	  363.92
    109.2700	  654.00	  660.09	-1732.80	  363.75
    109.3700	  640.00	  651.75	-1738.46	  363.58
    109.4700	  621.00	  642.46	-1748.17	  363.42
    109.5700	  618.00	  632.55	-1741.27	  363.25
    109.6700	  625.00	  622.37	-1724.08	  363.09
    109.7700	  633.00	  612.21	-1705.92	  362.93
    109.8700	  639.00	  602.35	-1690.06	  362.77
    109.9700	  618.00	  593.03	-1701.74	  362.62
    110.0700	  575.00	  584.43	-1736.14	  362.46
    110.1700	  572.00	  576.70	-1731.41	  362.31
    110.2700	  595.00	  569.92	-1701.63	  362.16
    110.3700	  594.00	  564.13	-1696.85	  362.01
    110.4700	  592.00	  559.34	-1694.05	  361.86
    110.5700	  595.00	  555.51	-1687.22	  361.72
    110.6700	  552.00	  552.58	-1727.29	  361.57
    110.7700	  553.00	  550.48	-1724.19	  361.43
    110.8700	  532.00	  549.11	-1743.82	  361.29
    110.9700	  547.00	  548.40	-1728.11	  361.16
    111.0700	  536.00	  548.24	-1738.95	  361.02
    111.1700	  566.00	  548.57	-1709.28	  360.89
    111.2700	  540.00	  549.30	-1736.01	  360.76
    111.3700	  587.00	  550.38	-1690.09	  360.63
    111.4700	  545.00	  551.75	-1733.46	  360.50
    111.5700	  570.00	  553.37	-1710.09	  360.38
    111.6700	  558.00	  555.21	-1723.93	  360.26
    111.7700	  507.00	  557.25	-1776.96	  360.14
    111.8700	  570.00	  559.47	-1716.19	  360.02
    111.9700	  552.00	  561.88	-1736.59	  359.91
    112.0700	  547.00	  564.47	-1744.18	  359.80
    112.1700	  533.00	  567.26	-1760.97	  359.69
    112.2700	  559.00	  570.27	-1737.98	  359.58
    112.3700	  527.00	  573.53	-1773.24	  359.47
    112.4700	  555.00	  577.09	-1748.80	  359.37
    112.5700	  572.00	  580.99	-1735.70	  359.27
    112.6700	  618.00	  585.30	-1694.01	  359.18
    112.7700	  604.00	  590.11	-1712.82	  359.08
    112.8700	  659.00	  595.52	-1663.24	  358.99
    112.9700	  594.00	  601.69	-1734.40	  358.90
    113.0700	  643.00	  608.80	-1692.51	  358.82
    113.1700	  673.00	  617.08	-1670.79	  358.73
    113.2700	  741.00	  626.85	-1612.56	  358.65
    113.3700	  772.00	  638.50	-1593.21	  358.58
    113.4700	  760.00	  652.56	-1619.27	  358.50
    113.5700	  805.00	  669.65	-1591.37	  358.43
    113.6700	  769.00	  690.56	-1648.27	  358.36
    113.7700	  806.00	  716.25	-1636.96	  358.30
    113.8700	  869.00	  747.87	-1605.58	  358.23
    113.9700	  910.00	  786.79	-1603.50	  358.17
    114.0700	  994.00	  834.60	-1567.31	  358.12
    114.1700	 1014.00	  893.09	-1605.81	  358.07
    114.2700	 1078.00	  964.29	-1613.01	  358.02
    114.3700	 1200.00	 1050.40	-1577.11	  357.97
    114.4700	 1275.00	 1153.72	-1605.43	  357.93
    114.5700	 1373.00	 1276.61	-1630.32	  357.89
    114.6700	 1519.00	 1421.39	-1629.10	  357.85
    114.7700	 1693.00	 1590.23	-1623.94	  357.82
    114.8700	 1893.00	 1785.03	-1618.74	  357.79
    114.9700	 2087.00	 2007.18	-1646.89	  357.76
    115.0700	 2429.00	 2257.51	-1555.22	  357.74
    115.1700	 2583.00	 2536.01	-1679.72	  357.72
    115.2700	 2886.00	 2841.84	-1682.56	  357.71
    115.3700	 3127.00	 3173.14	-1772.85	  357.70
    115.4700	 3360.00	 3526.79	-1893.50	  357.69
    115.5700	 3772.00	 3898.50	-1853.21	  357.69
    115.6700	 4180.00	 4282.66	-1829.37	  357.69
    115.7700	 4467.00	 4672.57	-1932.28	  357.69
    115.8700	 4761.00	 5060.31	-2026.03	  357.70
    115.9700	 5186.00	 5436.79	-1977.50	  357.71
    116.0700	 5664.00	 5792.03	-1854.74	  357.73
    116.1700	 6063.00	 6115.39	-1779.10	  357.75
    116.2700	 6350.00	 6396.11	-1772.82	  357.77
    116.3700	 6745.00	 6623.79	-1605.50	  357.80
    116.4700	 6722.00	 6789.10	-1793.82	  357.83
    116.5700	 6893.00	 6884.87	-1718.59	  357.87
    116.6700	 6850.00	 6906.85	-1783.56	  357.91
    116.7700	 6847.00	 6854.23	-1733.95	  357.95
    116.8700	 6791.00	 6729.79	-1665.50	  358.00
    116.9700	 6549.00	 6539.50	-1717.22	  358.05
    117.0700	 6200.00	 6291.79	-1818.50	  358.11
    117.1700	 6092.00	 5996.67	-1631.38	  358.17
    117.2700	 5746.00	 5664.74	-1645.45	  358.24
    117.3700	 5276.00	 5306.60	-1757.32	  358.31
    117.4700	 4814.00	 4932.45	-1845.16	  358.39
    117.5700	 4516.00	 4551.60	-1762.31	  358.47
    117.6700	 4244.00	 4172.41	-1655.12	  358.55
    117.7700	 4080.00	 3801.93	-1448.64	  358.64
    117.8700	 3549.00	 3446.01	-1623.72	  358.73
    117.9700	 3223.00	 3109.38	-1613.09	  358.83
    118.0700	 2909.00	 2795.49	-1613.20	  358.94
    118.1700	 2503.00	 2506.71	-1730.42	  359.05
    118.2700	 2234.00	 2244.28	-1736.99	  359.16
    118.3700	 1983.00	 2008.54	-1752.25	  359.28
    118.4700	 1767.00	 1799.15	-1758.86	  359.40
    118.5700	 1541.00	 1615.09	-1800.80	  359.53
    118.6700	 1391.00	 1454.87	-1790.59	  359.67
    118.7700	 1270.00	 1316.65	-1773.36	  359.81
    118.8700	 1122.00	 1198.34	-1803.05	  359.95
    118.9700	 1034.00	 1097.82	-1790.54	  360.10
    119.0700	  946.00	 1012.97	-1793.68	  360.26
    119.1700	  893.00	  941.71	-1775.42	  360.42
    119.2700	  799.00	  882.11	-1809.82	  360.58
    119.3700	  771.00	  832.41	-1788.12	  360.75
    119.4700	  759.00	  791.05	-1758.77	  360.93
    119.5700	  746.00	  756.67	-1737.39	  361.11
    119.6700	  679.00	  728.10	-1775.81	  361.30
    119.7700	  678.00	  704.32	-1753.03	  361.49
    119.8700	  644.00	  684.51	-1767.22	  361.69
    119.9700	  658.00	  667.98	-1736.69	  361.90
    120.0700	  613.00	  654.17	-1767.88	  362.11
    120.1700	  589.00	  642.62	-1780.33	  362.33
    120.2700	  596.00	  632.96	-1763.68	  362.55
    120.3700	  600.00	  624.91	-1751.62	  362.78
    120.4700	  601.00	  618.22	-1743.93	  363.01
    120.5700	  578.00	  612.70	-1761.42	  363.25
    120.6700	  614.00	  608.23	-1720.94	  363.50
    120.7700	  590.00	  604.68	-1741.39	  363.75
    120.8700	  608.00	  601.96	-1720.67	  364.01
    120.9700	  600.00	  600.00	-1726.71	  364.28
    121.0700	  604.00	  598.75	-1721.46	  364.55
    121.1700	  555.00	  598.15	-1769.87	  364.83
    121.2700	  554.00	  598.17	-1770.88	  365.11
    121.3700	  557.00	  598.75	-1768.46	  365.40
    121.4700	  570.00	  599.85	-1756.56	  365.70
    121.5700	  562.00	  601.43	-1766.14	  366.00
    121.6700	  577.00	  603.43	-1753.14	  366.31
    121.7700	  608.00	  605.78	-1724.49	  366.63
    121.8700	  573.00	  608.43	-1762.14	  366.96
    121.9700	  608.00	  611.28	-1729.99	  367.29
    122.0700	  627.00	  614.28	-1713.99	  367.62
    122.1700	  621.00	  617.33	-1723.04	  367.97
    122.2700	  619.00	  620.33	-1728.04	  368.32
    122.3700	  660.00	  623.19	-1689.90	  368.68
    122.4700	  655.00	  625.81	-1697.52	  369.05
    122.5700	  630.00	  628.09	-1724.80	  369.42
    122.6700	  688.00	  629.95	-1668.67	  369.80
    122.7700	  641.00	  631.32	-1717.03	  370.19
    122.8700	  728.00	  632.17	-1630.88	  370.58
    122.9700	  591.00	  632.45	-1768.17	  370.98
    123.0700	  618.00	  632.18	-1740.89	  371.39
    123.1700	  668.00	  631.36	-1690.07	  371.81
    123.2700	  652.00	  630.03	-1704.75	  372.23
    123.3700	  599.00	  628.26	-1755.97	  372.67
    123.4700	  665.00	  626.09	-1687.80	  373.11
    123.5700	  621.00	  623.60	-1729.31	  373.55
    123.6700	  600.00	  620.85	-1747.57	  374.01
    123.7700	  602.00	  617.92	-1742.63	  374.47
    123.8700	  643.00	  614.86	-1698.58	  374.94
    123.9700	  630.00	  611.75	-1708.46	  375.42
    124.0700	  605.00	  608.64	-1730.35	  375.91
    124.1700	  604.00	  605.57	-1728.28	  376.40
    124.2700	  625.00	  602.60	-1704.31	  376.90
    124.3700	  640.00	  599.75	-1686.46	  377.42
    124.4700	  585.00	  597.06	-1738.77	  377.93
    124.5700	  601.00	  594.55	-1720.26	  378.46
    124.6700	  621.00	  592.23	-1697.94	  379.00
    124.7700	  605.00	  590.11	-1711.83	  379.54
    124.8700	  554.00	  588.23	-1760.94	  380.10
    124.9700	  610.00	  499.89	-1616.60	  380.66
    125.0700	  557.00	  500.46	-1726.71	  381.23
    125.1700	  536.00	  501.03	-1726.71	  381.80
    125.2700	  582.00	  501.62	-1726.71	  382.39
    125.3700	  579.00	  502.22	-1726.71	  382.99
    125.4700	  573.00	  502.82	-1726.71	  383.59
    125.5700	  579.00	  503.44	-1726.71	  384.21
    125.6700	  538.00	  504.06	-1726.71	  384.83
    125.7700	  589.00	  504.69	-1726.71	  385.46
    125.8700	  560.00	  505.33	-1726.71	  386.10
    125.9700	  547.00	  505.98	-1726.71	  386.75
    126.0700	  563.00	  506.64	-1726.71	  387.41
    126.1700	  595.00	  507.31	-1726.71	  388.08
    126.2700	  592.00	  507.99	-1726.71	  388.76
    126.3700	  650.00	  508.67	-1726.71	  389.45
    126.4700	  573.00	  509.37	-1726.71	  390.14
    126.5700	  576.00	  510.08	-1726.71	  390.85
    126.6700	  656.00	  510.79	-1726.71	  391.56
    126.7700	  637.00	  511.52	-1726.71	  392.29
    126.8700	  614.00	  512.25	-1726.71	  393.03
    126.9700	  665.00	  513.00	-1726.71	  393.77
    127.0700	  656.00	  513.75	-1726.71	  394.53
    127.1700	  581.00	  514.52	-1726.71	  395.29
    127.2700	  626.00	  515.29	-1726.71	  396.07
    127.3700	  691.00	  516.08	-1726.71	  396.85
    127.4700	  699.00	  516.87	-1726.71	  397.65
    127.5700	  692.00	  517.68	-1726.71	  398.45
    127.6700	  679.00	  518.50	-1726.71	  399.27
    127.7700	  680.00	  519.32	-1726.71	  400.09
    127.8700	  724.00	  520.16	-1726.71	  400.93
    127.9700	  751.00	  521.01	-1726.71	  401.78
    128.0700	  771.00	  521.86	-1726.71	  402.63
    128.1700	  730.00	  522.73	-1726.71	  403.50
    128.2700	  721.00	  523.61	-1726.71	  404.38
    128.3700	  792.00	  524.50	-1726.71	  405.27
    128.4700	  788.00	  525.40	-1726.71	  406.17
    128.5700	    0.00	  526.31	-1726.71	  407.08
    128.6700	    0.00	  527.23	-1726.71	  408.00
     12.3089	        	        	        	        	       0	(  0  0  2)	  0  1
     24.8841	        	        	        	        	       0	(  0  0  4)	  0  1
     28.3384	        	        	        	        	       0	(  1  0  0)	  0  1
     29.0349	        	        	        	        	       0	(  1  0  1)	  0  1
     31.0389	        	        	        	        	       0	(  1  0  2)	  0  1
     34.1440	        	        	        	        	       0	(  1  0  3)	  0  1
     37.7746	        	        	        	        	       0	(  0  0  6)	  0  1
     38.1172	        	        	        	        	       0	(  1  0  4)	  0  1
     42.7630	        	        	        	        	       0	(  1  0  5)	  0  1
     47.9423	        	        	        	        	       0	(  1  0  6)	  0  1
     50.2727	        	        	        	        	       0	(  1  1  0)	  0  1
     51.1863	        	        	        	        	       0	(  0  0  8)	  0  1
     51.9937	        	        	        	        	       0	(  1  1  2)	  0  1
     53.5676	        	        	        	        	       0	(  1  0  7)	  0  1
     56.9361	        	        	        	        	       0	(  1  1  4)	  0  1
     58.7685	        	        	        	        	       0	(  2  0  0)	  0  1
     59.1596	        	        	        	        	       0	(  2  0  1)	  0  1
     59.5924	        	        	        	        	       0	(  1  0  8)	  0  1
     60.3237	        	        	        	        	       0	(  2  0  2)	  0  1
     62.2347	        	        	        	        	       0	(  2  0  3)	  0  1
     64.6224	        	        	        	        	       0	(  1  1  6)	  0  1
     64.8558	        	        	        	        	       0	(  2  0  4)	  0  1
     65.4033	        	        	        	        	       0	(  0  0 10)	  0  1
     66.0026	        	        	        	        	       0	(  1  0  9)	  0  1
     68.1463	        	        	        	        	       0	(  2  0  5)	  0  1
     72.0693	        	        	        	        	       0	(  2  0  6)	  0  1
     72.8119	        	        	        	        	       0	(  1  0 10)	  0  1
     74.6491	        	        	        	        	       0	(  1  1  8)	  0  1
     76.5982	        	        	        	        	       0	(  2  0  7)	  0  1
     80.0617	        	        	        	        	       0	(  1  0 11)	  0  1
     80.8679	        	        	        	        	       0	(  0  0 12)	  0  1
     81.0061	        	        	        	        	       0	(  2  1  0)	  0  1
     81.3456	        	        	        	        	       0	(  2  1  1)	  0  1
     81.7225	        	        	        	        	       0	(  2  0  8)	  0  1
     82.3622	        	        	        	        	       0	(  2  1  2)	  0  1
     84.0514	        	        	        	        	       0	(  2  1  3)	  0  1
     86.4081	        	        	        	        	       0	(  2  1  4)	  0  1
     86.9061	        	        	        	        	       0	(  1  1 10)	  0  1
     87.4535	        	        	        	        	       0	(  2  0  9)	  0  1
     87.8267	        	        	        	        	       0	(  1  0 12)	  0  1
     89.4301	        	        	        	        	       0	(  2  1  5)	  0  1
     93.1228	        	        	        	        	       0	(  2  1  6)	  0  1
     93.8326	        	        	        	        	       0	(  2  0 10)	  0  1
     94.8921	        	        	        	        	       0	(  3  0  0)	  0  1
     95.2290	        	        	        	        	       0	(  3  0  1)	  0  1
     96.2410	        	        	        	        	       0	(  3  0  2)	  0  1
     96.2286	        	        	        	        	       0	(  1  0 13)	  0  1
     97.5056	        	        	        	        	       0	(  2  1  7)	  0  1
     97.9321	        	        	        	        	       0	(  3  0  3)	  0  1
     98.3844	        	        	        	        	       0	(  0  0 14)	  0  1
    100.3119	        	        	        	        	       0	(  3  0  4)	  0  1
    100.9445	        	        	        	        	       0	(  2  0 11)	  0  1
    101.7561	        	        	        	        	       0	(  1  1 12)	  0  1
    102.6209	        	        	        	        	       0	(  2  1  8)	  0  1
    103.3993	        	        	        	        	       0	(  3  0  5)	  0  1
    105.4667	        	        	        	        	       0	(  1  0 14)	  0  1
    107.2290	        	        	        	        	       0	(  3  0  6)	  0  1
    108.5489	        	        	        	        	       0	(  2  1  9)	  0  1
    108.9429	        	        	        	        	       0	(  2  0 12)	  0  1
    111.8624	        	        	        	        	       0	(  3  0  7)	  0  1
    115.4343	        	        	        	        	       0	(  2  1 10)	  0  1
    115.8899	        	        	        	        	       0	(  1  0 15)	  0  1
    116.6109	        	        	        	        	       0	(  2  2  0)	  0  1
    117.4068	        	        	        	        	       0	(  3  0  8)	  0  1
    118.1238	        	        	        	        	       0	(  2  2  2)	  0  1
    118.1099	        	        	        	        	       0	(  2  0 13)	  0  1
    119.8308	        	        	        	        	       0	(  0  0 16)	  0  1
    120.5650	        	        	        	        	       0	(  1  1 14)	  0  1
    122.8021	        	        	        	        	       0	(  2  2  4)	  0  1
    123.5456	        	        	        	        	       0	(  2  1 11)	  0  1
    124.0547	        	        	        	        	       0	(  3  0  9)	  0  1
    124.6727	        	        	        	        	       0	(  3  1  0)	  0  1
    125.0823	        	        	        	        	       0	(  3  1  1)	  0  1
    126.3238	        	        	        	        	       0	(  3  1  2)	  0  1
    128.2009	        	        	        	        	       0	(  1  0 16)	  0  1
    128.4385	        	        	        	        	       0	(  3  1  3)	  0  1
    129.0132	        	        	        	        	       0	(  2  0 14)	  0  1
    131.2271	        	        	        	        	       0	(  2  2  6)	  0  1
    131.5091	        	        	        	        	       0	(  3  1  4)	  0  1
    132.1778	        	        	        	        	       0	(  3  0 10)	  0  1
    133.4337	        	        	        	        	       0	(  2  1 12)	  0  1
    135.6882	        	        	        	        	       0	(  3  1  5)	  0  1
    141.2713	        	        	        	        	       0	(  3  1  6)	  0  1
    142.6259	        	        	        	        	       0	(  3  0 11)	  0  1
    143.1009	        	        	        	        	       0	(  2  0 15)	  0  1
    144.3009	        	        	        	        	       0	(  1  0 17)	  0  1
    145.4266	        	        	        	        	       0	(  2  2  8)	  0  1
    146.5409	        	        	        	        	       0	(  2  1 13)	  0  1
    148.9229	        	        	        	        	       0	(  3  1  7)	  0  1
    149.3854	        	        	        	        	       0	(  1  1 16)	  0  1
    153.7066	        	        	        	        	       0	(  0  0 18)	  0  1
    158.4151	        	        	        	        	       0	(  3  0 12)	  0  1
    158.7913	        	        	        	        	       0	(  4  0  0)	  0  1
    159.7443	        	        	        	        	       0	(  4  0  1)	  0  1
    160.8569	        	        	        	        	       0	(  3  1  8)	  0  1
    162.9077	        	        	        	        	       0	(  4  0  2)	  0  1
    169.1372	        	        	        	        	       0	(  2  0 16)	  0  1
    170.1861	        	        	        	        	       0	(  4  0  3)	  0  1
    173.3592	        	        	        	        	       0	(  2  1 14)	  0  1
