MSG Master    CELL:    5.91962   5.91962  23.28176   90.0000   90.0000  120.0000   SPGR: P 63/m m c             TEMP:   1071.85
  1   1280     2.52000     0.00000    -0.12413     0.00000     0.00000    0
    99     0     2
       0.00000      10.00000
     125.00000     130.00000
 2Theta	Yobs	Ycal	Yobs-Ycal	Backg	Posr	(hkl)	K
      0.7700	    0.00	  529.17	-1723.00	  410.67
      0.8700	    0.00	  530.13	-1723.00	  411.63
      0.9700	   42.00	  531.08	-1723.00	  412.58
      1.0700	   40.00	  532.02	-1723.00	  413.51
      1.1700	   38.00	  532.94	-1723.00	  414.44
      1.2700	   40.00	  533.85	-1723.00	  415.35
      1.3700	   43.00	  534.75	-1723.00	  416.25
      1.4700	  100.00	  535.64	-1723.00	  417.13
      1.5700	  304.00	  536.51	-1723.00	  418.00
      1.6700	  437.00	  537.37	-1723.00	  418.86
      1.7700	  539.00	  538.22	-1723.00	  419.71
      1.8700	  698.00	  539.05	-1723.00	  420.55
      1.9700	  753.00	  539.88	-1723.00	  421.37
      2.0700	  762.00	  540.69	-1723.00	  422.18
      2.1700	  831.00	  541.49	-1723.00	  422.98
      2.2700	  767.00	  542.27	-1723.00	  423.77
      2.3700	  780.00	  543.05	-1723.00	  424.54
      2.4700	  709.00	  543.81	-1723.00	  425.31
      2.5700	  703.00	  544.56	-1723.00	  426.06
      2.6700	  692.00	  545.30	-1723.00	  426.80
      2.7700	  641.00	  546.03	-1723.00	  427.53
      2.8700	  608.00	  546.75	-1723.00	  428.24
      2.9700	  645.00	  547.45	-1723.00	  428.95
      3.0700	  628.00	  548.15	-1723.00	  429.64
      3.1700	  572.00	  548.83	-1723.00	  430.32
      3.2700	  641.00	  549.50	-1723.00	  431.00
      3.3700	  670.00	  550.16	-1723.00	  431.66
      3.4700	  754.00	  550.81	-1723.00	  432.31
      3.5700	  840.00	  551.45	-1723.00	  432.94
      3.6700	  915.00	  552.08	-1723.00	  433.57
      3.7700	  885.00	  552.70	-1723.00	  434.19
      3.8700	 1018.00	  553.30	-1723.00	  434.80
      3.9700	  982.00	  553.90	-1723.00	  435.39
      4.0700	 1039.00	  554.48	-1723.00	  435.98
      4.1700	 1129.00	  555.06	-1723.00	  436.55
      4.2700	 1141.00	  555.62	-1723.00	  437.12
      4.3700	 1157.00	  556.17	-1723.00	  437.67
      4.4700	 1097.00	  556.72	-1723.00	  438.21
      4.5700	 1109.00	  557.25	-1723.00	  438.75
      4.6700	 1027.00	  557.78	-1723.00	  439.27
      4.7700	 1027.00	  558.29	-1723.00	  439.78
      4.8700	  994.00	  558.79	-1723.00	  440.29
      4.9700	  969.00	  559.29	-1723.00	  440.78
      5.0700	  966.00	  559.77	-1723.00	  441.26
      5.1700	  894.00	  560.24	-1723.00	  441.74
      5.2700	  945.00	  560.71	-1723.00	  442.20
      5.3700	  921.00	  561.16	-1723.00	  442.66
      5.4700	  850.00	  561.61	-1723.00	  443.10
      5.5700	  853.00	  562.04	-1723.00	  443.54
      5.6700	  846.00	  562.47	-1723.00	  443.96
      5.7700	  841.00	  562.89	-1723.00	  444.38
      5.8700	  794.00	  563.29	-1723.00	  444.79
      5.9700	  829.00	  563.69	-1723.00	  445.19
      6.0700	  834.00	  564.08	-1723.00	  445.58
      6.1700	  739.00	  564.46	-1723.00	  445.96
      6.2700	  774.00	  564.84	-1723.00	  446.33
      6.3700	  761.00	  565.20	-1723.00	  446.69
      6.4700	  695.00	  565.55	-1723.00	  447.05
      6.5700	  752.00	  565.90	-1723.00	  447.39
      6.6700	  746.00	  566.23	-1723.00	  447.73
      6.7700	  715.00	  566.56	-1723.00	  448.06
      6.8700	  721.00	  566.88	-1723.00	  448.38
      6.9700	  733.00	  567.19	-1723.00	  448.69
      7.0700	  727.00	  567.50	-1723.00	  448.99
      7.1700	  670.00	  567.79	-1723.00	  449.29
      7.2700	  701.00	  568.08	-1723.00	  449.57
      7.3700	  674.00	  568.36	-1723.00	  449.85
      7.4700	  642.00	  568.63	-1723.00	  450.12
      7.5700	  669.00	  568.89	-1723.00	  450.38
      7.6700	  669.00	  569.14	-1723.00	  450.64
      7.7700	  653.00	  569.39	-1723.00	  450.88
      7.8700	  654.00	  569.63	-1723.00	  451.12
      7.9700	  636.00	  569.86	-1723.00	  451.35
      8.0700	  623.00	  570.08	-1723.00	  451.57
      8.1700	  647.00	  570.29	-1723.00	  451.79
      8.2700	  634.00	  570.50	-1723.00	  452.00
      8.3700	  619.00	  570.70	-1723.00	  452.20
      8.4700	  668.00	  570.89	-1723.00	  452.39
      8.5700	  593.00	  571.08	-1723.00	  452.57
      8.6700	  630.00	  571.26	-1723.00	  452.75
      8.7700	  619.00	  571.43	-1723.00	  452.92
      8.8700	  646.00	  571.59	-1723.00	  453.08
      8.9700	  678.00	  571.75	-1723.00	  453.24
      9.0700	  615.00	  571.90	-1723.00	  453.39
      9.1700	  613.00	  572.04	-1723.00	  453.53
      9.2700	  591.00	  572.17	-1723.00	  453.67
      9.3700	  611.00	  572.30	-1723.00	  453.80
      9.4700	  630.00	  572.42	-1723.00	  453.92
      9.5700	  568.00	  572.54	-1723.00	  454.03
      9.6700	  610.00	  572.65	-1723.00	  454.14
      9.7700	  585.00	  572.75	-1723.00	  454.24
      9.8700	  631.00	  572.84	-1723.00	  454.34
      9.9700	  608.00	  572.93	-1723.00	  454.42
     10.0700	  593.00	  574.13	-1704.13	  454.51
     10.1700	  562.00	  574.33	-1735.33	  454.58
     10.2700	  578.00	  574.55	-1719.55	  454.65
     10.3700	  586.00	  574.82	-1711.82	  454.71
     10.4700	  587.00	  575.17	-1711.17	  454.77
     10.5700	  556.00	  575.65	-1742.65	  454.82
     10.6700	  592.00	  576.39	-1707.39	  454.87
     10.7700	  534.00	  577.49	-1766.49	  454.90
     10.8700	  601.00	  579.03	-1701.03	  454.94
     10.9700	  638.00	  581.00	-1666.00	  454.96
     11.0700	  644.00	  583.38	-1662.38	  454.98
     11.1700	  557.00	  586.18	-1752.18	  455.00
     11.2700	  587.00	  589.43	-1725.43	  455.01
     11.3700	  554.00	  593.22	-1762.22	  455.01
     11.4700	  540.00	  597.72	-1780.72	  455.01
     11.5700	  584.00	  603.17	-1742.17	  455.00
     11.6700	  602.00	  609.97	-1730.97	  454.99
     11.7700	  668.00	  618.79	-1673.79	  454.97
     11.8700	  666.00	  630.48	-1687.48	  454.94
     11.9700	  667.00	  645.21	-1701.21	  454.91
     12.0700	  693.00	  660.80	-1690.80	  454.88
     12.1700	  668.00	  670.88	-1725.88	  454.84
     12.2700	  672.00	  666.24	-1717.24	  454.79
     12.3700	  678.00	  644.78	-1689.78	  454.74
     12.4700	  623.00	  618.81	-1718.81	  454.69
     12.5700	  605.00	  599.12	-1717.12	  454.63
     12.6700	  589.00	  587.57	-1721.57	  454.56
     12.7700	  567.00	  581.80	-1737.80	  454.49
     12.8700	  600.00	  579.00	-1702.00	  454.41
     12.9700	  552.00	  577.46	-1748.46	  454.33
     13.0700	  555.00	  576.46	-1744.46	  454.25
     13.1700	  583.00	  575.72	-1715.72	  454.16
     13.2700	  607.00	  575.14	-1691.14	  454.06
     13.3700	  522.00	  574.67	-1775.67	  453.97
     13.4700	  552.00	  574.28	-1745.28	  453.86
     13.5700	  577.00	  573.93	-1719.93	  453.75
     13.6700	  625.00	  573.63	-1671.63	  453.64
     13.7700	  558.00	  573.36	-1738.36	  453.52
     13.8700	  569.00	  573.11	-1727.11	  453.40
     13.9700	  561.00	  572.87	-1734.87	  453.28
     14.0700	  538.00	  572.65	-1757.65	  453.15
     14.1700	  596.00	  572.43	-1699.43	  453.01
     14.2700	  576.00	  572.22	-1719.22	  452.87
     14.3700	  561.00	  572.02	-1734.02	  452.73
     14.4700	  550.00	  571.82	-1744.82	  452.59
     14.5700	  605.00	  571.63	-1689.63	  452.44
     14.6700	  585.00	  571.43	-1709.43	  452.28
     14.7700	  584.00	  571.24	-1710.24	  452.12
     14.8700	  547.00	  571.04	-1747.04	  451.96
     14.9700	  571.00	  570.85	-1722.85	  451.79
     15.0700	  523.00	  570.65	-1770.65	  451.62
     15.1700	  536.00	  570.45	-1757.45	  451.45
     15.2700	  544.00	  570.25	-1749.25	  451.27
     15.3700	  579.00	  570.05	-1714.05	  451.09
     15.4700	  593.00	  569.85	-1699.85	  450.91
     15.5700	  602.00	  569.67	-1690.67	  450.72
     15.6700	  556.00	  569.47	-1736.47	  450.53
     15.7700	  536.00	  569.26	-1756.26	  450.33
     15.8700	  576.00	  569.05	-1716.05	  450.14
     15.9700	  563.00	  568.84	-1728.84	  449.93
     16.0700	  548.00	  568.62	-1743.62	  449.73
     16.1700	  556.00	  568.41	-1735.41	  449.52
     16.2700	  616.00	  568.19	-1675.19	  449.31
     16.3700	  556.00	  567.96	-1734.96	  449.10
     16.4700	  560.00	  567.74	-1730.74	  448.88
     16.5700	  559.00	  567.51	-1731.51	  448.66
     16.6700	  573.00	  567.28	-1717.28	  448.43
     16.7700	  563.00	  567.05	-1727.05	  448.21
     16.8700	  563.00	  566.81	-1726.81	  447.98
     16.9700	  591.00	  566.58	-1698.58	  447.74
     17.0700	  526.00	  566.34	-1763.34	  447.51
     17.1700	  579.00	  566.09	-1710.09	  447.27
     17.2700	  562.00	  565.85	-1726.85	  447.03
     17.3700	  560.00	  565.60	-1728.60	  446.79
     17.4700	  561.00	  565.35	-1727.35	  446.54
     17.5700	  585.00	  565.10	-1703.10	  446.29
     17.6700	  587.00	  564.85	-1700.85	  446.04
     17.7700	  561.00	  564.59	-1726.59	  445.78
     17.8700	  607.00	  564.33	-1680.33	  445.53
     17.9700	  548.00	  564.07	-1739.07	  445.27
     18.0700	  545.00	  563.90	-1741.90	  445.01
     18.1700	  558.00	  563.64	-1728.64	  444.74
     18.2700	  563.00	  563.38	-1723.38	  444.47
     18.3700	  544.00	  563.11	-1742.11	  444.21
     18.4700	  585.00	  562.84	-1700.84	  443.93
     18.5700	  551.00	  562.57	-1734.57	  443.66
     18.6700	  570.00	  562.29	-1715.29	  443.39
     18.7700	  535.00	  562.02	-1750.02	  443.11
     18.8700	  569.00	  561.83	-1715.83	  442.83
     18.9700	  585.00	  561.55	-1699.55	  442.55
     19.0700	  533.00	  561.27	-1751.27	  442.26
     19.1700	  539.00	  560.99	-1744.99	  441.98
     19.2700	  584.00	  560.71	-1699.71	  441.69
     19.3700	  540.00	  560.42	-1743.42	  441.40
     19.4700	  583.00	  560.14	-1700.14	  441.11
     19.5700	  529.00	  559.85	-1753.85	  440.81
     19.6700	  553.00	  559.56	-1729.56	  440.52
     19.7700	  575.00	  559.27	-1707.27	  440.22
     19.8700	  588.00	  558.98	-1693.98	  439.92
     19.9700	  539.00	  558.69	-1742.69	  439.62
     20.0700	  541.00	  558.40	-1740.40	  439.32
     20.1700	  582.00	  558.10	-1699.10	  439.01
     20.2700	  578.00	  557.81	-1702.81	  438.71
     20.3700	  528.00	  557.51	-1752.51	  438.40
     20.4700	  578.00	  557.22	-1702.22	  438.09
     20.5700	  550.00	  556.92	-1729.92	  437.78
     20.6700	  590.00	  556.65	-1689.65	  437.47
     20.7700	  564.00	  556.35	-1715.35	  437.15
     20.8700	  519.00	  556.05	-1760.05	  436.84
     20.9700	  546.00	  555.76	-1732.76	  436.52
     21.0700	  526.00	  555.46	-1752.46	  436.20
     21.1700	  584.00	  555.16	-1694.16	  435.89
     21.2700	  531.00	  554.82	-1746.82	  435.57
     21.3700	  601.00	  554.52	-1676.52	  435.24
     21.4700	  548.00	  554.22	-1729.22	  434.92
     21.5700	  578.00	  553.92	-1698.92	  434.60
     21.6700	  555.00	  553.62	-1721.62	  434.27
     21.7700	  586.00	  553.33	-1690.33	  433.95
     21.8700	  571.00	  553.03	-1705.03	  433.62
     21.9700	  574.00	  552.74	-1701.74	  433.29
     22.0700	  514.00	  552.45	-1761.45	  432.96
     22.1700	  567.00	  552.16	-1708.16	  432.63
     22.2700	  537.00	  551.87	-1737.87	  432.30
     22.3700	  551.00	  551.59	-1723.59	  431.97
     22.4700	  568.00	  551.31	-1706.31	  431.64
     22.5700	  545.00	  551.04	-1729.04	  431.31
     22.6700	  551.00	  550.77	-1722.77	  430.97
     22.7700	  540.00	  550.51	-1733.51	  430.64
     22.8700	  502.00	  550.26	-1771.26	  430.30
     22.9700	  569.00	  550.02	-1704.02	  429.96
     23.0700	  580.00	  549.80	-1692.80	  429.63
     23.1700	  542.00	  549.59	-1730.59	  429.29
     23.2700	  544.00	  549.41	-1728.41	  428.95
     23.3700	  534.00	  549.26	-1738.26	  428.61
     23.4700	  537.00	  549.29	-1735.29	  428.27
     23.5700	  552.00	  549.23	-1720.23	  427.93
     23.6700	  543.00	  549.26	-1729.26	  427.59
     23.7700	  537.00	  549.42	-1735.42	  427.25
     23.8700	  586.00	  549.83	-1686.83	  426.91
     23.9700	  582.00	  550.70	-1691.70	  426.57
     24.0700	  560.00	  552.45	-1715.45	  426.22
     24.1700	  564.00	  555.64	-1714.64	  425.88
     24.2700	  599.00	  561.03	-1685.03	  425.54
     24.3700	  536.00	  569.40	-1756.40	  425.19
     24.4700	  588.00	  581.37	-1716.37	  424.85
     24.5700	  596.00	  596.60	-1723.60	  424.51
     24.6700	  533.00	  612.26	-1802.26	  424.16
     24.7700	  616.00	  621.95	-1728.95	  423.82
     24.8700	  609.00	  617.95	-1731.95	  423.47
     24.9700	  635.00	  600.38	-1688.38	  423.13
     25.0700	  582.00	  579.80	-1720.80	  422.78
     25.1700	  569.00	  564.02	-1718.02	  422.44
     25.2700	  561.00	  554.51	-1716.51	  422.09
     25.3700	  578.00	  549.57	-1694.57	  421.75
     25.4700	  551.00	  547.10	-1719.10	  421.40
     25.5700	  511.00	  545.73	-1757.73	  421.06
     25.6700	  543.00	  544.84	-1724.84	  420.71
     25.7700	  552.00	  544.18	-1715.18	  420.37
     25.8700	  560.00	  543.68	-1706.68	  420.02
     25.9700	  595.00	  543.29	-1671.29	  419.68
     26.0700	  577.00	  543.00	-1689.00	  419.33
     26.1700	  533.00	  542.78	-1732.78	  418.99
     26.2700	  502.00	  542.65	-1763.65	  418.64
     26.3700	  569.00	  542.59	-1696.59	  418.30
     26.4700	  513.00	  542.62	-1752.62	  417.95
     26.5700	  548.00	  542.74	-1717.74	  417.61
     26.6700	  528.00	  542.97	-1737.97	  417.26
     26.7700	  558.00	  543.35	-1708.35	  416.92
     26.8700	  593.00	  543.88	-1673.88	  416.58
     26.9700	  550.00	  544.64	-1717.64	  416.24
     27.0700	  530.00	  545.68	-1738.68	  415.89
     27.1700	  543.00	  547.15	-1727.15	  415.55
     27.2700	  537.00	  549.27	-1735.27	  415.21
     27.3700	  571.00	  552.53	-1704.53	  414.87
     27.4700	  552.00	  557.89	-1728.89	  414.53
     27.5700	  579.00	  567.06	-1711.06	  414.19
     27.6700	  590.00	  582.76	-1715.76	  413.85
     27.7700	  550.00	  608.54	-1781.54	  413.51
     27.8700	  572.00	  647.54	-1798.54	  413.17
     27.9700	  689.00	  700.00	-1734.00	  412.83
     28.0700	  726.00	  759.99	-1756.99	  412.49
     28.1700	  879.00	  812.51	-1656.51	  412.15
     28.2700	  956.00	  834.92	-1601.92	  411.82
     28.3700	  920.00	  814.02	-1617.02	  411.48
     28.4700	  772.00	  771.50	-1722.50	  411.15
     28.5700	  696.00	  742.66	-1769.66	  410.81
     28.6700	  702.00	  743.32	-1764.32	  410.48
     28.7700	  684.00	  768.34	-1807.34	  410.15
     28.8700	  829.00	  797.40	-1691.40	  409.81
     28.9700	  838.00	  802.23	-1687.23	  409.48
     29.0700	  777.00	  765.18	-1711.18	  409.15
     29.1700	  702.00	  702.14	-1723.14	  408.82
     29.2700	  633.00	  641.94	-1731.94	  408.49
     29.3700	  571.00	  598.33	-1750.33	  408.16
     29.4700	  595.00	  571.80	-1699.80	  407.83
     29.5700	  578.00	  557.35	-1702.35	  407.51
     29.6700	  582.00	  549.68	-1690.68	  407.18
     29.7700	  612.00	  545.32	-1656.32	  406.86
     29.8700	  601.00	  542.60	-1664.60	  406.53
     29.9700	  546.00	  540.87	-1717.87	  406.21
     30.0700	  551.00	  539.95	-1711.95	  405.89
     30.1700	  573.00	  539.99	-1689.99	  405.56
     30.2700	  598.00	  541.49	-1666.49	  405.24
     30.3700	  564.00	  545.39	-1704.39	  404.92
     30.4700	  581.00	  553.11	-1695.11	  404.61
     30.5700	  557.00	  566.04	-1732.04	  404.29
     30.6700	  588.00	  584.45	-1719.45	  403.97
     30.7700	  570.00	  605.88	-1758.88	  403.66
     30.8700	  586.00	  624.23	-1761.23	  403.34
     30.9700	  649.00	  630.34	-1704.34	  403.03
     31.0700	  602.00	  618.17	-1739.17	  402.72
     31.1700	  584.00	  594.03	-1733.03	  402.41
     31.2700	  561.00	  569.77	-1731.77	  402.10
     31.3700	  561.00	  551.66	-1713.66	  401.79
     31.4700	  530.00	  540.42	-1733.42	  401.48
     31.5700	  539.00	  534.25	-1718.25	  401.17
     31.6700	  557.00	  531.00	-1697.00	  400.87
     31.7700	  545.00	  529.18	-1707.18	  400.56
     31.8700	  526.00	  528.04	-1725.04	  400.26
     31.9700	  567.00	  527.25	-1683.25	  399.96
     32.0700	  587.00	  526.71	-1662.71	  399.66
     32.1700	  533.00	  526.35	-1716.35	  399.36
     32.2700	  576.00	  526.16	-1673.16	  399.06
     32.3700	  557.00	  526.13	-1692.13	  398.77
     32.4700	  556.00	  526.27	-1693.27	  398.47
     32.5700	  531.00	  526.59	-1718.59	  398.18
     32.6700	  547.00	  527.14	-1703.14	  397.88
     32.7700	  538.00	  527.96	-1712.96	  397.59
     32.8700	  544.00	  529.14	-1708.14	  397.30
     32.9700	  541.00	  530.81	-1712.81	  397.01
     33.0700	  524.00	  533.22	-1732.22	  396.73
     33.1700	  524.00	  536.91	-1735.91	  396.44
     33.2700	  530.00	  543.09	-1736.09	  396.16
     33.3700	  518.00	  554.20	-1759.20	  395.87
     33.4700	  541.00	  574.79	-1756.79	  395.59
     33.5700	  620.00	  611.66	-1714.66	  395.31
     33.6700	  643.00	  672.07	-1752.07	  395.03
     33.7700	  704.00	  758.29	-1777.29	  394.76
     33.8700	  925.00	  860.02	-1658.02	  394.48
     33.9700	  983.00	  949.90	-1689.90	  394.21
     34.0700	 1071.00	  987.21	-1639.21	  393.94
     34.1700	  966.00	  943.47	-1700.47	  393.66
     34.2700	  906.00	  841.30	-1658.30	  393.39
     34.3700	  757.00	  731.77	-1697.77	  393.13
     34.4700	  662.00	  645.92	-1706.92	  392.86
     34.5700	  566.00	  590.51	-1747.51	  392.59
     34.6700	  573.00	  559.40	-1709.40	  392.33
     34.7700	  543.00	  543.16	-1723.16	  392.07
     34.8700	  546.00	  534.45	-1711.45	  391.81
     34.9700	  531.00	  529.20	-1721.20	  391.55
     35.0700	  548.00	  525.60	-1700.60	  391.29
     35.1700	  526.00	  522.88	-1719.88	  391.04
     35.2700	  529.00	  520.74	-1714.74	  390.78
     35.3700	  523.00	  519.00	-1719.00	  390.53
     35.4700	  503.00	  517.55	-1737.55	  390.28
     35.5700	  570.00	  516.32	-1669.32	  390.03
     35.6700	  502.00	  515.27	-1736.27	  389.78
     35.7700	  462.00	  514.36	-1775.36	  389.54
     35.8700	  493.00	  513.56	-1743.56	  389.29
     35.9700	  520.00	  512.84	-1715.84	  389.05
     36.0700	  493.00	  512.65	-1742.65	  388.81
     36.1700	  473.00	  512.08	-1762.08	  388.57
     36.2700	  496.00	  511.57	-1738.57	  388.33
     36.3700	  488.00	  511.10	-1746.10	  388.10
     36.4700	  480.00	  510.67	-1753.67	  387.86
     36.5700	  504.00	  510.29	-1729.29	  387.63
     36.6700	  504.00	  509.96	-1728.96	  387.40
     36.7700	  501.00	  509.68	-1731.68	  387.17
     36.8700	  527.00	  509.48	-1705.48	  386.95
     36.9700	  506.00	  509.42	-1726.42	  386.72
     37.0700	  484.00	  509.64	-1748.64	  386.50
     37.1700	  544.00	  510.34	-1689.34	  386.27
     37.2700	  487.00	  511.80	-1747.80	  386.05
     37.3700	  517.00	  514.21	-1720.21	  385.84
     37.4700	  531.00	  517.40	-1709.40	  385.62
     37.5700	  495.00	  520.68	-1748.68	  385.41
     37.6700	  538.00	  522.78	-1707.78	  385.19
     37.7700	  553.00	  522.47	-1692.47	  384.98
     37.8700	  482.00	  519.75	-1760.75	  384.77
     37.9700	  549.00	  516.01	-1690.01	  384.56
     38.0700	  470.00	  512.51	-1765.51	  384.36
     38.1700	  492.00	  509.73	-1740.73	  384.15
     38.2700	  528.00	  507.75	-1702.75	  383.95
     38.3700	  518.00	  506.44	-1711.44	  383.75
     38.4700	  503.00	  505.57	-1725.57	  383.55
     38.5700	  475.00	  504.98	-1752.98	  383.36
     38.6700	  519.00	  504.45	-1708.45	  383.16
     38.7700	  536.00	  504.11	-1691.11	  382.97
     38.8700	  491.00	  503.83	-1735.83	  382.78
     38.9700	  492.00	  503.57	-1734.57	  382.59
     39.0700	  483.00	  503.48	-1743.48	  382.40
     39.1700	  508.00	  503.26	-1718.26	  382.22
     39.2700	  504.00	  503.06	-1722.06	  382.03
     39.3700	  475.00	  502.79	-1750.79	  381.85
     39.4700	  504.00	  502.61	-1721.61	  381.67
     39.5700	  502.00	  502.43	-1723.43	  381.49
     39.6700	  549.00	  502.27	-1676.27	  381.32
     39.7700	  476.00	  502.12	-1749.12	  381.14
     39.8700	  472.00	  501.98	-1752.98	  380.97
     39.9700	  481.00	  501.84	-1743.84	  380.80
     40.0700	  466.00	  501.72	-1758.72	  380.63
     40.1700	  509.00	  501.60	-1715.60	  380.46
     40.2700	  497.00	  501.50	-1727.50	  380.30
     40.3700	  496.00	  501.40	-1728.40	  380.14
     40.4700	  513.00	  501.32	-1711.32	  379.97
     40.5700	  504.00	  501.26	-1720.26	  379.82
     40.6700	  524.00	  501.21	-1700.21	  379.66
     40.7700	  533.00	  501.18	-1691.18	  379.50
     40.8700	  496.00	  501.17	-1728.17	  379.35
     40.9700	  522.00	  501.19	-1702.19	  379.20
     41.0700	  487.00	  501.25	-1737.25	  379.05
     41.1700	  512.00	  501.34	-1712.34	  378.90
     41.2700	  525.00	  501.48	-1699.48	  378.75
     41.3700	  533.00	  502.13	-1692.13	  378.61
     41.4700	  514.00	  502.39	-1711.39	  378.47
     41.5700	  541.00	  502.81	-1684.81	  378.33
     41.6700	  489.00	  503.40	-1737.40	  378.19
     41.7700	  501.00	  504.31	-1726.31	  378.05
     41.8700	  483.00	  505.84	-1745.84	  377.92
     41.9700	  499.00	  508.64	-1732.64	  377.79
     42.0700	  551.00	  513.85	-1685.85	  377.66
     42.1700	  490.00	  523.12	-1756.12	  377.53
     42.2700	  501.00	  538.18	-1760.18	  377.40
     42.3700	  584.00	  559.75	-1698.75	  377.28
     42.4700	  593.00	  585.75	-1715.75	  377.15
     42.5700	  582.00	  610.44	-1751.44	  377.03
     42.6700	  597.00	  624.83	-1750.83	  376.91
     42.7700	  611.00	  621.40	-1733.40	  376.80
     42.8700	  571.00	  601.30	-1753.30	  376.68
     42.9700	  558.00	  574.24	-1739.24	  376.57
     43.0700	  526.00	  549.03	-1746.03	  376.46
     43.1700	  520.00	  529.88	-1732.88	  376.35
     43.2700	  526.00	  517.38	-1714.38	  376.24
     43.3700	  540.00	  510.11	-1693.11	  376.13
     43.4700	  524.00	  506.21	-1705.21	  376.03
     43.5700	  496.00	  504.07	-1731.07	  375.93
     43.6700	  484.00	  503.01	-1742.01	  375.83
     43.7700	  474.00	  502.19	-1751.19	  375.73
     43.8700	  470.00	  501.60	-1754.60	  375.63
     43.9700	  493.00	  501.15	-1731.15	  375.54
     44.0700	  536.00	  500.80	-1687.80	  375.45
     44.1700	  495.00	  500.53	-1728.53	  375.36
     44.2700	  525.00	  500.31	-1698.31	  375.27
     44.3700	  469.00	  500.15	-1754.15	  375.18
     44.4700	  515.00	  500.03	-1708.03	  375.10
     44.5700	  476.00	  499.94	-1746.94	  375.02
     44.6700	  511.00	  499.89	-1711.89	  374.93
     44.7700	  525.00	  499.86	-1697.86	  374.86
     44.8700	  470.00	  499.72	-1752.72	  374.78
     44.9700	  475.00	  499.74	-1747.74	  374.70
     45.0700	  527.00	  499.97	-1695.97	  374.63
     45.1700	  485.00	  500.04	-1738.04	  374.56
     45.2700	  531.00	  500.14	-1692.14	  374.49
     45.3700	  510.00	  500.25	-1713.25	  374.42
     45.4700	  520.00	  500.39	-1703.39	  374.36
     45.5700	  530.00	  500.56	-1693.56	  374.29
     45.6700	  522.00	  500.75	-1701.75	  374.23
     45.7700	  485.00	  500.96	-1738.96	  374.17
     45.8700	  496.00	  501.21	-1728.21	  374.11
     45.9700	  483.00	  501.49	-1741.49	  374.05
     46.0700	  542.00	  501.81	-1682.81	  374.00
     46.1700	  498.00	  502.18	-1727.18	  373.95
     46.2700	  521.00	  502.59	-1704.59	  373.90
     46.3700	  527.00	  503.06	-1699.06	  373.85
     46.4700	  498.00	  503.60	-1728.60	  373.80
     46.5700	  482.00	  504.22	-1745.22	  373.75
     46.6700	  506.00	  504.94	-1721.94	  373.71
     46.7700	  461.00	  505.82	-1767.82	  373.67
     46.8700	  499.00	  506.97	-1730.97	  373.63
     46.9700	  512.00	  508.49	-1719.49	  373.59
     47.0700	  467.00	  510.74	-1766.74	  373.56
     47.1700	  508.00	  514.38	-1729.38	  373.52
     47.2700	  520.00	  520.39	-1723.39	  373.49
     47.3700	  537.00	  529.97	-1715.97	  373.46
     47.4700	  570.00	  544.04	-1697.04	  373.43
     47.5700	  551.00	  562.50	-1734.50	  373.40
     47.6700	  596.00	  583.19	-1710.19	  373.38
     47.7700	  592.00	  601.64	-1732.64	  373.35
     47.8700	  640.00	  611.75	-1694.75	  373.33
     47.9700	  559.00	  609.28	-1773.28	  373.31
     48.0700	  586.00	  596.06	-1733.06	  373.29
     48.1700	  534.00	  578.32	-1767.32	  373.27
     48.2700	  570.00	  561.72	-1714.72	  373.26
     48.3700	  550.00	  549.31	-1722.31	  373.25
     48.4700	  540.00	  541.93	-1724.93	  373.24
     48.5700	  599.00	  539.03	-1663.03	  373.23
     48.6700	  528.00	  539.53	-1734.53	  373.22
     48.7700	  521.00	  542.50	-1744.50	  373.21
     48.8700	  548.00	  547.43	-1722.43	  373.21
     48.9700	  539.00	  554.32	-1738.32	  373.20
     49.0700	  565.00	  563.77	-1721.77	  373.20
     49.1700	  562.00	  577.34	-1738.34	  373.20
     49.2700	  563.00	  598.70	-1758.70	  373.21
     49.3700	  610.00	  633.59	-1746.59	  373.21
     49.4700	  638.00	  693.25	-1778.25	  373.22
     49.5700	  743.00	  793.37	-1773.37	  373.22
     49.6700	  871.00	  951.91	-1803.91	  373.23
     49.7700	 1118.00	 1182.23	-1787.23	  373.24
     49.8700	 1451.00	 1482.52	-1754.52	  373.26
     49.9700	 1854.00	 1823.99	-1692.99	  373.27
     50.0700	 2194.00	 2142.29	-1671.29	  373.28
     50.1700	 2441.00	 2342.65	-1624.65	  373.30
     50.2700	 2434.00	 2342.04	-1631.04	  373.32
     50.3700	 2206.00	 2138.90	-1655.90	  373.34
     50.4700	 1781.00	 1818.51	-1760.51	  373.36
     50.5700	 1415.00	 1479.63	-1787.63	  373.39
     50.6700	 1074.00	 1186.84	-1835.84	  373.41
     50.7700	  854.00	  967.59	-1836.59	  373.44
     50.8700	  739.00	  822.04	-1806.04	  373.47
     50.9700	  701.00	  734.53	-1756.53	  373.50
     51.0700	  629.00	  684.13	-1778.13	  373.53
     51.1700	  635.00	  652.45	-1740.45	  373.56
     51.2700	  599.00	  628.05	-1752.05	  373.60
     51.3700	  596.00	  606.72	-1733.72	  373.63
     51.4700	  574.00	  588.17	-1737.17	  373.67
     51.5700	  546.00	  572.99	-1749.99	  373.71
     51.6700	  608.00	  561.44	-1676.44	  373.75
     51.7700	  558.00	  553.27	-1718.27	  373.80
     51.8700	  543.00	  547.86	-1727.86	  373.84
     51.9700	  502.00	  544.74	-1765.74	  373.88
     52.0700	  478.00	  542.87	-1787.87	  373.93
     52.1700	  572.00	  542.17	-1693.17	  373.98
     52.2700	  594.00	  542.55	-1671.55	  374.03
     52.3700	  544.00	  544.20	-1723.20	  374.08
     52.4700	  557.00	  547.73	-1713.73	  374.13
     52.5700	  579.00	  554.50	-1698.50	  374.19
     52.6700	  627.00	  567.14	-1663.14	  374.24
     52.7700	  621.00	  590.01	-1692.01	  374.30
     52.8700	  642.00	  629.27	-1710.27	  374.36
     52.9700	  758.00	  691.67	-1656.67	  374.42
     53.0700	  824.00	  781.85	-1680.85	  374.48
     53.1700	  934.00	  898.26	-1687.26	  374.54
     53.2700	 1088.00	 1029.29	-1664.29	  374.61
     53.3700	 1142.00	 1150.67	-1731.67	  374.67
     53.4700	 1243.00	 1228.10	-1708.10	  374.74
     53.5700	 1189.00	 1231.68	-1765.68	  374.81
     53.6700	 1126.00	 1159.35	-1756.35	  374.88
     53.7700	 1006.00	 1039.65	-1756.65	  374.95
     53.8700	  882.00	  908.17	-1749.17	  375.02
     53.9700	  777.00	  790.29	-1736.29	  375.10
     54.0700	  649.00	  698.46	-1772.46	  375.17
     54.1700	  633.00	  634.73	-1724.73	  375.25
     54.2700	  601.00	  594.70	-1716.70	  375.33
     54.3700	  586.00	  571.54	-1708.54	  375.41
     54.4700	  584.00	  558.95	-1697.95	  375.49
     54.5700	  575.00	  552.39	-1700.39	  375.57
     54.6700	  558.00	  549.11	-1714.11	  375.65
     54.7700	  575.00	  547.71	-1695.71	  375.73
     54.8700	  519.00	  547.49	-1751.49	  375.82
     54.9700	  541.00	  548.20	-1730.20	  375.91
     55.0700	  596.00	  549.74	-1676.74	  375.99
     55.1700	  566.00	  552.10	-1709.10	  376.08
     55.2700	  557.00	  555.35	-1721.35	  376.17
     55.3700	  569.00	  559.61	-1713.61	  376.26
     55.4700	  579.00	  565.13	-1709.13	  376.36
     55.5700	  603.00	  572.35	-1692.35	  376.45
     55.6700	  597.00	  582.16	-1708.16	  376.55
     55.7700	  608.00	  596.40	-1711.40	  376.64
     55.8700	  571.00	  618.61	-1770.60	  376.74
     55.9700	  595.00	  655.22	-1783.22	  376.84
     56.0700	  700.00	  716.63	-1739.63	  376.94
     56.1700	  772.00	  817.36	-1768.36	  377.04
     56.2700	  841.00	  974.02	-1856.02	  377.14
     56.3700	 1131.00	 1200.12	-1792.12	  377.24
     56.4700	 1498.00	 1498.14	-1723.14	  377.35
     56.5700	 1831.00	 1850.67	-1742.67	  377.45
     56.6700	 2137.00	 2213.65	-1799.65	  377.56
     56.7700	 2531.00	 2514.11	-1706.11	  377.66
     56.8700	 2548.00	 2664.85	-1839.85	  377.77
     56.9700	 2609.00	 2609.81	-1723.81	  377.88
     57.0700	 2379.00	 2370.19	-1714.19	  377.99
     57.1700	 1947.00	 2026.79	-1802.79	  378.10
     57.2700	 1659.00	 1663.90	-1727.90	  378.21
     57.3700	 1268.00	 1339.56	-1794.56	  378.33
     57.4700	 1086.00	 1082.86	-1719.86	  378.44
     57.5700	  891.00	  899.62	-1731.62	  378.56
     57.6700	  820.00	  780.63	-1683.63	  378.67
     57.7700	  694.00	  710.59	-1739.59	  378.79
     57.8700	  710.00	  674.77	-1687.77	  378.91
     57.9700	  644.00	  662.62	-1741.62	  379.03
     58.0700	  694.00	  668.40	-1697.40	  379.15
     58.1700	  712.00	  690.02	-1701.02	  379.27
     58.2700	  774.00	  727.42	-1676.42	  379.39
     58.3700	  827.00	  780.69	-1676.69	  379.51
     58.4700	  808.00	  848.55	-1763.55	  379.63
     58.5700	  996.00	  926.82	-1653.82	  379.76
     58.6700	 1138.00	 1007.96	-1592.96	  379.88
     58.7700	 1207.00	 1083.20	-1599.20	  380.01
     58.8700	 1279.00	 1146.49	-1590.49	  380.14
     58.9700	 1356.00	 1194.28	-1561.28	  380.26
     59.0700	 1494.00	 1221.71	-1450.71	  380.39
     59.1700	 1378.00	 1224.40	-1569.40	  380.52
     59.2700	 1391.00	 1205.60	-1537.60	  380.65
     59.3700	 1296.00	 1176.61	-1603.61	  380.78
     59.4700	 1238.00	 1149.04	-1634.04	  380.91
     59.5700	 1156.00	 1131.27	-1698.27	  381.04
     59.6700	 1168.00	 1131.21	-1686.21	  381.18
     59.7700	 1156.00	 1157.86	-1724.86	  381.31
     59.8700	 1248.00	 1216.24	-1691.24	  381.45
     59.9700	 1353.00	 1301.66	-1671.66	  381.58
     60.0700	 1499.00	 1397.19	-1621.19	  381.72
     60.1700	 1553.00	 1474.56	-1644.56	  381.85
     60.2700	 1566.00	 1501.45	-1658.45	  381.99
     60.3700	 1482.00	 1458.36	-1699.36	  382.13
     60.4700	 1436.00	 1352.77	-1639.77	  382.27
     60.5700	 1247.00	 1211.66	-1687.66	  382.40
     60.6700	 1040.00	 1063.70	-1746.70	  382.54
     60.7700	  898.00	  929.59	-1754.59	  382.68
     60.8700	  846.00	  821.00	-1698.00	  382.83
     60.9700	  676.00	  741.94	-1788.94	  382.97
     61.0700	  634.00	  691.37	-1780.37	  383.11
     61.1700	  621.00	  666.12	-1768.12	  383.25
     61.2700	  633.00	  663.67	-1753.67	  383.39
     61.3700	  687.00	  683.59	-1719.59	  383.54
     61.4700	  711.00	  727.76	-1739.76	  383.68
     61.5700	  805.00	  799.06	-1717.06	  383.83
     61.6700	  895.00	  899.04	-1727.04	  383.97
     61.7700	  971.00	 1025.04	-1777.04	  384.12
     61.8700	 1082.00	 1167.60	-1808.60	  384.26
     61.9700	 1270.00	 1308.93	-1761.93	  384.41
     62.0700	 1354.00	 1422.75	-1791.75	  384.56
     62.1700	 1329.00	 1479.67	-1873.67	  384.70
     62.2700	 1346.00	 1461.06	-1838.06	  384.85
     62.3700	 1316.00	 1372.60	-1779.60	  385.00
     62.4700	 1158.00	 1239.88	-1804.88	  385.15
     62.5700	 1045.00	 1092.20	-1770.20	  385.30
     62.6700	  908.00	  952.08	-1767.08	  385.45
     62.7700	  781.00	  833.16	-1775.16	  385.60
     62.8700	  672.00	  741.04	-1792.04	  385.75
     62.9700	  622.00	  675.13	-1776.13	  385.90
     63.0700	  596.00	  631.25	-1758.25	  386.05
     63.1700	  633.00	  603.83	-1693.83	  386.20
     63.2700	  621.00	  587.75	-1689.75	  386.35
     63.3700	  594.00	  579.23	-1708.23	  386.50
     63.4700	  590.00	  576.03	-1709.03	  386.66
     63.5700	  604.00	  577.39	-1696.39	  386.81
     63.6700	  589.00	  583.76	-1717.76	  386.96
     63.7700	  671.00	  596.57	-1648.57	  387.11
     63.8700	  620.00	  617.84	-1720.84	  387.27
     63.9700	  671.00	  649.59	-1701.59	  387.42
     64.0700	  747.00	  693.11	-1669.11	  387.57
     64.1700	  799.00	  748.03	-1672.03	  387.73
     64.2700	  851.00	  811.38	-1683.38	  387.88
     64.3700	  921.00	  877.07	-1679.07	  388.04
     64.4700	  986.00	  935.76	-1672.76	  388.19
     64.5700	 1053.00	  976.12	-1646.12	  388.35
     64.6700	 1037.00	  990.70	-1676.70	  388.50
     64.7700	 1030.00	  977.34	-1670.34	  388.66
     64.8700	  973.00	  940.61	-1690.61	  388.81
     64.9700	  916.00	  889.06	-1696.06	  388.97
     65.0700	  871.00	  832.17	-1684.17	  389.12
     65.1700	  815.00	  777.59	-1685.59	  389.28
     65.2700	  747.00	  729.67	-1705.67	  389.43
     65.3700	  706.00	  689.69	-1706.69	  389.59
     65.4700	  648.00	  657.17	-1732.17	  389.74
     65.5700	  655.00	  631.18	-1699.18	  389.90
     65.6700	  619.00	  610.89	-1714.89	  390.05
     65.7700	  555.00	  595.49	-1763.49	  390.21
     65.8700	  560.00	  584.23	-1747.23	  390.36
     65.9700	  551.00	  576.44	-1748.44	  390.52
     66.0700	  534.00	  571.56	-1760.56	  390.67
     66.1700	  549.00	  569.08	-1743.08	  390.83
     66.2700	  585.00	  568.71	-1706.71	  390.98
     66.3700	  553.00	  569.88	-1739.88	  391.14
     66.4700	  605.00	  572.57	-1690.57	  391.30
     66.5700	  552.00	  576.86	-1747.86	  391.45
     66.6700	  574.00	  583.21	-1732.21	  391.61
     66.7700	  586.00	  592.63	-1729.63	  391.76
     66.8700	  641.00	  607.02	-1689.02	  391.91
     66.9700	  596.00	  629.62	-1756.62	  392.07
     67.0700	  653.00	  665.39	-1735.39	  392.22
     67.1700	  710.00	  721.24	-1734.24	  392.38
     67.2700	  763.00	  805.63	-1765.63	  392.53
     67.3700	  920.00	  927.44	-1730.44	  392.69
     67.4700	 1102.00	 1093.21	-1714.21	  392.84
     67.5700	 1261.00	 1304.72	-1766.72	  392.99
     67.6700	 1603.00	 1555.39	-1675.39	  393.15
     67.7700	 1861.00	 1827.72	-1689.72	  393.30
     67.8700	 2064.00	 2092.09	-1751.09	  393.45
     67.9700	 2296.00	 2307.82	-1734.82	  393.61
     68.0700	 2435.00	 2429.67	-1717.67	  393.76
     68.1700	 2471.00	 2426.55	-1678.55	  393.91
     68.2700	 2335.00	 2299.14	-1687.14	  394.06
     68.3700	 2229.00	 2080.17	-1574.17	  394.21
     68.4700	 1784.00	 1814.88	-1753.88	  394.37
     68.5700	 1470.00	 1543.44	-1796.44	  394.52
     68.6700	 1279.00	 1294.86	-1738.86	  394.67
     68.7700	 1023.00	 1086.04	-1786.04	  394.82
     68.8700	  851.00	  923.10	-1795.10	  394.97
     68.9700	  815.00	  804.02	-1712.02	  395.12
     69.0700	  711.00	  721.84	-1733.84	  395.27
     69.1700	  686.00	  667.73	-1704.73	  395.41
     69.2700	  628.00	  633.29	-1728.29	  395.56
     69.3700	  596.00	  611.71	-1738.71	  395.71
     69.4700	  591.00	  598.10	-1730.10	  395.86
     69.5700	  610.00	  589.28	-1702.28	  396.00
     69.6700	  591.00	  583.37	-1715.37	  396.15
     69.7700	  574.00	  579.28	-1728.28	  396.30
     69.8700	  560.00	  576.46	-1739.46	  396.44
     69.9700	  574.00	  574.61	-1723.61	  396.59
     70.0700	  568.00	  573.57	-1728.57	  396.73
     70.1700	  584.00	  573.30	-1712.30	  396.88
     70.2700	  551.00	  573.83	-1745.83	  397.02
     70.3700	  579.00	  575.29	-1719.29	  397.16
     70.4700	  577.00	  577.94	-1723.94	  397.31
     70.5700	  579.00	  582.32	-1726.32	  397.45
     70.6700	  620.00	  589.40	-1692.40	  397.59
     70.7700	  587.00	  600.79	-1736.79	  397.73
     70.8700	  653.00	  618.92	-1688.92	  397.87
     70.9700	  651.00	  647.39	-1719.39	  398.01
     71.0700	  658.00	  690.82	-1755.82	  398.15
     71.1700	  687.00	  754.53	-1790.53	  398.29
     71.2700	  846.00	  843.65	-1720.65	  398.43
     71.3700	  959.00	  961.67	-1725.67	  398.56
     71.4700	 1098.00	 1108.83	-1733.83	  398.70
     71.5700	 1306.00	 1280.40	-1697.40	  398.84
     71.6700	 1392.00	 1466.26	-1797.26	  398.97
     71.7700	 1639.00	 1647.07	-1731.07	  399.11
     71.8700	 1829.00	 1799.71	-1693.71	  399.24
     71.9700	 1868.00	 1897.31	-1752.31	  399.37
     72.0700	 1847.00	 1918.50	-1794.50	  399.51
     72.1700	 1806.00	 1858.15	-1775.15	  399.64
     72.2700	 1706.00	 1730.55	-1747.55	  399.77
     72.3700	 1557.00	 1561.15	-1727.15	  399.90
     72.4700	 1478.00	 1376.08	-1621.08	  400.03
     72.5700	 1244.00	 1195.79	-1674.79	  400.16
     72.6700	 1050.00	 1035.39	-1708.39	  400.28
     72.7700	  998.00	  902.11	-1627.11	  400.41
     72.8700	  857.00	  797.97	-1663.97	  400.54
     72.9700	  777.00	  720.91	-1666.91	  400.66
     73.0700	  776.00	  666.47	-1613.47	  400.79
     73.1700	  716.00	  629.42	-1636.42	  400.91
     73.2700	  693.00	  604.83	-1634.83	  401.03
     73.3700	  646.00	  588.66	-1665.66	  401.16
     73.4700	  626.00	  577.96	-1674.96	  401.28
     73.5700	  614.00	  570.74	-1679.74	  401.40
     73.6700	  578.00	  565.76	-1710.76	  401.52
     73.7700	  608.00	  562.29	-1677.29	  401.64
     73.8700	  635.00	  559.91	-1647.91	  401.75
     73.9700	  634.00	  558.38	-1647.38	  401.87
     74.0700	  648.00	  557.51	-1632.51	  401.99
     74.1700	  566.00	  557.16	-1714.16	  402.10
     74.2700	  597.00	  557.16	-1683.16	  402.22
     74.3700	  599.00	  557.31	-1681.31	  402.33
     74.4700	  587.00	  557.40	-1693.40	  402.44
     74.5700	  645.00	  557.20	-1635.20	  402.55
     74.6700	  637.00	  556.58	-1642.58	  402.66
     74.7700	  584.00	  555.52	-1694.52	  402.77
     74.8700	  651.00	  554.14	-1626.14	  402.88
     74.9700	  623.00	  552.70	-1652.70	  402.99
     75.0700	  566.00	  551.46	-1708.46	  403.09
     75.1700	  599.00	  550.68	-1674.68	  403.20
     75.2700	  567.00	  550.79	-1706.79	  403.30
     75.3700	  591.00	  552.13	-1684.13	  403.40
     75.4700	  567.00	  555.16	-1711.16	  403.51
     75.5700	  565.00	  560.37	-1718.37	  403.61
     75.6700	  569.00	  568.18	-1722.18	  403.71
     75.7700	  590.00	  579.30	-1712.30	  403.81
     75.8700	  615.00	  593.85	-1701.85	  403.90
     75.9700	  620.00	  611.70	-1714.70	  404.00
     76.0700	  660.00	  632.27	-1695.27	  404.09
     76.1700	  673.00	  654.33	-1704.33	  404.19
     76.2700	  637.00	  676.02	-1762.02	  404.28
     76.3700	  758.00	  694.91	-1659.91	  404.37
     76.4700	  724.00	  708.24	-1707.24	  404.46
     76.5700	  747.00	  713.57	-1689.57	  404.55
     76.6700	  669.00	  709.77	-1763.77	  404.64
     76.7700	  727.00	  697.61	-1693.61	  404.73
     76.8700	  674.00	  679.34	-1728.34	  404.82
     76.9700	  623.00	  657.73	-1757.73	  404.90
     77.0700	  575.00	  635.10	-1783.10	  404.98
     77.1700	  596.00	  613.80	-1740.80	  405.07
     77.2700	  564.00	  594.97	-1753.97	  405.15
     77.3700	  539.00	  579.29	-1763.29	  405.23
     77.4700	  523.00	  566.93	-1766.93	  405.31
     77.5700	  532.00	  557.66	-1748.66	  405.38
     77.6700	  518.00	  551.01	-1756.01	  405.46
     77.7700	  531.00	  546.41	-1738.41	  405.54
     77.8700	  542.00	  543.34	-1724.34	  405.61
     77.9700	  513.00	  541.33	-1751.33	  405.68
     78.0700	  522.00	  540.02	-1741.02	  405.75
     78.1700	  522.00	  539.17	-1740.17	  405.82
     78.2700	  511.00	  538.63	-1750.63	  405.89
     78.3700	  539.00	  538.27	-1722.27	  405.96
     78.4700	  482.00	  538.07	-1779.07	  406.02
     78.5700	  487.00	  537.97	-1773.97	  406.09
     78.6700	  467.00	  537.98	-1793.98	  406.15
     78.7700	  495.00	  538.11	-1766.11	  406.21
     78.8700	  499.00	  538.37	-1762.37	  406.27
     78.9700	  482.00	  538.79	-1779.79	  406.33
     79.0700	  491.00	  539.40	-1771.40	  406.39
     79.1700	  520.00	  540.25	-1743.25	  406.45
     79.2700	  535.00	  541.38	-1729.38	  406.50
     79.3700	  504.00	  542.83	-1761.83	  406.56
     79.4700	  534.00	  544.48	-1733.48	  406.61
     79.5700	  544.00	  546.74	-1725.74	  406.66
     79.6700	  530.00	  549.50	-1742.50	  406.71
     79.7700	  506.00	  552.86	-1769.86	  406.76
     79.8700	  535.00	  556.94	-1744.94	  406.81
     79.9700	  579.00	  561.90	-1705.90	  406.85
     80.0700	  536.00	  567.97	-1754.97	  406.89
     80.1700	  530.00	  575.43	-1768.43	  406.94
     80.2700	  571.00	  584.60	-1736.60	  406.98
     80.3700	  554.00	  595.76	-1764.76	  407.02
     80.4700	  548.00	  609.02	-1784.02	  407.06
     80.5700	  574.00	  624.27	-1773.27	  407.09
     80.6700	  633.00	  641.07	-1731.07	  407.13
     80.7700	  609.00	  658.68	-1772.68	  407.16
     80.8700	  616.00	  676.01	-1783.01	  407.19
     80.9700	  654.00	  691.84	-1760.84	  407.22
     81.0700	  704.00	  705.02	-1724.02	  407.25
     81.1700	  768.00	  714.67	-1669.67	  407.28
     81.2700	  772.00	  720.19	-1671.19	  407.31
     81.3700	  789.00	  721.29	-1655.29	  407.33
     81.4700	  762.00	  717.97	-1678.97	  407.36
     81.5700	  722.00	  710.55	-1711.55	  407.38
     81.6700	  786.00	  699.52	-1636.52	  407.40
     81.7700	  658.00	  685.57	-1750.57	  407.42
     81.8700	  704.00	  669.61	-1688.61	  407.43
     81.9700	  669.00	  652.74	-1706.74	  407.45
     82.0700	  729.00	  635.99	-1629.99	  407.46
     82.1700	  622.00	  620.18	-1721.18	  407.48
     82.2700	  634.00	  605.83	-1694.83	  407.49
     82.3700	  620.00	  593.18	-1696.18	  407.50
     82.4700	  607.00	  582.47	-1698.47	  407.50
     82.5700	  626.00	  573.66	-1670.66	  407.51
     82.6700	  585.00	  566.72	-1704.72	  407.52
     82.7700	  530.00	  561.58	-1754.58	  407.52
     82.8700	  530.00	  558.12	-1751.12	  407.52
     82.9700	  557.00	  556.27	-1722.27	  407.52
     83.0700	  545.00	  555.90	-1733.90	  407.52
     83.1700	  523.00	  556.92	-1756.92	  407.52
     83.2700	  568.00	  559.18	-1714.18	  407.51
     83.3700	  553.00	  562.51	-1732.51	  407.50
     83.4700	  573.00	  566.66	-1716.66	  407.50
     83.5700	  516.00	  571.31	-1778.31	  407.49
     83.6700	  544.00	  576.03	-1755.03	  407.48
     83.7700	  572.00	  580.35	-1731.35	  407.46
     83.8700	  555.00	  583.71	-1751.71	  407.45
     83.9700	  542.00	  585.61	-1766.61	  407.43
     84.0700	  567.00	  585.71	-1741.71	  407.42
     84.1700	  590.00	  583.93	-1716.93	  407.40
     84.2700	  552.00	  580.53	-1751.53	  407.38
     84.3700	  551.00	  575.96	-1747.96	  407.35
     84.4700	  569.00	  570.72	-1724.72	  407.33
     84.5700	  556.00	  565.28	-1732.28	  407.30
     84.6700	  532.00	  560.01	-1751.01	  407.28
     84.7700	  550.00	  555.21	-1728.21	  407.25
     84.8700	  537.00	  551.04	-1737.04	  407.22
     84.9700	  541.00	  547.59	-1729.59	  407.18
     85.0700	  515.00	  544.88	-1752.88	  407.15
     85.1700	  546.00	  542.84	-1719.84	  407.11
     85.2700	  563.00	  541.41	-1701.41	  407.08
     85.3700	  553.00	  540.50	-1710.50	  407.04
     85.4700	  503.00	  540.02	-1760.02	  407.00
     85.5700	  531.00	  539.92	-1731.92	  406.95
     85.6700	  534.00	  540.15	-1729.15	  406.91
     85.7700	  553.00	  540.73	-1710.73	  406.86
     85.8700	  531.00	  541.70	-1733.70	  406.82
     85.9700	  531.00	  543.13	-1735.13	  406.77
     86.0700	  571.00	  545.15	-1697.15	  406.72
     86.1700	  515.00	  547.91	-1755.91	  406.66
     86.2700	  565.00	  551.60	-1709.60	  406.61
     86.3700	  546.00	  556.40	-1733.40	  406.56
     86.4700	  566.00	  562.48	-1719.48	  406.50
     86.5700	  554.00	  569.94	-1738.94	  406.44
     86.6700	  582.00	  578.81	-1719.81	  406.38
     86.7700	  581.00	  588.95	-1730.95	  406.32
     86.8700	  575.00	  600.06	-1748.06	  406.25
     86.9700	  623.00	  611.63	-1711.63	  406.19
     87.0700	  635.00	  622.63	-1710.63	  406.12
     87.1700	  655.00	  632.89	-1700.89	  406.05
     87.2700	  665.00	  641.08	-1699.08	  405.98
     87.3700	  661.00	  646.28	-1708.28	  405.91
     87.4700	  635.00	  647.83	-1735.83	  405.83
     87.5700	  666.00	  645.54	-1702.54	  405.76
     87.6700	  594.00	  639.81	-1768.81	  405.68
     87.7700	  633.00	  631.46	-1721.46	  405.60
     87.8700	  622.00	  621.52	-1722.52	  405.52
     87.9700	  661.00	  611.01	-1673.01	  405.44
     88.0700	  663.00	  600.86	-1660.86	  405.35
     88.1700	  581.00	  591.85	-1733.85	  405.27
     88.2700	  626.00	  584.54	-1681.54	  405.18
     88.3700	  610.00	  579.32	-1692.32	  405.09
     88.4700	  623.00	  576.35	-1676.35	  405.00
     88.5700	  652.00	  575.63	-1646.63	  404.91
     88.6700	  574.00	  576.98	-1725.98	  404.81
     88.7700	  578.00	  580.07	-1725.07	  404.72
     88.8700	  614.00	  584.46	-1693.46	  404.62
     88.9700	  605.00	  589.62	-1707.62	  404.52
     89.0700	  614.00	  594.93	-1703.93	  404.42
     89.1700	  624.00	  599.75	-1698.75	  404.32
     89.2700	  621.00	  603.41	-1705.41	  404.21
     89.3700	  583.00	  605.36	-1745.36	  404.11
     89.4700	  602.00	  605.24	-1726.24	  404.00
     89.5700	  618.00	  603.00	-1708.00	  403.89
     89.6700	  573.00	  598.89	-1748.89	  403.78
     89.7700	  575.00	  593.35	-1741.35	  403.67
     89.8700	  609.00	  586.93	-1700.93	  403.56
     89.9700	  604.00	  580.12	-1699.12	  403.44
     90.0700	  547.00	  573.37	-1749.37	  403.32
     90.1700	  561.00	  567.02	-1729.02	  403.20
     90.2700	  589.00	  561.31	-1695.31	  403.08
     90.3700	  569.00	  556.41	-1710.41	  402.96
     90.4700	  523.00	  552.36	-1752.36	  402.84
     90.5700	  512.00	  549.17	-1760.17	  402.71
     90.6700	  521.00	  546.76	-1748.76	  402.59
     90.7700	  511.00	  545.06	-1757.06	  402.46
     90.8700	  513.00	  543.97	-1753.97	  402.33
     90.9700	  537.00	  543.41	-1729.41	  402.20
     91.0700	  541.00	  543.31	-1725.31	  402.06
     91.1700	  536.00	  543.65	-1730.65	  401.93
     91.2700	  534.00	  544.43	-1733.43	  401.79
     91.3700	  521.00	  545.72	-1747.72	  401.65
     91.4700	  532.00	  547.60	-1738.60	  401.51
     91.5700	  521.00	  550.22	-1752.22	  401.37
     91.6700	  549.00	  553.77	-1727.77	  401.23
     91.7700	  541.00	  558.44	-1740.44	  401.09
     91.8700	  555.00	  564.47	-1732.47	  400.94
     91.9700	  552.00	  572.08	-1743.08	  400.79
     92.0700	  611.00	  581.46	-1693.46	  400.64
     92.1700	  569.00	  592.74	-1746.74	  400.49
     92.2700	  587.00	  605.72	-1741.72	  400.34
     92.3700	  581.00	  620.81	-1762.81	  400.19
     92.4700	  587.00	  637.56	-1773.56	  400.03
     92.5700	  631.00	  655.61	-1747.61	  399.88
     92.6700	  691.00	  674.43	-1706.43	  399.72
     92.7700	  669.00	  693.36	-1747.36	  399.56
     92.8700	  720.00	  711.62	-1714.62	  399.40
     92.9700	  754.00	  728.40	-1697.40	  399.24
     93.0700	  746.00	  743.04	-1720.04	  399.07
     93.1700	  777.00	  755.18	-1701.18	  398.91
     93.2700	  799.00	  764.89	-1688.89	  398.74
     93.3700	  792.00	  772.59	-1703.59	  398.57
     93.4700	  831.00	  778.90	-1670.90	  398.40
     93.5700	  805.00	  784.48	-1702.48	  398.23
     93.6700	  852.00	  789.92	-1660.92	  398.06
     93.7700	  817.00	  795.75	-1701.75	  397.88
     93.8700	  862.00	  802.48	-1663.48	  397.71
     93.9700	  839.00	  810.65	-1694.65	  397.53
     94.0700	  852.00	  820.68	-1691.68	  397.35
     94.1700	  828.00	  832.78	-1727.78	  397.17
     94.2700	  870.00	  846.82	-1699.82	  396.99
     94.3700	  876.00	  862.15	-1709.15	  396.81
     94.4700	  898.00	  877.70	-1702.70	  396.63
     94.5700	  942.00	  892.00	-1673.00	  396.44
     94.6700	  999.00	  903.29	-1627.29	  396.26
     94.7700	  928.00	  909.75	-1704.75	  396.07
     94.8700	  909.00	  909.87	-1723.87	  395.88
     94.9700	  955.00	  902.85	-1670.85	  395.69
     95.0700	  971.00	  888.81	-1640.81	  395.50
     95.1700	  865.00	  868.77	-1726.77	  395.30
     95.2700	  863.00	  844.40	-1704.40	  395.11
     95.3700	  839.00	  817.63	-1701.63	  394.91
     95.4700	  813.00	  790.45	-1700.45	  394.72
     95.5700	  756.00	  764.73	-1731.73	  394.52
     95.6700	  716.00	  742.21	-1749.21	  394.32
     95.7700	  723.00	  724.42	-1724.42	  394.12
     95.8700	  724.00	  712.75	-1711.75	  393.92
     95.9700	  697.00	  708.40	-1734.40	  393.71
     96.0700	  694.00	  712.40	-1741.40	  393.51
     96.1700	  757.00	  725.60	-1691.60	  393.30
     96.2700	  772.00	  748.63	-1699.63	  393.10
     96.3700	  769.00	  781.86	-1735.86	  392.89
     96.4700	  811.00	  825.31	-1737.31	  392.68
     96.5700	  826.00	  878.58	-1775.58	  392.47
     96.6700	  964.00	  940.74	-1699.74	  392.26
     96.7700	 1005.00	 1010.28	-1728.28	  392.05
     96.8700	 1050.00	 1084.97	-1757.97	  391.83
     96.9700	 1207.00	 1161.96	-1677.96	  391.62
     97.0700	 1259.00	 1237.69	-1701.69	  391.40
     97.1700	 1241.00	 1308.10	-1790.10	  391.19
     97.2700	 1301.00	 1368.73	-1790.73	  390.97
     97.3700	 1443.00	 1415.18	-1695.18	  390.75
     97.4700	 1425.00	 1443.76	-1741.76	  390.53
     97.5700	 1423.00	 1452.15	-1752.15	  390.31
     97.6700	 1449.00	 1440.03	-1714.03	  390.09
     97.7700	 1365.00	 1409.03	-1767.03	  389.87
     97.8700	 1346.00	 1362.27	-1739.27	  389.64
     97.9700	 1282.00	 1303.75	-1744.75	  389.42
     98.0700	 1193.00	 1237.71	-1767.71	  389.19
     98.1700	 1151.00	 1168.25	-1740.25	  388.97
     98.2700	 1090.00	 1099.13	-1732.13	  388.74
     98.3700	 1101.00	 1033.62	-1655.62	  388.51
     98.4700	  964.00	  974.56	-1733.56	  388.28
     98.5700	  896.00	  924.20	-1751.20	  388.05
     98.6700	  902.00	  884.32	-1705.32	  387.82
     98.7700	  827.00	  856.27	-1752.27	  387.59
     98.8700	  817.00	  841.06	-1747.06	  387.36
     98.9700	  746.00	  839.38	-1816.38	  387.12
     99.0700	  822.00	  851.68	-1752.68	  386.89
     99.1700	  817.00	  878.17	-1784.17	  386.66
     99.2700	  871.00	  918.85	-1770.85	  386.42
     99.3700	  970.00	  973.47	-1726.47	  386.18
     99.4700	 1033.00	 1041.43	-1731.43	  385.95
     99.5700	 1103.00	 1121.77	-1741.77	  385.71
     99.6700	 1209.00	 1212.97	-1726.97	  385.47
     99.7700	 1249.00	 1312.97	-1786.97	  385.23
     99.8700	 1423.00	 1419.02	-1719.02	  384.99
     99.9700	 1572.00	 1527.68	-1678.68	  384.75
    100.0700	 1666.00	 1634.89	-1691.89	  384.51
    100.1700	 1719.00	 1736.21	-1740.21	  384.27
    100.2700	 1809.00	 1827.23	-1741.23	  384.03
    100.3700	 1842.00	 1904.03	-1785.03	  383.78
    100.4700	 2055.00	 1963.57	-1631.57	  383.54
    100.5700	 1992.00	 2003.78	-1734.78	  383.30
    100.6700	 2004.00	 2023.41	-1742.41	  383.05
    100.7700	 2066.00	 2021.87	-1678.87	  382.81
    100.8700	 1980.00	 1999.20	-1742.20	  382.56
    100.9700	 1896.00	 1956.42	-1783.42	  382.32
    101.0700	 1958.00	 1895.79	-1660.79	  382.07
    101.1700	 1845.00	 1820.92	-1698.92	  381.82
    101.2700	 1760.00	 1736.40	-1699.40	  381.58
    101.3700	 1726.00	 1647.24	-1644.24	  381.33
    101.4700	 1544.00	 1558.25	-1737.25	  381.08
    101.5700	 1497.00	 1473.58	-1699.58	  380.83
    101.6700	 1417.00	 1396.48	-1702.48	  380.59
    101.7700	 1358.00	 1329.15	-1694.15	  380.34
    101.8700	 1283.00	 1272.74	-1712.74	  380.09
    101.9700	 1238.00	 1227.40	-1712.40	  379.84
    102.0700	 1231.00	 1192.34	-1684.34	  379.59
    102.1700	 1150.00	 1165.98	-1738.98	  379.34
    102.2700	 1106.00	 1146.08	-1763.08	  379.09
    102.3700	 1170.00	 1129.99	-1682.99	  378.84
    102.4700	 1138.00	 1114.92	-1699.92	  378.59
    102.5700	 1034.00	 1098.32	-1787.32	  378.34
    102.6700	 1043.00	 1078.15	-1758.15	  378.09
    102.7700	 1118.00	 1053.23	-1658.23	  377.84
    102.8700	 1000.00	 1023.23	-1746.23	  377.59
    102.9700	  991.00	  988.63	-1720.63	  377.34
    103.0700	  962.00	  950.40	-1711.40	  377.09
    103.1700	  869.00	  909.82	-1763.82	  376.84
    103.2700	  875.00	  868.21	-1716.21	  376.59
    103.3700	  863.00	  826.87	-1686.87	  376.34
    103.4700	  814.00	  786.94	-1695.94	  376.09
    103.5700	  725.00	  749.38	-1747.38	  375.84
    103.6700	  736.00	  714.89	-1701.89	  375.59
    103.7700	  696.00	  683.99	-1710.99	  375.34
    103.8700	  729.00	  656.93	-1650.93	  375.09
    103.9700	  646.00	  633.78	-1710.78	  374.84
    104.0700	  623.00	  614.42	-1714.42	  374.59
    104.1700	  586.00	  598.60	-1735.60	  374.34
    104.2700	  582.00	  585.98	-1726.98	  374.09
    104.3700	  553.00	  576.18	-1746.18	  373.84
    104.4700	  540.00	  568.80	-1751.80	  373.60
    104.5700	  566.00	  563.43	-1720.43	  373.35
    104.6700	  566.00	  559.73	-1716.73	  373.10
    104.7700	  546.00	  557.38	-1734.38	  372.85
    104.8700	  561.00	  556.09	-1718.09	  372.61
    104.9700	  548.00	  555.67	-1730.67	  372.36
    105.0700	  519.00	  555.95	-1759.95	  372.12
    105.1700	  542.00	  556.79	-1737.79	  371.87
    105.2700	  535.00	  558.11	-1746.11	  371.63
    105.3700	  550.00	  559.90	-1732.90	  371.38
    105.4700	  558.00	  562.15	-1727.15	  371.14
    105.5700	  575.00	  564.90	-1712.90	  370.90
    105.6700	  549.00	  568.25	-1742.25	  370.66
    105.7700	  563.00	  572.27	-1732.27	  370.42
    105.8700	  555.00	  577.09	-1745.09	  370.17
    105.9700	  547.00	  582.78	-1758.78	  369.94
    106.0700	  571.00	  589.42	-1741.42	  369.70
    106.1700	  605.00	  597.00	-1715.00	  369.46
    106.2700	  610.00	  605.50	-1718.50	  369.22
    106.3700	  658.00	  614.80	-1679.80	  368.98
    106.4700	  610.00	  624.72	-1737.72	  368.75
    106.5700	  660.00	  635.05	-1698.05	  368.51
    106.6700	  639.00	  645.48	-1729.48	  368.28
    106.7700	  690.00	  655.67	-1688.67	  368.05
    106.8700	  680.00	  665.25	-1708.25	  367.82
    106.9700	  664.00	  673.83	-1732.83	  367.59
    107.0700	  689.00	  681.05	-1715.05	  367.36
    107.1700	  707.00	  686.65	-1702.65	  367.13
    107.2700	  718.00	  690.47	-1695.47	  366.90
    107.3700	  667.00	  692.55	-1748.55	  366.67
    107.4700	  706.00	  693.09	-1710.09	  366.45
    107.5700	  663.00	  692.41	-1752.41	  366.23
    107.6700	  713.00	  690.92	-1700.92	  366.00
    107.7700	  649.00	  689.05	-1763.05	  365.78
    107.8700	  702.00	  687.21	-1708.21	  365.56
    107.9700	  703.00	  685.71	-1705.71	  365.34
    108.0700	  650.00	  684.76	-1757.76	  365.13
    108.1700	  656.00	  684.49	-1751.49	  364.91
    108.2700	  685.00	  684.87	-1722.87	  364.70
    108.3700	  698.00	  685.81	-1710.81	  364.48
    108.4700	  744.00	  687.05	-1666.05	  364.27
    108.5700	  685.00	  688.29	-1726.29	  364.06
    108.6700	  651.00	  689.15	-1761.15	  363.86
    108.7700	  717.00	  689.21	-1695.21	  363.65
    108.8700	  660.00	  688.10	-1751.10	  363.44
    108.9700	  712.00	  685.52	-1696.52	  363.24
    109.0700	  670.00	  681.28	-1734.28	  363.04
    109.1700	  668.00	  675.39	-1730.39	  362.84
    109.2700	  677.00	  667.95	-1713.95	  362.64
    109.3700	  685.00	  659.21	-1697.21	  362.45
    109.4700	  618.00	  649.46	-1754.46	  362.25
    109.5700	  616.00	  639.06	-1746.06	  362.06
    109.6700	  655.00	  628.33	-1696.33	  361.87
    109.7700	  630.00	  617.61	-1710.61	  361.68
    109.8700	  596.00	  607.17	-1734.17	  361.50
    109.9700	  615.00	  597.26	-1705.26	  361.31
    110.0700	  570.00	  588.09	-1741.09	  361.13
    110.1700	  573.00	  579.78	-1729.78	  360.95
    110.2700	  591.00	  572.45	-1704.45	  360.77
    110.3700	  599.00	  566.14	-1690.14	  360.60
    110.4700	  590.00	  560.86	-1693.86	  360.42
    110.5700	  586.00	  556.57	-1693.57	  360.25
    110.6700	  590.00	  553.22	-1686.22	  360.08
    110.7700	  549.00	  550.74	-1724.74	  359.92
    110.8700	  547.00	  549.05	-1725.05	  359.75
    110.9700	  554.00	  548.04	-1717.04	  359.59
    111.0700	  532.00	  547.63	-1738.63	  359.43
    111.1700	  531.00	  547.74	-1739.74	  359.28
    111.2700	  525.00	  548.28	-1746.28	  359.12
    111.3700	  515.00	  549.20	-1757.20	  358.97
    111.4700	  538.00	  550.43	-1735.43	  358.82
    111.5700	  514.00	  551.94	-1760.94	  358.68
    111.6700	  563.00	  553.67	-1713.67	  358.53
    111.7700	  546.00	  555.62	-1732.62	  358.39
    111.8700	  582.00	  557.76	-1698.76	  358.26
    111.9700	  542.00	  560.09	-1741.09	  358.12
    112.0700	  563.00	  562.61	-1722.61	  357.99
    112.1700	  536.00	  565.34	-1752.34	  357.86
    112.2700	  581.00	  568.30	-1710.30	  357.73
    112.3700	  575.00	  571.51	-1719.51	  357.61
    112.4700	  552.00	  575.02	-1746.02	  357.49
    112.5700	  561.00	  578.88	-1740.88	  357.37
    112.6700	  582.00	  583.16	-1724.16	  357.26
    112.7700	  602.00	  587.94	-1708.94	  357.15
    112.8700	  600.00	  593.33	-1716.33	  357.04
    112.9700	  672.00	  599.49	-1650.49	  356.94
    113.0700	  614.00	  606.59	-1715.59	  356.84
    113.1700	  655.00	  614.88	-1682.88	  356.74
    113.2700	  680.00	  624.67	-1667.67	  356.64
    113.3700	  686.00	  636.37	-1673.37	  356.55
    113.4700	  635.00	  650.48	-1738.48	  356.47
    113.5700	  683.00	  667.63	-1707.63	  356.38
    113.6700	  701.00	  688.62	-1710.62	  356.30
    113.7700	  801.00	  714.40	-1636.40	  356.22
    113.8700	  818.00	  746.14	-1651.14	  356.15
    113.9700	  835.00	  785.17	-1673.17	  356.08
    114.0700	  924.00	  833.09	-1632.09	  356.02
    114.1700	  916.00	  891.67	-1698.67	  355.96
    114.2700	 1050.00	  962.91	-1635.91	  355.90
    114.3700	 1218.00	 1049.00	-1554.00	  355.84
    114.4700	 1261.00	 1152.19	-1614.19	  355.79
    114.5700	 1391.00	 1274.83	-1606.83	  355.75
    114.6700	 1479.00	 1419.17	-1663.17	  355.71
    114.7700	 1748.00	 1587.35	-1562.35	  355.67
    114.8700	 1804.00	 1781.20	-1700.20	  355.63
    114.9700	 2127.00	 2002.08	-1598.08	  355.60
    115.0700	 2378.00	 2250.73	-1595.73	  355.58
    115.1700	 2591.00	 2527.12	-1659.12	  355.56
    115.2700	 2915.00	 2830.35	-1638.35	  355.54
    115.3700	 3207.00	 3158.52	-1674.52	  355.53
    115.4700	 3516.00	 3508.51	-1715.51	  355.52
    115.5700	 3848.00	 3876.01	-1751.01	  355.52
    115.6700	 4204.00	 4255.46	-1774.46	  355.52
    115.7700	 4416.00	 4640.17	-1947.17	  355.52
    115.8700	 4849.00	 5022.30	-1896.30	  355.54
    115.9700	 5249.00	 5392.84	-1866.84	  355.55
    116.0700	 5496.00	 5741.92	-1968.92	  355.57
    116.1700	 5865.00	 6059.04	-1917.04	  355.59
    116.2700	 6216.00	 6333.59	-1840.59	  355.62
    116.3700	 6456.00	 6555.35	-1822.35	  355.66
    116.4700	 6550.00	 6715.22	-1888.22	  355.70
    116.5700	 6892.00	 6806.24	-1637.24	  355.74
    116.6700	 6889.00	 6824.35	-1658.35	  355.79
    116.7700	 6709.00	 6768.98	-1782.98	  355.84
    116.8700	 6746.00	 6643.00	-1620.00	  355.90
    116.9700	 6498.00	 6452.45	-1677.45	  355.97
    117.0700	 6075.00	 6205.73	-1853.73	  356.04
    117.1700	 5908.00	 5912.77	-1727.77	  356.11
    117.2700	 5520.00	 5584.06	-1787.06	  356.19
    117.3700	 5194.00	 5230.00	-1759.00	  356.28
    117.4700	 4806.00	 4860.61	-1777.61	  356.37
    117.5700	 4488.00	 4485.05	-1720.05	  356.47
    117.6700	 4245.00	 4111.47	-1589.47	  356.57
    117.7700	 3891.00	 3746.77	-1578.77	  356.68
    117.8700	 3521.00	 3396.65	-1598.65	  356.79
    117.9700	 3188.00	 3065.70	-1600.70	  356.91
    118.0700	 2931.00	 2757.25	-1549.25	  357.04
    118.1700	 2491.00	 2473.60	-1705.60	  357.17
    118.2700	 2210.00	 2215.90	-1728.90	  357.31
    118.3700	 1967.00	 1984.46	-1740.46	  357.45
    118.4700	 1784.00	 1778.90	-1717.90	  357.60
    118.5700	 1519.00	 1598.20	-1802.20	  357.75
    118.6700	 1464.00	 1440.88	-1699.88	  357.91
    118.7700	 1303.00	 1305.11	-1725.11	  358.08
    118.8700	 1123.00	 1188.86	-1788.86	  358.26
    118.9700	 1053.00	 1090.03	-1760.03	  358.44
    119.0700	  930.00	 1006.53	-1799.53	  358.62
    119.1700	  896.00	  936.34	-1763.34	  358.82
    119.2700	  830.00	  877.56	-1770.56	  359.02
    119.3700	  826.00	  828.48	-1725.48	  359.22
    119.4700	  704.00	  787.57	-1806.57	  359.43
    119.5700	  743.00	  753.49	-1733.49	  359.65
    119.6700	  702.00	  725.12	-1746.12	  359.88
    119.7700	  647.00	  701.47	-1777.47	  360.11
    119.8700	  648.00	  681.72	-1756.72	  360.35
    119.9700	  674.00	  665.23	-1714.23	  360.60
    120.0700	  634.00	  651.42	-1740.42	  360.85
    120.1700	  558.00	  639.88	-1804.88	  361.11
    120.2700	  569.00	  630.23	-1784.23	  361.38
    120.3700	  597.00	  622.18	-1748.18	  361.65
    120.4700	  577.00	  615.51	-1761.51	  361.94
    120.5700	  619.00	  610.04	-1714.04	  362.23
    120.6700	  567.00	  605.63	-1761.63	  362.52
    120.7700	  543.00	  602.16	-1782.16	  362.83
    120.8700	  579.00	  599.53	-1743.53	  363.14
    120.9700	  577.00	  597.69	-1743.69	  363.46
    121.0700	  537.00	  596.56	-1782.56	  363.78
    121.1700	  606.00	  596.10	-1713.10	  364.12
    121.2700	  567.00	  596.25	-1752.25	  364.46
    121.3700	  618.00	  596.97	-1701.97	  364.81
    121.4700	  555.00	  598.22	-1766.22	  365.17
    121.5700	  587.00	  599.94	-1735.94	  365.53
    121.6700	  623.00	  602.08	-1702.08	  365.91
    121.7700	  615.00	  604.58	-1712.58	  366.29
    121.8700	  603.00	  607.36	-1727.36	  366.68
    121.9700	  630.00	  610.36	-1703.36	  367.08
    122.0700	  586.00	  613.48	-1750.48	  367.48
    122.1700	  636.00	  616.63	-1703.63	  367.90
    122.2700	  631.00	  619.74	-1711.74	  368.32
    122.3700	  632.00	  622.71	-1713.71	  368.75
    122.4700	  665.00	  625.43	-1683.43	  369.19
    122.5700	  663.00	  627.81	-1687.81	  369.64
    122.6700	  642.00	  629.77	-1710.77	  370.10
    122.7700	  690.00	  631.24	-1664.24	  370.56
    122.8700	  639.00	  632.17	-1716.17	  371.04
    122.9700	  627.00	  632.52	-1728.52	  371.52
    123.0700	  629.00	  632.33	-1726.33	  372.01
    123.1700	  648.00	  631.58	-1706.58	  372.52
    123.2700	  616.00	  630.33	-1737.33	  373.03
    123.3700	  647.00	  628.62	-1704.62	  373.55
    123.4700	  645.00	  626.51	-1704.51	  374.08
    123.5700	  656.00	  624.08	-1691.08	  374.61
    123.6700	  624.00	  621.38	-1720.38	  375.16
    123.7700	  613.00	  618.48	-1728.48	  375.72
    123.8700	  630.00	  615.46	-1708.46	  376.28
    123.9700	  638.00	  612.38	-1697.38	  376.86
    124.0700	  662.00	  609.29	-1670.29	  377.45
    124.1700	  537.00	  606.25	-1792.25	  378.04
    124.2700	  622.00	  603.30	-1704.30	  378.65
    124.3700	  646.00	  600.49	-1677.49	  379.26
    124.4700	  574.00	  597.84	-1746.84	  379.89
    124.5700	  587.00	  595.37	-1731.37	  380.52
    124.6700	  617.00	  593.12	-1699.12	  381.17
    124.7700	  664.00	  591.08	-1650.08	  381.82
    124.8700	  556.00	  589.29	-1756.29	  382.49
    124.9700	  597.00	  501.67	-1627.67	  383.16
    125.0700	  619.00	  502.36	-1723.00	  383.85
    125.1700	  602.00	  503.05	-1723.00	  384.55
    125.2700	  557.00	  503.76	-1723.00	  385.25
    125.3700	  529.00	  504.48	-1723.00	  385.97
    125.4700	  570.00	  505.21	-1723.00	  386.70
    125.5700	  558.00	  505.95	-1723.00	  387.44
    125.6700	  538.00	  506.70	-1723.00	  388.19
    125.7700	  579.00	  507.46	-1723.00	  388.95
    125.8700	  535.00	  508.23	-1723.00	  389.72
    125.9700	  597.00	  509.01	-1723.00	  390.51
    126.0700	  630.00	  509.81	-1723.00	  391.30
    126.1700	  542.00	  510.61	-1723.00	  392.11
    126.2700	  563.00	  511.43	-1723.00	  392.92
    126.3700	  607.00	  512.26	-1723.00	  393.75
    126.4700	  541.00	  513.10	-1723.00	  394.59
    126.5700	  579.00	  513.95	-1723.00	  395.44
    126.6700	  678.00	  514.81	-1723.00	  396.30
    126.7700	  597.00	  515.68	-1723.00	  397.18
    126.8700	  623.00	  516.57	-1723.00	  398.06
    126.9700	  634.00	  517.47	-1723.00	  398.96
    127.0700	  624.00	  518.38	-1723.00	  399.87
    127.1700	  641.00	  519.30	-1723.00	  400.79
    127.2700	  610.00	  520.23	-1723.00	  401.73
    127.3700	  698.00	  521.18	-1723.00	  402.68
    127.4700	  689.00	  522.14	-1723.00	  403.63
    127.5700	  689.00	  523.11	-1723.00	  404.60
    127.6700	  750.00	  524.09	-1723.00	  405.59
    127.7700	  686.00	  525.09	-1723.00	  406.58
    127.8700	  769.00	  526.10	-1723.00	  407.59
    127.9700	  801.00	  527.12	-1723.00	  408.61
    128.0700	  760.00	  528.15	-1723.00	  409.65
    128.1700	  720.00	  529.20	-1723.00	  410.69
    128.2700	  815.00	  530.26	-1723.00	  411.75
    128.3700	  785.00	  531.33	-1723.00	  412.83
    128.4700	  818.00	  532.42	-1723.00	  413.91
    128.5700	    0.00	  533.52	-1723.00	  415.01
    128.6700	    0.00	  534.63	-1723.00	  416.12
     12.3035	        	        	        	        	       0	(  0  0  2)	  0  1
     24.8805	        	        	        	        	       0	(  0  0  4)	  0  1
     28.3318	        	        	        	        	       0	(  1  0  0)	  0  1
     29.0284	        	        	        	        	       0	(  1  0  1)	  0  1
     31.0329	        	        	        	        	       0	(  1  0  2)	  0  1
     34.1387	        	        	        	        	       0	(  1  0  3)	  0  1
     37.7729	        	        	        	        	       0	(  0  0  6)	  0  1
     38.1128	        	        	        	        	       0	(  1  0  4)	  0  1
     42.7595	        	        	        	        	       0	(  1  0  5)	  0  1
     47.9399	        	        	        	        	       0	(  1  0  6)	  0  1
     50.2663	        	        	        	        	       0	(  1  1  0)	  0  1
     51.1867	        	        	        	        	       0	(  0  0  8)	  0  1
     51.9878	        	        	        	        	       0	(  1  1  2)	  0  1
     53.5663	        	        	        	        	       0	(  1  0  7)	  0  1
     56.9314	        	        	        	        	       0	(  1  1  4)	  0  1
     58.7622	        	        	        	        	       0	(  2  0  0)	  0  1
     59.1535	        	        	        	        	       0	(  2  0  1)	  0  1
     59.5924	        	        	        	        	       0	(  1  0  8)	  0  1
     60.3178	        	        	        	        	       0	(  2  0  2)	  0  1
     62.2293	        	        	        	        	       0	(  2  0  3)	  0  1
     64.6195	        	        	        	        	       0	(  1  1  6)	  0  1
     64.8511	        	        	        	        	       0	(  2  0  4)	  0  1
     65.4062	        	        	        	        	       0	(  0  0 10)	  0  1
     66.0039	        	        	        	        	       0	(  1  0  9)	  0  1
     68.1424	        	        	        	        	       0	(  2  0  5)	  0  1
     72.0664	        	        	        	        	       0	(  2  0  6)	  0  1
     72.8146	        	        	        	        	       0	(  1  0 10)	  0  1
     74.6487	        	        	        	        	       0	(  1  1  8)	  0  1
     76.5965	        	        	        	        	       0	(  2  0  7)	  0  1
     80.0660	        	        	        	        	       0	(  1  0 11)	  0  1
     80.8742	        	        	        	        	       0	(  0  0 12)	  0  1
     81.0003	        	        	        	        	       0	(  2  1  0)	  0  1
     81.3398	        	        	        	        	       0	(  2  1  1)	  0  1
     81.7220	        	        	        	        	       0	(  2  0  8)	  0  1
     82.3567	        	        	        	        	       0	(  2  1  2)	  0  1
     84.0464	        	        	        	        	       0	(  2  1  3)	  0  1
     86.4037	        	        	        	        	       0	(  2  1  4)	  0  1
     86.9087	        	        	        	        	       0	(  1  1 10)	  0  1
     87.4545	        	        	        	        	       0	(  2  0  9)	  0  1
     87.8330	        	        	        	        	       0	(  1  0 12)	  0  1
     89.4265	        	        	        	        	       0	(  2  1  5)	  0  1
     93.1202	        	        	        	        	       0	(  2  1  6)	  0  1
     93.8354	        	        	        	        	       0	(  2  0 10)	  0  1
     94.8866	        	        	        	        	       0	(  3  0  0)	  0  1
     95.2236	        	        	        	        	       0	(  3  0  1)	  0  1
     96.2373	        	        	        	        	       0	(  1  0 13)	  0  1
     96.2358	        	        	        	        	       0	(  3  0  2)	  0  1
     97.5042	        	        	        	        	       0	(  2  1  7)	  0  1
     97.9273	        	        	        	        	       0	(  3  0  3)	  0  1
     98.3954	        	        	        	        	       0	(  0  0 14)	  0  1
    100.3078	        	        	        	        	       0	(  3  0  4)	  0  1
    100.9494	        	        	        	        	       0	(  2  0 11)	  0  1
    101.7630	        	        	        	        	       0	(  1  1 12)	  0  1
    102.6211	        	        	        	        	       0	(  2  1  8)	  0  1
    103.3961	        	        	        	        	       0	(  3  0  5)	  0  1
    105.4784	        	        	        	        	       0	(  1  0 14)	  0  1
    107.2270	        	        	        	        	       0	(  3  0  6)	  0  1
    108.5509	        	        	        	        	       0	(  2  1  9)	  0  1
    108.9505	        	        	        	        	       0	(  2  0 12)	  0  1
    111.8618	        	        	        	        	       0	(  3  0  7)	  0  1
    115.4386	        	        	        	        	       0	(  2  1 10)	  0  1
    115.9059	        	        	        	        	       0	(  1  0 15)	  0  1
    116.6060	        	        	        	        	       0	(  2  2  0)	  0  1
    117.4081	        	        	        	        	       0	(  3  0  8)	  0  1
    118.1211	        	        	        	        	       0	(  2  0 13)	  0  1
    118.1194	        	        	        	        	       0	(  2  2  2)	  0  1
    119.8508	        	        	        	        	       0	(  0  0 16)	  0  1
    120.5793	        	        	        	        	       0	(  1  1 14)	  0  1
    122.7991	        	        	        	        	       0	(  2  2  4)	  0  1
    123.5532	        	        	        	        	       0	(  2  1 11)	  0  1
    124.0584	        	        	        	        	       0	(  3  0  9)	  0  1
    124.6683	        	        	        	        	       0	(  3  1  0)	  0  1
    125.0780	        	        	        	        	       0	(  3  1  1)	  0  1
    126.3198	        	        	        	        	       0	(  3  1  2)	  0  1
    128.2239	        	        	        	        	       0	(  1  0 16)	  0  1
    128.4353	        	        	        	        	       0	(  3  1  3)	  0  1
    129.0301	        	        	        	        	       0	(  2  0 14)	  0  1
    131.2271	        	        	        	        	       0	(  2  2  6)	  0  1
    131.5069	        	        	        	        	       0	(  3  1  4)	  0  1
    132.1851	        	        	        	        	       0	(  3  0 10)	  0  1
    133.4464	        	        	        	        	       0	(  2  1 12)	  0  1
    135.6875	        	        	        	        	       0	(  3  1  5)	  0  1
    141.2730	        	        	        	        	       0	(  3  1  6)	  0  1
    142.6396	        	        	        	        	       0	(  3  0 11)	  0  1
    143.1292	        	        	        	        	       0	(  2  0 15)	  0  1
    144.3395	        	        	        	        	       0	(  1  0 17)	  0  1
    145.4334	        	        	        	        	       0	(  2  2  8)	  0  1
    146.5641	        	        	        	        	       0	(  2  1 13)	  0  1
    148.9287	        	        	        	        	       0	(  3  1  7)	  0  1
    149.4255	        	        	        	        	       0	(  1  1 16)	  0  1
    153.7668	        	        	        	        	       0	(  0  0 18)	  0  1
    158.4481	        	        	        	        	       0	(  3  0 12)	  0  1
    158.7916	        	        	        	        	       0	(  4  0  0)	  0  1
    159.7452	        	        	        	        	       0	(  4  0  1)	  0  1
    160.8744	        	        	        	        	       0	(  3  1  8)	  0  1
    162.9110	        	        	        	        	       0	(  4  0  2)	  0  1
    169.2599	        	        	        	        	       0	(  2  0 16)	  0  1
    170.1996	        	        	        	        	       0	(  4  0  3)	  0  1
    173.5221	        	        	        	        	       0	(  2  1 14)	  0  1
