MSG Master    CELL:    5.89693   5.89693  23.17104   90.0000   90.0000  120.0000   SPGR: P 63/m m c             TEMP:    742.35
  1   1280     2.52000     0.00000    -0.12569     0.00000     0.00000    0
    96     0     2
       0.00000      10.00000
     125.00000     130.00000
 2Theta	Yobs	Ycal	Yobs-Ycal	Backg	Posr	(hkl)	K
      0.7700	    0.00	  448.09	-1798.75	  336.07
      0.8700	    0.00	  450.91	-1798.75	  338.88
      0.9700	   34.00	  453.69	-1798.75	  341.67
      1.0700	   61.00	  456.46	-1798.75	  344.43
      1.1700	   48.00	  459.19	-1798.75	  347.17
      1.2700	   50.00	  461.90	-1798.75	  349.88
      1.3700	   39.00	  464.58	-1798.75	  352.55
      1.4700	   85.00	  467.23	-1798.75	  355.21
      1.5700	  291.00	  469.85	-1798.75	  357.83
      1.6700	  449.00	  472.45	-1798.75	  360.43
      1.7700	  577.00	  475.03	-1798.75	  363.00
      1.8700	  708.00	  477.57	-1798.75	  365.55
      1.9700	  700.00	  480.09	-1798.75	  368.07
      2.0700	  762.00	  482.58	-1798.75	  370.56
      2.1700	  769.00	  485.05	-1798.75	  373.03
      2.2700	  766.00	  487.49	-1798.75	  375.47
      2.3700	  721.00	  489.91	-1798.75	  377.89
      2.4700	  708.00	  492.30	-1798.75	  380.28
      2.5700	  743.00	  494.67	-1798.75	  382.64
      2.6700	  688.00	  497.00	-1798.75	  384.98
      2.7700	  692.00	  499.32	-1798.75	  387.30
      2.8700	  630.00	  501.61	-1798.75	  389.59
      2.9700	  650.00	  503.87	-1798.75	  391.85
      3.0700	  581.00	  506.12	-1798.75	  394.09
      3.1700	  586.00	  508.33	-1798.75	  396.31
      3.2700	  697.00	  510.52	-1798.75	  398.50
      3.3700	  853.00	  512.69	-1798.75	  400.67
      3.4700	 1037.00	  514.83	-1798.75	  402.81
      3.5700	 1145.00	  516.95	-1798.75	  404.93
      3.6700	 1216.00	  519.05	-1798.75	  407.03
      3.7700	 1344.00	  521.12	-1798.75	  409.10
      3.8700	 1406.00	  523.17	-1798.75	  411.15
      3.9700	 1429.00	  525.20	-1798.75	  413.17
      4.0700	 1552.00	  527.20	-1798.75	  415.18
      4.1700	 1588.00	  529.18	-1798.75	  417.15
      4.2700	 1611.00	  531.13	-1798.75	  419.11
      4.3700	 1589.00	  533.07	-1798.75	  421.04
      4.4700	 1560.00	  534.98	-1798.75	  422.96
      4.5700	 1496.00	  536.87	-1798.75	  424.84
      4.6700	 1448.00	  538.73	-1798.75	  426.71
      4.7700	 1379.00	  540.58	-1798.75	  428.55
      4.8700	 1396.00	  542.40	-1798.75	  430.38
      4.9700	 1247.00	  544.20	-1798.75	  432.18
      5.0700	 1266.00	  545.98	-1798.75	  433.95
      5.1700	 1267.00	  547.73	-1798.75	  435.71
      5.2700	 1121.00	  549.47	-1798.75	  437.45
      5.3700	 1133.00	  551.18	-1798.75	  439.16
      5.4700	 1116.00	  552.87	-1798.75	  440.85
      5.5700	 1063.00	  554.55	-1798.75	  442.52
      5.6700	 1067.00	  556.20	-1798.75	  444.17
      5.7700	 1087.00	  557.83	-1798.75	  445.80
      5.8700	 1001.00	  559.44	-1798.75	  447.41
      5.9700	 1002.00	  561.02	-1798.75	  449.00
      6.0700	  956.00	  562.59	-1798.75	  450.57
      6.1700	 1020.00	  564.14	-1798.75	  452.12
      6.2700	  956.00	  565.67	-1798.75	  453.65
      6.3700	  959.00	  567.18	-1798.75	  455.15
      6.4700	  964.00	  568.66	-1798.75	  456.64
      6.5700	  896.00	  570.13	-1798.75	  458.11
      6.6700	  891.00	  571.58	-1798.75	  459.56
      6.7700	  922.00	  573.01	-1798.75	  460.99
      6.8700	  852.00	  574.42	-1798.75	  462.40
      6.9700	  832.00	  575.81	-1798.75	  463.79
      7.0700	  862.00	  577.18	-1798.75	  465.16
      7.1700	  800.00	  578.53	-1798.75	  466.51
      7.2700	  834.00	  579.87	-1798.75	  467.84
      7.3700	  754.00	  581.18	-1798.75	  469.16
      7.4700	  832.00	  582.48	-1798.75	  470.46
      7.5700	  780.00	  583.76	-1798.75	  471.73
      7.6700	  786.00	  585.01	-1798.75	  472.99
      7.7700	  735.00	  586.26	-1798.75	  474.23
      7.8700	  717.00	  587.48	-1798.75	  475.46
      7.9700	  728.00	  588.68	-1798.75	  476.66
      8.0700	  695.00	  589.87	-1798.75	  477.85
      8.1700	  743.00	  591.04	-1798.75	  479.02
      8.2700	  740.00	  592.19	-1798.75	  480.17
      8.3700	  712.00	  593.33	-1798.75	  481.30
      8.4700	  721.00	  594.44	-1798.75	  482.42
      8.5700	  710.00	  595.54	-1798.75	  483.52
      8.6700	  701.00	  596.63	-1798.75	  484.60
      8.7700	  677.00	  597.69	-1798.75	  485.67
      8.8700	  681.00	  598.74	-1798.75	  486.72
      8.9700	  683.00	  599.77	-1798.75	  487.75
      9.0700	  685.00	  600.79	-1798.75	  488.77
      9.1700	  688.00	  601.79	-1798.75	  489.77
      9.2700	  635.00	  602.77	-1798.75	  490.75
      9.3700	  688.00	  603.74	-1798.75	  491.72
      9.4700	  654.00	  604.69	-1798.75	  492.67
      9.5700	  651.00	  605.62	-1798.75	  493.60
      9.6700	  708.00	  606.54	-1798.75	  494.52
      9.7700	  660.00	  607.44	-1798.75	  495.42
      9.8700	  692.00	  608.33	-1798.75	  496.31
      9.9700	  673.00	  609.20	-1798.75	  497.18
     10.0700	  658.00	  612.14	-1752.89	  498.03
     10.1700	  663.00	  613.22	-1748.97	  498.87
     10.2700	  700.00	  614.34	-1713.09	  499.70
     10.3700	  657.00	  615.52	-1757.27	  500.51
     10.4700	  588.00	  616.80	-1827.55	  501.30
     10.5700	  648.00	  618.23	-1768.98	  502.08
     10.6700	  683.00	  619.90	-1735.65	  502.85
     10.7700	  695.00	  621.91	-1725.66	  503.60
     10.8700	  660.00	  624.37	-1763.12	  504.34
     10.9700	  686.00	  627.33	-1740.08	  505.06
     11.0700	  701.00	  630.79	-1728.54	  505.77
     11.1700	  649.00	  634.79	-1784.54	  506.46
     11.2700	  694.00	  639.34	-1744.09	  507.14
     11.3700	  689.00	  644.54	-1754.29	  507.80
     11.4700	  658.00	  650.52	-1791.27	  508.45
     11.5700	  670.00	  657.51	-1786.26	  509.09
     11.6700	  704.00	  665.82	-1760.57	  509.71
     11.7700	  688.00	  675.87	-1786.62	  510.32
     11.8700	  716.00	  687.94	-1770.69	  510.92
     11.9700	  708.00	  701.81	-1792.56	  511.50
     12.0700	  763.00	  716.05	-1751.80	  512.07
     12.1700	  759.00	  727.29	-1767.04	  512.63
     12.2700	  811.00	  729.99	-1717.74	  513.17
     12.3700	  747.00	  719.54	-1771.29	  513.70
     12.4700	  753.00	  699.20	-1744.95	  514.22
     12.5700	  691.00	  678.08	-1785.83	  514.73
     12.6700	  666.00	  661.61	-1794.36	  515.22
     12.7700	  655.00	  650.61	-1794.36	  515.70
     12.8700	  613.00	  643.95	-1829.70	  516.17
     12.9700	  631.00	  640.13	-1807.88	  516.62
     13.0700	  603.00	  637.95	-1833.70	  517.07
     13.1700	  612.00	  636.65	-1823.40	  517.50
     13.2700	  608.00	  635.85	-1826.60	  517.91
     13.3700	  600.00	  635.37	-1834.12	  518.32
     13.4700	  640.00	  635.05	-1793.80	  518.72
     13.5700	  582.00	  634.86	-1851.61	  519.10
     13.6700	  610.00	  634.78	-1823.53	  519.47
     13.7700	  622.00	  634.76	-1811.51	  519.83
     13.8700	  595.00	  634.80	-1838.55	  520.18
     13.9700	  635.00	  634.87	-1798.62	  520.52
     14.0700	  634.00	  634.97	-1799.72	  520.84
     14.1700	  622.00	  635.10	-1811.85	  521.16
     14.2700	  612.00	  635.24	-1821.99	  521.46
     14.3700	  643.00	  635.39	-1791.14	  521.76
     14.4700	  605.00	  635.55	-1829.30	  522.04
     14.5700	  579.00	  635.71	-1855.46	  522.31
     14.6700	  575.00	  635.88	-1859.63	  522.57
     14.7700	  664.00	  636.04	-1770.79	  522.82
     14.8700	  593.00	  636.20	-1841.95	  523.06
     14.9700	  598.00	  636.37	-1837.12	  523.29
     15.0700	  626.00	  636.52	-1809.27	  523.51
     15.1700	  651.00	  636.68	-1784.43	  523.72
     15.2700	  609.00	  636.83	-1826.58	  523.92
     15.3700	  617.00	  636.97	-1818.72	  524.10
     15.4700	  641.00	  637.11	-1794.86	  524.28
     15.5700	  583.00	  637.24	-1852.99	  524.45
     15.6700	  645.00	  637.37	-1791.12	  524.61
     15.7700	  604.00	  637.49	-1832.24	  524.76
     15.8700	  656.00	  637.60	-1780.35	  524.90
     15.9700	  614.00	  637.70	-1822.45	  525.03
     16.0700	  607.00	  637.80	-1829.55	  525.15
     16.1700	  599.00	  637.89	-1837.64	  525.26
     16.2700	  658.00	  637.97	-1778.72	  525.37
     16.3700	  586.00	  638.05	-1850.80	  525.46
     16.4700	  601.00	  638.11	-1835.86	  525.54
     16.5700	  606.00	  638.17	-1830.92	  525.62
     16.6700	  574.00	  638.22	-1862.97	  525.69
     16.7700	  622.00	  638.27	-1815.02	  525.74
     16.8700	  594.00	  638.30	-1843.05	  525.79
     16.9700	  598.00	  638.33	-1839.08	  525.83
     17.0700	  605.00	  638.35	-1832.10	  525.87
     17.1700	  576.00	  638.37	-1861.12	  525.89
     17.2700	  646.00	  638.37	-1791.12	  525.90
     17.3700	  640.00	  638.37	-1797.12	  525.91
     17.4700	  619.00	  638.51	-1818.26	  525.91
     17.5700	  613.00	  638.50	-1824.25	  525.90
     17.6700	  661.00	  638.48	-1776.23	  525.88
     17.7700	  615.00	  638.45	-1822.20	  525.86
     17.8700	  639.00	  638.56	-1798.31	  525.83
     17.9700	  630.00	  638.52	-1807.27	  525.79
     18.0700	  580.00	  638.48	-1857.23	  525.74
     18.1700	  655.00	  638.42	-1782.17	  525.68
     18.2700	  584.00	  638.36	-1853.11	  525.62
     18.3700	  579.00	  638.29	-1858.04	  525.55
     18.4700	  593.00	  638.22	-1843.97	  525.47
     18.5700	  622.00	  638.14	-1814.89	  525.38
     18.6700	  646.00	  638.05	-1790.80	  525.29
     18.7700	  606.00	  637.95	-1830.70	  525.19
     18.8700	  595.00	  637.85	-1841.60	  525.08
     18.9700	  610.00	  637.75	-1826.50	  524.97
     19.0700	  638.00	  637.63	-1798.38	  524.85
     19.1700	  563.00	  637.51	-1873.26	  524.72
     19.2700	  603.00	  637.39	-1833.14	  524.58
     19.3700	  620.00	  637.26	-1816.01	  524.44
     19.4700	  606.00	  637.17	-1829.92	  524.29
     19.5700	  606.00	  637.03	-1829.78	  524.14
     19.6700	  576.00	  636.88	-1859.63	  523.98
     19.7700	  596.00	  636.73	-1839.48	  523.81
     19.8700	  613.00	  636.57	-1822.32	  523.64
     19.9700	  620.00	  636.40	-1815.15	  523.46
     20.0700	  618.00	  636.24	-1816.99	  523.27
     20.1700	  589.00	  636.06	-1845.81	  523.08
     20.2700	  587.00	  635.88	-1847.63	  522.88
     20.3700	  616.00	  635.70	-1818.45	  522.68
     20.4700	  597.00	  635.51	-1837.26	  522.47
     20.5700	  661.00	  635.32	-1773.07	  522.25
     20.6700	  602.00	  635.12	-1831.87	  522.03
     20.7700	  608.00	  634.92	-1825.67	  521.81
     20.8700	  621.00	  634.71	-1812.46	  521.57
     20.9700	  611.00	  634.50	-1822.25	  521.34
     21.0700	  580.00	  634.29	-1853.04	  521.09
     21.1700	  594.00	  634.07	-1838.82	  520.84
     21.2700	  619.00	  633.85	-1813.60	  520.59
     21.3700	  653.00	  633.63	-1779.38	  520.33
     21.4700	  609.00	  633.40	-1823.15	  520.07
     21.5700	  650.00	  633.18	-1781.93	  519.80
     21.6700	  599.00	  632.95	-1832.70	  519.52
     21.7700	  602.00	  632.71	-1829.46	  519.24
     21.8700	  624.00	  632.48	-1807.23	  518.96
     21.9700	  612.00	  632.40	-1819.15	  518.67
     22.0700	  611.00	  632.17	-1819.92	  518.37
     22.1700	  605.00	  631.94	-1825.69	  518.08
     22.2700	  617.00	  631.71	-1813.46	  517.77
     22.3700	  625.00	  631.48	-1805.23	  517.46
     22.4700	  625.00	  631.26	-1805.01	  517.15
     22.5700	  637.00	  631.04	-1792.79	  516.84
     22.6700	  627.00	  630.83	-1802.58	  516.51
     22.7700	  598.00	  630.63	-1831.38	  516.19
     22.8700	  606.00	  630.44	-1823.19	  515.86
     22.9700	  612.00	  630.26	-1817.01	  515.52
     23.0700	  629.00	  630.09	-1799.84	  515.19
     23.1700	  636.00	  629.95	-1792.70	  514.84
     23.2700	  589.00	  629.84	-1839.59	  514.50
     23.3700	  597.00	  629.77	-1831.52	  514.15
     23.4700	  626.00	  629.74	-1802.49	  513.79
     23.5700	  642.00	  629.77	-1786.52	  513.44
     23.6700	  655.00	  629.84	-1773.59	  513.07
     23.7700	  680.00	  630.10	-1748.85	  512.71
     23.8700	  575.00	  630.57	-1854.32	  512.34
     23.9700	  636.00	  631.36	-1794.11	  511.97
     24.0700	  653.00	  632.71	-1778.46	  511.59
     24.1700	  619.00	  634.94	-1814.69	  511.21
     24.2700	  656.00	  638.52	-1781.27	  510.83
     24.3700	  660.00	  643.96	-1782.71	  510.44
     24.4700	  659.00	  651.67	-1791.42	  510.05
     24.5700	  639.00	  661.66	-1821.41	  509.66
     24.6700	  652.00	  673.20	-1819.95	  509.27
     24.7700	  731.00	  684.33	-1752.08	  508.87
     24.8700	  662.00	  691.47	-1828.22	  508.46
     24.9700	  730.00	  690.28	-1759.03	  508.06
     25.0700	  696.00	  679.87	-1782.62	  507.65
     25.1700	  695.00	  665.28	-1769.03	  507.24
     25.2700	  692.00	  651.91	-1758.66	  506.83
     25.3700	  625.00	  641.90	-1815.65	  506.41
     25.4700	  622.00	  635.22	-1811.97	  505.99
     25.5700	  589.00	  631.06	-1840.81	  505.57
     25.6700	  634.00	  628.51	-1793.26	  505.15
     25.7700	  629.00	  626.91	-1796.66	  504.72
     25.8700	  652.00	  625.83	-1772.58	  504.29
     25.9700	  666.00	  625.07	-1757.82	  503.86
     26.0700	  687.00	  624.53	-1736.28	  503.42
     26.1700	  684.00	  624.16	-1738.91	  502.99
     26.2700	  693.00	  623.94	-1729.69	  502.55
     26.3700	  628.00	  623.85	-1794.60	  502.10
     26.4700	  749.00	  623.90	-1673.65	  501.66
     26.5700	  680.00	  624.10	-1742.85	  501.22
     26.6700	  669.00	  624.45	-1754.20	  500.77
     26.7700	  700.00	  625.00	-1723.75	  500.32
     26.8700	  687.00	  625.78	-1737.53	  499.87
     26.9700	  731.00	  626.84	-1694.59	  499.41
     27.0700	  708.00	  628.26	-1719.01	  498.96
     27.1700	  794.00	  630.17	-1634.92	  498.50
     27.2700	  739.00	  632.78	-1692.53	  498.04
     27.3700	  710.00	  636.45	-1725.20	  497.58
     27.4700	  751.00	  641.91	-1689.66	  497.12
     27.5700	  790.00	  650.49	-1659.24	  496.65
     27.6700	  803.00	  664.48	-1660.23	  496.18
     27.7700	  757.00	  687.38	-1729.13	  495.72
     27.8700	  799.00	  723.57	-1723.32	  495.25
     27.9700	  814.00	  776.60	-1761.35	  494.78
     28.0700	  888.00	  846.27	-1757.02	  494.30
     28.1700	  953.00	  925.25	-1771.00	  493.83
     28.2700	 1054.00	  996.20	-1740.95	  493.36
     28.3700	 1154.00	 1032.81	-1677.56	  492.88
     28.4700	 1096.00	 1017.60	-1720.35	  492.40
     28.5700	 1068.00	  972.32	-1703.07	  491.92
     28.6700	  955.00	  939.34	-1783.09	  491.44
     28.7700	  930.00	  940.10	-1808.85	  490.96
     28.8700	 1034.00	  970.31	-1735.06	  490.48
     28.9700	 1037.00	 1007.05	-1768.80	  490.00
     29.0700	 1041.00	 1016.46	-1774.21	  489.51
     29.1700	  984.00	  973.50	-1788.25	  489.03
     29.2700	  937.00	  891.33	-1753.08	  488.54
     29.3700	  924.00	  805.57	-1680.32	  488.06
     29.4700	  809.00	  737.51	-1727.26	  487.57
     29.5700	  780.00	  691.34	-1710.09	  487.08
     29.6700	  722.00	  663.10	-1739.85	  486.59
     29.7700	  752.00	  646.72	-1693.47	  486.10
     29.8700	  801.00	  637.12	-1634.87	  485.61
     29.9700	  769.00	  631.22	-1660.97	  485.12
     30.0700	  691.00	  627.49	-1735.24	  484.63
     30.1700	  764.00	  625.37	-1660.12	  484.14
     30.2700	  695.00	  624.89	-1728.64	  483.64
     30.3700	  681.00	  626.51	-1744.26	  483.15
     30.4700	  672.00	  631.20	-1757.95	  482.66
     30.5700	  721.00	  640.25	-1718.00	  482.16
     30.6700	  657.00	  654.83	-1796.58	  481.67
     30.7700	  701.00	  674.95	-1772.70	  481.18
     30.8700	  744.00	  698.24	-1752.99	  480.68
     30.9700	  775.00	  719.19	-1742.94	  480.19
     31.0700	  731.00	  729.18	-1796.93	  479.69
     31.1700	  775.00	  720.82	-1744.57	  479.19
     31.2700	  743.00	  696.93	-1752.68	  478.70
     31.3700	  696.00	  668.87	-1771.62	  478.20
     31.4700	  664.00	  644.95	-1779.70	  477.71
     31.5700	  632.00	  627.74	-1794.49	  477.21
     31.6700	  695.00	  616.64	-1720.39	  476.72
     31.7700	  623.00	  609.91	-1785.66	  476.22
     31.8700	  622.00	  605.85	-1782.60	  475.72
     31.9700	  638.00	  603.28	-1764.03	  475.23
     32.0700	  594.00	  601.52	-1806.27	  474.73
     32.1700	  605.00	  600.25	-1794.00	  474.24
     32.2700	  627.00	  599.33	-1771.08	  473.74
     32.3700	  634.00	  598.69	-1763.44	  473.25
     32.4700	  590.00	  598.30	-1807.05	  472.76
     32.5700	  628.00	  598.16	-1768.91	  472.26
     32.6700	  575.00	  598.28	-1822.03	  471.77
     32.7700	  627.00	  598.69	-1770.44	  471.27
     32.8700	  592.00	  599.45	-1806.20	  470.78
     32.9700	  620.00	  600.67	-1779.42	  470.29
     33.0700	  582.00	  602.46	-1819.21	  469.80
     33.1700	  625.00	  605.12	-1778.87	  469.31
     33.2700	  639.00	  609.18	-1768.93	  468.81
     33.3700	  646.00	  615.67	-1768.42	  468.32
     33.4700	  607.00	  626.44	-1818.19	  467.83
     33.5700	  654.00	  644.48	-1789.23	  467.35
     33.6700	  681.00	  673.85	-1791.60	  466.86
     33.7700	  671.00	  718.58	-1846.33	  466.37
     33.8700	  767.00	  780.06	-1811.81	  465.88
     33.9700	  880.00	  853.32	-1772.07	  465.40
     34.0700	  984.00	  924.12	-1738.87	  464.91
     34.1700	 1044.00	  968.73	-1723.48	  464.43
     34.2700	 1044.00	  962.95	-1717.70	  463.94
     34.3700	  986.00	  905.74	-1718.49	  463.46
     34.4700	  874.00	  825.27	-1750.02	  462.98
     34.5700	  739.00	  749.61	-1809.36	  462.50
     34.6700	  677.00	  691.14	-1812.89	  462.02
     34.7700	  643.00	  651.22	-1806.97	  461.54
     34.8700	  638.00	  626.16	-1786.91	  461.06
     34.9700	  606.00	  611.04	-1803.79	  460.58
     35.0700	  613.00	  601.76	-1787.51	  460.10
     35.1700	  581.00	  595.64	-1813.39	  459.63
     35.2700	  598.00	  591.27	-1792.02	  459.15
     35.3700	  619.00	  587.89	-1767.64	  458.68
     35.4700	  552.00	  585.16	-1831.91	  458.21
     35.5700	  565.00	  583.36	-1817.11	  457.74
     35.6700	  584.00	  581.44	-1796.19	  457.27
     35.7700	  597.00	  579.78	-1781.53	  456.80
     35.8700	  519.00	  578.33	-1858.08	  456.34
     35.9700	  554.00	  577.04	-1821.79	  455.87
     36.0700	  559.00	  575.89	-1815.64	  455.40
     36.1700	  546.00	  574.85	-1827.60	  454.94
     36.2700	  560.00	  573.90	-1812.65	  454.48
     36.3700	  530.00	  573.04	-1841.79	  454.02
     36.4700	  547.00	  572.25	-1824.00	  453.56
     36.5700	  515.00	  571.53	-1855.28	  453.10
     36.6700	  578.00	  570.87	-1791.62	  452.65
     36.7700	  548.00	  570.25	-1821.00	  452.19
     36.8700	  523.00	  569.75	-1845.50	  451.74
     36.9700	  542.00	  569.36	-1826.11	  451.29
     37.0700	  583.00	  569.13	-1784.88	  450.84
     37.1700	  585.00	  569.34	-1783.09	  450.39
     37.2700	  628.00	  569.77	-1740.52	  449.94
     37.3700	  565.00	  570.76	-1804.51	  449.50
     37.4700	  555.00	  572.45	-1816.20	  449.05
     37.5700	  514.00	  574.87	-1859.62	  448.61
     37.6700	  550.00	  577.79	-1826.54	  448.17
     37.7700	  557.00	  580.60	-1822.35	  447.73
     37.8700	  528.00	  582.35	-1853.10	  447.29
     37.9700	  546.00	  582.21	-1834.96	  446.86
     38.0700	  554.00	  580.20	-1824.95	  446.42
     38.1700	  538.00	  577.11	-1837.86	  445.99
     38.2700	  545.00	  573.61	-1827.36	  445.56
     38.3700	  547.00	  570.10	-1821.85	  445.13
     38.4700	  516.00	  566.96	-1849.71	  444.70
     38.5700	  538.00	  564.44	-1825.19	  444.28
     38.6700	  481.00	  562.52	-1880.27	  443.86
     38.7700	  521.00	  561.14	-1838.89	  443.43
     38.8700	  524.00	  560.06	-1834.81	  443.01
     38.9700	  502.00	  559.22	-1855.97	  442.60
     39.0700	  575.00	  558.52	-1782.27	  442.18
     39.1700	  574.00	  557.92	-1782.67	  441.77
     39.2700	  552.00	  557.36	-1804.11	  441.35
     39.3700	  557.00	  556.85	-1798.60	  440.94
     39.4700	  530.00	  556.22	-1824.97	  440.54
     39.5700	  547.00	  555.77	-1807.52	  440.13
     39.6700	  593.00	  555.33	-1761.08	  439.72
     39.7700	  497.00	  554.90	-1856.65	  439.32
     39.8700	  508.00	  554.50	-1845.25	  438.92
     39.9700	  520.00	  554.11	-1832.86	  438.52
     40.0700	  530.00	  554.28	-1823.03	  438.13
     40.1700	  571.00	  553.92	-1781.67	  437.73
     40.2700	  534.00	  553.58	-1818.33	  437.34
     40.3700	  549.00	  553.26	-1803.01	  436.95
     40.4700	  567.00	  552.80	-1784.55	  436.56
     40.5700	  544.00	  552.51	-1807.26	  436.18
     40.6700	  516.00	  552.23	-1834.98	  435.79
     40.7700	  514.00	  551.98	-1836.73	  435.41
     40.8700	  518.00	  551.75	-1832.50	  435.03
     40.9700	  538.00	  551.54	-1812.29	  434.65
     41.0700	  490.00	  551.37	-1860.12	  434.28
     41.1700	  553.00	  551.23	-1796.98	  433.91
     41.2700	  551.00	  551.14	-1798.89	  433.54
     41.3700	  540.00	  551.10	-1809.85	  433.17
     41.4700	  491.00	  551.12	-1858.87	  432.80
     41.5700	  518.00	  551.29	-1832.04	  432.44
     41.6700	  552.00	  551.52	-1798.27	  432.07
     41.7700	  520.00	  551.93	-1830.68	  431.71
     41.8700	  566.00	  552.66	-1785.41	  431.36
     41.9700	  518.00	  553.80	-1834.55	  431.00
     42.0700	  557.00	  555.84	-1797.59	  430.65
     42.1700	  540.00	  559.14	-1817.89	  430.30
     42.2700	  554.00	  564.55	-1809.30	  429.95
     42.3700	  543.00	  572.89	-1828.64	  429.60
     42.4700	  518.00	  584.74	-1865.49	  429.26
     42.5700	  581.00	  599.92	-1817.67	  428.92
     42.6700	  592.00	  616.82	-1823.57	  428.58
     42.7700	  646.00	  632.07	-1784.82	  428.24
     42.8700	  626.00	  640.09	-1812.84	  427.91
     42.9700	  657.00	  637.05	-1778.80	  427.57
     43.0700	  607.00	  624.12	-1815.87	  427.24
     43.1700	  590.00	  606.62	-1815.37	  426.92
     43.2700	  600.00	  589.51	-1788.26	  426.59
     43.3700	  579.00	  575.38	-1795.13	  426.27
     43.4700	  519.00	  564.91	-1844.66	  425.95
     43.5700	  526.00	  557.77	-1830.52	  425.63
     43.6700	  534.00	  553.15	-1817.90	  425.31
     43.7700	  545.00	  550.21	-1803.96	  425.00
     43.8700	  581.00	  548.30	-1766.05	  424.69
     43.9700	  561.00	  546.96	-1784.71	  424.38
     44.0700	  545.00	  546.19	-1799.94	  424.08
     44.1700	  479.00	  545.40	-1865.15	  423.77
     44.2700	  541.00	  544.76	-1802.51	  423.47
     44.3700	  505.00	  544.22	-1837.97	  423.17
     44.4700	  551.00	  543.75	-1791.50	  422.88
     44.5700	  572.00	  543.35	-1770.10	  422.58
     44.6700	  570.00	  543.01	-1771.76	  422.29
     44.7700	  532.00	  542.71	-1809.46	  422.00
     44.8700	  558.00	  542.46	-1783.21	  421.71
     44.9700	  588.00	  542.24	-1752.99	  421.43
     45.0700	  532.00	  542.05	-1808.80	  421.15
     45.1700	  508.00	  541.90	-1832.65	  420.87
     45.2700	  590.00	  541.77	-1750.52	  420.59
     45.3700	  583.00	  541.76	-1757.51	  420.32
     45.4700	  548.00	  541.70	-1792.45	  420.05
     45.5700	  539.00	  541.68	-1801.43	  419.78
     45.6700	  570.00	  541.69	-1770.44	  419.51
     45.7700	  558.00	  541.77	-1782.52	  419.25
     45.8700	  543.00	  541.84	-1797.59	  418.99
     45.9700	  509.00	  541.95	-1831.70	  418.73
     46.0700	  502.00	  542.11	-1838.86	  418.47
     46.1700	  544.00	  542.31	-1797.06	  418.22
     46.2700	  540.00	  542.56	-1801.31	  417.97
     46.3700	  549.00	  542.88	-1792.63	  417.72
     46.4700	  538.00	  543.26	-1804.01	  417.47
     46.5700	  561.00	  543.73	-1781.48	  417.23
     46.6700	  552.00	  544.15	-1790.90	  416.98
     46.7700	  544.00	  544.85	-1799.60	  416.74
     46.8700	  529.00	  545.70	-1815.45	  416.51
     46.9700	  565.00	  546.79	-1780.54	  416.27
     47.0700	  555.00	  548.23	-1791.98	  416.04
     47.1700	  528.00	  550.25	-1821.00	  415.81
     47.2700	  535.00	  553.20	-1816.95	  415.59
     47.3700	  584.00	  557.62	-1772.37	  415.36
     47.4700	  541.00	  564.18	-1821.93	  415.14
     47.5700	  605.00	  573.56	-1767.31	  414.92
     47.6700	  585.00	  586.14	-1799.89	  414.71
     47.7700	  583.00	  601.70	-1817.45	  414.49
     47.8700	  601.00	  618.85	-1816.60	  414.28
     47.9700	  611.00	  635.15	-1822.90	  414.07
     48.0700	  612.00	  645.46	-1832.21	  413.86
     48.1700	  605.00	  646.58	-1840.33	  413.66
     48.2700	  654.00	  638.65	-1783.40	  413.46
     48.3700	  595.00	  625.57	-1829.32	  413.26
     48.4700	  588.00	  611.82	-1822.57	  413.06
     48.5700	  597.00	  600.27	-1802.02	  412.87
     48.6700	  578.00	  592.21	-1812.96	  412.68
     48.7700	  585.00	  587.86	-1801.61	  412.49
     48.8700	  561.00	  586.95	-1824.70	  412.30
     48.9700	  616.00	  588.97	-1771.72	  412.12
     49.0700	  592.00	  593.58	-1800.33	  411.94
     49.1700	  583.00	  600.81	-1816.56	  411.76
     49.2700	  564.00	  611.29	-1846.04	  411.58
     49.3700	  605.00	  626.72	-1820.47	  411.41
     49.4700	  624.00	  650.61	-1825.36	  411.24
     49.5700	  609.00	  689.21	-1878.96	  411.07
     49.6700	  597.00	  752.44	-1954.19	  410.90
     49.7700	  761.00	  853.52	-1891.27	  410.74
     49.8700	  888.00	 1006.46	-1917.21	  410.58
     49.9700	 1163.00	 1220.60	-1856.35	  410.42
     50.0700	 1466.00	 1492.66	-1825.41	  410.26
     50.1700	 1784.00	 1798.06	-1812.81	  410.11
     50.2700	 2112.00	 2083.08	-1769.83	  409.95
     50.3700	 2374.00	 2267.79	-1692.54	  409.81
     50.4700	 2321.00	 2279.86	-1757.61	  409.66
     50.5700	 2062.00	 2112.09	-1848.84	  409.51
     50.6700	 1860.00	 1833.65	-1772.40	  409.37
     50.7700	 1517.00	 1529.67	-1811.42	  409.23
     50.8700	 1137.00	 1257.93	-1919.68	  409.10
     50.9700	  905.00	 1045.24	-1938.99	  408.96
     51.0700	  816.00	  895.86	-1878.61	  408.83
     51.1700	  719.00	  800.13	-1879.88	  408.70
     51.2700	  691.00	  742.42	-1850.17	  408.57
     51.3700	  742.00	  707.01	-1763.76	  408.45
     51.4700	  677.00	  682.08	-1803.83	  408.32
     51.5700	  655.00	  661.34	-1805.09	  408.20
     51.6700	  663.00	  642.96	-1778.71	  408.08
     51.7700	  599.00	  627.02	-1826.77	  407.97
     51.8700	  623.00	  613.87	-1789.62	  407.86
     51.9700	  630.00	  603.62	-1772.37	  407.74
     52.0700	  620.00	  596.14	-1774.89	  407.64
     52.1700	  621.00	  591.10	-1768.85	  407.53
     52.2700	  626.00	  588.16	-1760.91	  407.43
     52.3700	  595.00	  587.00	-1790.75	  407.32
     52.4700	  613.00	  587.53	-1773.28	  407.23
     52.5700	  644.00	  589.89	-1744.64	  407.13
     52.6700	  603.00	  594.64	-1790.39	  407.03
     52.7700	  635.00	  602.94	-1766.69	  406.94
     52.8700	  661.00	  616.69	-1754.44	  406.85
     52.9700	  601.00	  638.68	-1836.43	  406.76
     53.0700	  688.00	  672.39	-1783.14	  406.68
     53.1700	  756.00	  721.31	-1764.06	  406.60
     53.2700	  783.00	  787.86	-1803.61	  406.52
     53.3700	  914.00	  871.59	-1756.34	  406.44
     53.4700	 1005.00	  967.55	-1761.30	  406.36
     53.5700	 1107.00	 1064.07	-1755.82	  406.29
     53.6700	 1190.00	 1141.73	-1750.48	  406.21
     53.7700	 1231.00	 1177.38	-1745.13	  406.14
     53.8700	 1184.00	 1157.40	-1772.15	  406.08
     53.9700	 1150.00	 1089.43	-1738.18	  406.01
     54.0700	 1068.00	  995.94	-1726.69	  405.95
     54.1700	  904.00	  898.61	-1793.36	  405.89
     54.2700	  861.00	  811.33	-1749.08	  405.83
     54.3700	  664.00	  740.60	-1875.35	  405.77
     54.4700	  731.00	  687.80	-1755.55	  405.72
     54.5700	  670.00	  651.12	-1779.87	  405.67
     54.6700	  687.00	  627.17	-1738.92	  405.62
     54.7700	  644.00	  612.37	-1767.12	  405.57
     54.8700	  628.00	  603.71	-1774.46	  405.52
     54.9700	  593.00	  599.00	-1804.75	  405.48
     55.0700	  632.00	  596.88	-1763.63	  405.44
     55.1700	  594.00	  596.57	-1801.32	  405.40
     55.2700	  605.00	  597.69	-1791.44	  405.36
     55.3700	  615.00	  600.10	-1783.85	  405.32
     55.4700	  603.00	  603.79	-1799.54	  405.29
     55.5700	  597.00	  608.92	-1810.67	  405.26
     55.6700	  651.00	  615.76	-1763.51	  405.23
     55.7700	  655.00	  624.87	-1768.62	  405.20
     55.8700	  603.00	  637.31	-1833.06	  405.18
     55.9700	  656.00	  654.98	-1797.73	  405.15
     56.0700	  654.00	  681.22	-1825.97	  405.13
     56.1700	  690.00	  721.48	-1830.23	  405.11
     56.2700	  733.00	  783.76	-1849.51	  405.10
     56.3700	  831.00	  878.48	-1846.23	  405.08
     56.4700	  906.00	 1016.98	-1909.73	  405.07
     56.5700	 1142.00	 1208.55	-1865.30	  405.06
     56.6700	 1375.00	 1456.06	-1879.81	  405.05
     56.7700	 1724.00	 1750.73	-1825.48	  405.04
     56.8700	 2054.00	 2066.79	-1811.54	  405.03
     56.9700	 2355.00	 2357.06	-1800.81	  405.03
     57.0700	 2537.00	 2554.85	-1816.60	  405.03
     57.1700	 2736.00	 2597.85	-1660.60	  405.03
     57.2700	 2458.00	 2470.07	-1810.82	  405.03
     57.3700	 2111.00	 2216.33	-1904.08	  405.03
     57.4700	 1884.00	 1906.90	-1821.65	  405.04
     57.5700	 1586.00	 1600.13	-1812.88	  405.05
     57.6700	 1314.00	 1331.55	-1816.30	  405.06
     57.7700	 1070.00	 1117.33	-1846.08	  405.07
     57.8700	  881.00	  959.79	-1877.54	  405.08
     57.9700	  856.00	  852.54	-1795.29	  405.09
     58.0700	  769.00	  785.65	-1815.40	  405.11
     58.1700	  764.00	  749.33	-1784.08	  405.13
     58.2700	  730.00	  736.08	-1804.83	  405.15
     58.3700	  696.00	  741.35	-1844.10	  405.17
     58.4700	  756.00	  762.90	-1805.65	  405.19
     58.5700	  828.00	  799.65	-1770.40	  405.22
     58.6700	  922.00	  850.37	-1727.12	  405.24
     58.7700	  909.00	  912.31	-1802.06	  405.27
     58.8700	 1046.00	  980.19	-1732.94	  405.30
     58.9700	 1013.00	 1046.75	-1832.50	  405.33
     59.0700	 1170.00	 1105.57	-1734.32	  405.37
     59.1700	 1220.00	 1152.93	-1731.68	  405.40
     59.2700	 1223.00	 1185.48	-1761.23	  405.44
     59.3700	 1222.00	 1199.11	-1775.86	  405.47
     59.4700	 1332.00	 1193.67	-1660.42	  405.51
     59.5700	 1252.00	 1177.04	-1723.79	  405.56
     59.6700	 1189.00	 1161.03	-1770.78	  405.60
     59.7700	 1198.00	 1155.01	-1755.76	  405.64
     59.8700	 1167.00	 1164.45	-1796.20	  405.69
     59.9700	 1232.00	 1193.30	-1760.05	  405.73
     60.0700	 1274.00	 1244.84	-1769.59	  405.78
     60.1700	 1292.00	 1318.39	-1825.14	  405.83
     60.2700	 1476.00	 1405.23	-1727.98	  405.88
     60.3700	 1596.00	 1486.76	-1689.51	  405.94
     60.4700	 1613.00	 1536.60	-1722.35	  405.99
     60.5700	 1598.00	 1530.42	-1731.17	  406.05
     60.6700	 1509.00	 1461.61	-1751.36	  406.10
     60.7700	 1430.00	 1345.98	-1714.73	  406.16
     60.8700	 1249.00	 1209.41	-1759.16	  406.22
     60.9700	 1106.00	 1074.33	-1767.08	  406.28
     61.0700	 1007.00	  955.43	-1747.18	  406.35
     61.1700	  847.00	  860.45	-1812.20	  406.41
     61.2700	  796.00	  791.91	-1794.66	  406.48
     61.3700	  795.00	  749.20	-1752.95	  406.54
     61.4700	  738.00	  730.50	-1791.25	  406.61
     61.5700	  763.00	  734.43	-1770.18	  406.68
     61.6700	  781.00	  760.78	-1778.53	  406.75
     61.7700	  791.00	  810.30	-1818.05	  406.82
     61.8700	  833.00	  883.67	-1849.42	  406.89
     61.9700	  999.00	  979.74	-1779.49	  406.97
     62.0700	 1147.00	 1093.83	-1745.58	  407.04
     62.1700	 1226.00	 1216.05	-1788.80	  407.12
     62.2700	 1350.00	 1329.98	-1778.73	  407.20
     62.3700	 1287.00	 1413.11	-1924.86	  407.28
     62.4700	 1339.00	 1442.95	-1902.70	  407.36
     62.5700	 1289.00	 1409.49	-1919.24	  407.44
     62.6700	 1220.00	 1322.66	-1901.41	  407.52
     62.7700	 1222.00	 1204.95	-1781.70	  407.60
     62.8700	 1030.00	 1078.77	-1847.52	  407.69
     62.9700	  900.00	  960.29	-1859.04	  407.77
     63.0700	  795.00	  858.90	-1862.65	  407.86
     63.1700	  729.00	  778.50	-1848.25	  407.94
     63.2700	  715.00	  718.89	-1802.64	  408.03
     63.3700	  684.00	  677.39	-1792.14	  408.12
     63.4700	  625.00	  650.23	-1823.98	  408.21
     63.5700	  667.00	  633.83	-1765.58	  408.30
     63.6700	  665.00	  625.35	-1759.10	  408.40
     63.7700	  670.00	  623.07	-1751.82	  408.49
     63.8700	  642.00	  626.44	-1783.19	  408.58
     63.9700	  683.00	  635.86	-1751.61	  408.68
     64.0700	  673.00	  652.45	-1778.20	  408.77
     64.1700	  747.00	  677.73	-1729.48	  408.87
     64.2700	  765.00	  712.95	-1746.70	  408.97
     64.3700	  841.00	  758.84	-1716.59	  409.07
     64.4700	  858.00	  814.73	-1755.48	  409.16
     64.5700	  928.00	  878.00	-1748.75	  409.26
     64.6700	 1011.00	  943.54	-1731.29	  409.36
     64.7700	 1019.00	 1002.98	-1782.73	  409.47
     64.8700	 1068.00	 1046.73	-1777.48	  409.57
     64.9700	 1100.00	 1066.70	-1765.45	  409.67
     65.0700	 1046.00	 1059.82	-1812.57	  409.78
     65.1700	 1071.00	 1028.97	-1756.72	  409.88
     65.2700	  943.00	  981.38	-1837.13	  409.98
     65.3700	  899.00	  925.95	-1825.70	  410.09
     65.4700	  845.00	  869.93	-1823.68	  410.20
     65.5700	  783.00	  819.11	-1834.86	  410.30
     65.6700	  736.00	  775.16	-1837.91	  410.41
     65.7700	  741.00	  737.82	-1795.57	  410.52
     65.8700	  671.00	  706.69	-1834.44	  410.63
     65.9700	  641.00	  681.29	-1839.04	  410.74
     66.0700	  667.00	  661.27	-1793.02	  410.85
     66.1700	  628.00	  645.84	-1816.59	  410.96
     66.2700	  606.00	  634.51	-1827.26	  411.07
     66.3700	  644.00	  626.69	-1781.44	  411.18
     66.4700	  607.00	  621.91	-1813.66	  411.29
     66.5700	  597.00	  619.84	-1821.59	  411.40
     66.6700	  629.00	  620.34	-1790.09	  411.52
     66.7700	  564.00	  623.22	-1857.97	  411.63
     66.8700	  627.00	  628.77	-1800.52	  411.74
     66.9700	  614.00	  637.71	-1822.46	  411.86
     67.0700	  639.00	  651.21	-1810.96	  411.97
     67.1700	  671.00	  671.46	-1799.21	  412.09
     67.2700	  697.00	  701.79	-1803.54	  412.20
     67.3700	  710.00	  746.78	-1835.53	  412.32
     67.4700	  787.00	  812.19	-1823.94	  412.44
     67.5700	  932.00	  904.39	-1771.14	  412.55
     67.6700	  967.00	 1029.32	-1861.07	  412.67
     67.7700	 1166.00	 1190.81	-1823.56	  412.78
     67.8700	 1360.00	 1388.69	-1827.44	  412.90
     67.9700	 1547.00	 1616.77	-1868.52	  413.02
     68.0700	 1845.00	 1861.05	-1814.80	  413.14
     68.1700	 2134.00	 2098.33	-1763.08	  413.25
     68.2700	 2349.00	 2295.80	-1745.55	  413.37
     68.3700	 2406.00	 2415.66	-1808.41	  413.49
     68.4700	 2443.00	 2429.07	-1784.82	  413.61
     68.5700	 2325.00	 2332.50	-1806.25	  413.73
     68.6700	 2152.00	 2150.12	-1796.88	  413.85
     68.7700	 1967.00	 1919.14	-1750.89	  413.96
     68.8700	 1597.00	 1674.32	-1876.07	  414.08
     68.9700	 1482.00	 1441.25	-1758.00	  414.20
     69.0700	 1181.00	 1235.94	-1853.69	  414.32
     69.1700	 1032.00	 1066.18	-1832.93	  414.44
     69.2700	  934.00	  933.36	-1798.11	  414.56
     69.3700	  859.00	  834.42	-1774.17	  414.68
     69.4700	  761.00	  763.73	-1801.48	  414.80
     69.5700	  728.00	  714.88	-1785.63	  414.91
     69.6700	  710.00	  681.87	-1770.62	  415.03
     69.7700	  671.00	  659.76	-1787.51	  415.15
     69.8700	  670.00	  644.89	-1773.64	  415.27
     69.9700	  628.00	  634.77	-1805.52	  415.39
     70.0700	  651.00	  627.79	-1775.54	  415.51
     70.1700	  598.00	  622.97	-1823.72	  415.63
     70.2700	  585.00	  619.77	-1833.52	  415.74
     70.3700	  603.00	  617.90	-1813.65	  415.86
     70.4700	  614.00	  617.25	-1802.00	  415.98
     70.5700	  608.00	  617.65	-1808.40	  416.10
     70.6700	  616.00	  620.59	-1803.34	  416.21
     70.7700	  665.00	  624.32	-1758.07	  416.33
     70.8700	  619.00	  630.44	-1810.19	  416.45
     70.9700	  641.00	  639.97	-1797.72	  416.57
     71.0700	  633.00	  654.51	-1820.26	  416.68
     71.1700	  718.00	  676.30	-1757.05	  416.80
     71.2700	  703.00	  708.34	-1804.09	  416.91
     71.3700	  797.00	  754.23	-1755.98	  417.03
     71.4700	  842.00	  817.89	-1774.64	  417.14
     71.5700	  899.00	  902.86	-1802.61	  417.26
     71.6700	 1048.00	 1011.49	-1762.24	  417.37
     71.7700	 1105.00	 1143.88	-1837.63	  417.49
     71.8700	 1257.00	 1296.89	-1838.64	  417.60
     71.9700	 1428.00	 1463.08	-1833.83	  417.71
     72.0700	 1588.00	 1630.00	-1840.75	  417.83
     72.1700	 1775.00	 1779.72	-1803.47	  417.94
     72.2700	 1852.00	 1890.10	-1836.85	  418.05
     72.3700	 1841.00	 1939.89	-1897.64	  418.16
     72.4700	 1801.00	 1917.81	-1915.56	  418.27
     72.5700	 1784.00	 1829.01	-1843.76	  418.38
     72.6700	 1620.00	 1692.01	-1870.76	  418.49
     72.7700	 1529.00	 1529.50	-1799.25	  418.60
     72.8700	 1301.00	 1361.26	-1859.01	  418.71
     72.9700	 1135.00	 1201.83	-1865.58	  418.82
     73.0700	 1048.00	 1060.37	-1811.12	  418.93
     73.1700	  937.00	  941.53	-1803.28	  419.04
     73.2700	  881.00	  846.28	-1764.03	  419.14
     73.3700	  801.00	  773.03	-1770.78	  419.25
     73.4700	  763.00	  718.68	-1754.43	  419.35
     73.5700	  699.00	  679.48	-1779.23	  419.46
     73.6700	  695.00	  651.74	-1755.49	  419.56
     73.7700	  658.00	  632.28	-1773.03	  419.66
     73.8700	  655.00	  618.60	-1762.35	  419.77
     73.9700	  650.00	  608.90	-1757.65	  419.87
     74.0700	  705.00	  601.95	-1695.70	  419.97
     74.1700	  651.00	  596.94	-1744.69	  420.07
     74.2700	  662.00	  593.37	-1730.12	  420.17
     74.3700	  636.00	  590.36	-1753.11	  420.27
     74.4700	  652.00	  588.74	-1735.49	  420.36
     74.5700	  627.00	  587.76	-1759.51	  420.46
     74.6700	  645.00	  587.21	-1740.96	  420.56
     74.7700	  624.00	  586.86	-1761.61	  420.65
     74.8700	  685.00	  586.46	-1700.21	  420.75
     74.9700	  661.00	  585.79	-1723.54	  420.84
     75.0700	  714.00	  584.73	-1669.48	  420.93
     75.1700	  666.00	  583.29	-1716.04	  421.02
     75.2700	  653.00	  581.68	-1727.43	  421.11
     75.3700	  631.00	  580.19	-1747.94	  421.20
     75.4700	  698.00	  579.15	-1679.90	  421.29
     75.5700	  666.00	  578.92	-1711.67	  421.38
     75.6700	  663.00	  579.89	-1715.64	  421.47
     75.7700	  554.00	  582.47	-1827.22	  421.55
     75.8700	  639.00	  587.09	-1746.84	  421.64
     75.9700	  598.00	  594.21	-1794.96	  421.72
     76.0700	  648.00	  604.17	-1754.92	  421.80
     76.1700	  621.00	  617.17	-1794.92	  421.89
     76.2700	  603.00	  633.30	-1829.05	  421.97
     76.3700	  659.00	  652.16	-1791.91	  422.05
     76.4700	  688.00	  673.00	-1783.75	  422.12
     76.5700	  688.00	  694.55	-1805.30	  422.20
     76.6700	  751.00	  715.03	-1762.78	  422.28
     76.7700	  748.00	  732.10	-1782.85	  422.35
     76.8700	  746.00	  743.13	-1795.88	  422.43
     76.9700	  771.00	  746.24	-1773.99	  422.50
     77.0700	  766.00	  740.66	-1773.41	  422.57
     77.1700	  695.00	  727.43	-1831.18	  422.64
     77.2700	  689.00	  708.78	-1818.53	  422.71
     77.3700	  725.00	  687.25	-1761.00	  422.78
     77.4700	  682.00	  665.03	-1781.78	  422.84
     77.5700	  647.00	  643.80	-1795.55	  422.91
     77.6700	  632.00	  624.64	-1791.39	  422.97
     77.7700	  555.00	  608.19	-1851.94	  423.04
     77.8700	  566.00	  594.68	-1827.43	  423.10
     77.9700	  578.00	  583.99	-1804.74	  423.16
     78.0700	  565.00	  575.84	-1809.59	  423.22
     78.1700	  547.00	  569.80	-1821.55	  423.28
     78.2700	  580.00	  565.37	-1784.12	  423.33
     78.3700	  552.00	  562.26	-1809.01	  423.39
     78.4700	  569.00	  559.84	-1789.59	  423.44
     78.5700	  572.00	  558.29	-1785.04	  423.49
     78.6700	  541.00	  557.19	-1814.94	  423.54
     78.7700	  540.00	  556.40	-1815.15	  423.59
     78.8700	  546.00	  555.83	-1808.58	  423.64
     78.9700	  565.00	  555.45	-1789.20	  423.69
     79.0700	  547.00	  555.21	-1806.96	  423.73
     79.1700	  558.00	  555.11	-1795.86	  423.78
     79.2700	  565.00	  555.15	-1788.90	  423.82
     79.3700	  549.00	  555.34	-1805.09	  423.86
     79.4700	  615.00	  555.70	-1739.45	  423.90
     79.5700	  554.00	  556.24	-1800.99	  423.94
     79.6700	  557.00	  556.98	-1798.73	  423.97
     79.7700	  586.00	  557.96	-1770.71	  424.01
     79.8700	  542.00	  559.20	-1815.95	  424.04
     79.9700	  573.00	  560.72	-1786.47	  424.07
     80.0700	  611.00	  562.57	-1750.32	  424.10
     80.1700	  552.00	  564.78	-1811.53	  424.13
     80.2700	  553.00	  567.42	-1813.17	  424.16
     80.3700	  605.00	  570.53	-1764.28	  424.18
     80.4700	  549.00	  574.21	-1823.96	  424.21
     80.5700	  609.00	  578.59	-1768.34	  424.23
     80.6700	  632.00	  583.83	-1750.58	  424.25
     80.7700	  593.00	  590.13	-1795.88	  424.27
     80.8700	  613.00	  597.65	-1783.40	  424.29
     80.9700	  620.00	  606.49	-1785.24	  424.30
     81.0700	  688.00	  616.42	-1727.17	  424.32
     81.1700	  693.00	  627.71	-1733.46	  424.33
     81.2700	  729.00	  639.85	-1709.60	  424.34
     81.3700	  708.00	  652.46	-1743.21	  424.35
     81.4700	  783.00	  665.14	-1680.89	  424.36
     81.5700	  713.00	  677.53	-1763.28	  424.36
     81.6700	  779.00	  689.24	-1708.99	  424.37
     81.7700	  799.00	  699.80	-1699.55	  424.37
     81.8700	  723.00	  708.67	-1784.42	  424.37
     81.9700	  753.00	  715.18	-1760.93	  424.37
     82.0700	  755.00	  718.66	-1762.41	  424.37
     82.1700	  744.00	  718.64	-1773.39	  424.36
     82.2700	  742.00	  715.10	-1771.85	  424.36
     82.3700	  721.00	  708.51	-1786.26	  424.35
     82.4700	  692.00	  699.54	-1806.29	  424.34
     82.5700	  716.00	  688.86	-1771.61	  424.33
     82.6700	  638.00	  676.95	-1837.70	  424.31
     82.7700	  748.00	  664.20	-1714.95	  424.30
     82.8700	  640.00	  651.09	-1809.84	  424.28
     82.9700	  607.00	  638.18	-1829.93	  424.26
     83.0700	  582.00	  626.10	-1842.85	  424.24
     83.1700	  590.00	  615.39	-1824.14	  424.22
     83.2700	  591.00	  606.47	-1814.22	  424.19
     83.3700	  568.00	  599.57	-1830.32	  424.17
     83.4700	  644.00	  594.81	-1749.56	  424.14
     83.5700	  562.00	  592.19	-1828.94	  424.11
     83.6700	  560.00	  591.57	-1830.32	  424.07
     83.7700	  588.00	  592.71	-1803.46	  424.04
     83.8700	  600.00	  595.28	-1794.03	  424.00
     83.9700	  554.00	  598.84	-1843.59	  423.97
     84.0700	  616.00	  602.85	-1785.60	  423.93
     84.1700	  609.00	  606.71	-1796.46	  423.89
     84.2700	  601.00	  609.77	-1807.52	  423.84
     84.3700	  585.00	  611.42	-1825.17	  423.80
     84.4700	  632.00	  611.24	-1777.99	  423.75
     84.5700	  562.00	  608.99	-1845.74	  423.70
     84.6700	  583.00	  605.17	-1820.92	  423.65
     84.7700	  608.00	  600.08	-1790.83	  423.60
     84.8700	  562.00	  594.27	-1831.02	  423.54
     84.9700	  554.00	  588.22	-1832.97	  423.48
     85.0700	  541.00	  582.33	-1840.08	  423.43
     85.1700	  509.00	  576.90	-1866.65	  423.36
     85.2700	  571.00	  572.13	-1799.88	  423.30
     85.3700	  574.00	  568.14	-1792.89	  423.24
     85.4700	  536.00	  564.98	-1827.73	  423.17
     85.5700	  534.00	  562.63	-1827.38	  423.10
     85.6700	  530.00	  561.06	-1829.81	  423.03
     85.7700	  586.00	  560.19	-1772.94	  422.96
     85.8700	  539.00	  559.96	-1819.71	  422.88
     85.9700	  524.00	  560.34	-1835.09	  422.80
     86.0700	  585.00	  561.26	-1775.01	  422.73
     86.1700	  570.00	  562.75	-1791.50	  422.65
     86.2700	  525.00	  564.83	-1838.58	  422.56
     86.3700	  528.00	  567.55	-1838.30	  422.48
     86.4700	  579.00	  570.98	-1790.73	  422.39
     86.5700	  541.00	  575.22	-1832.97	  422.30
     86.6700	  563.00	  580.35	-1816.10	  422.21
     86.7700	  565.00	  586.50	-1820.25	  422.12
     86.8700	  586.00	  593.74	-1806.49	  422.02
     86.9700	  593.00	  602.17	-1807.92	  421.92
     87.0700	  599.00	  611.82	-1811.57	  421.83
     87.1700	  600.00	  622.64	-1821.39	  421.72
     87.2700	  637.00	  634.48	-1796.23	  421.62
     87.3700	  616.00	  646.97	-1829.72	  421.52
     87.4700	  651.00	  659.58	-1807.33	  421.41
     87.5700	  673.00	  671.57	-1797.32	  421.30
     87.6700	  657.00	  682.03	-1823.78	  421.19
     87.7700	  666.00	  689.94	-1822.69	  421.07
     87.8700	  692.00	  694.37	-1801.12	  420.96
     87.9700	  685.00	  694.77	-1808.52	  420.84
     88.0700	  702.00	  691.11	-1787.86	  420.72
     88.1700	  693.00	  683.99	-1789.74	  420.60
     88.2700	  703.00	  674.36	-1770.11	  420.47
     88.3700	  656.00	  663.34	-1806.09	  420.35
     88.4700	  658.00	  651.99	-1792.74	  420.22
     88.5700	  581.00	  641.24	-1858.99	  420.09
     88.6700	  622.00	  631.83	-1808.58	  419.96
     88.7700	  603.00	  624.32	-1820.07	  419.82
     88.8700	  612.00	  619.08	-1805.83	  419.69
     88.9700	  633.00	  616.25	-1782.00	  419.55
     89.0700	  550.00	  615.37	-1864.12	  419.41
     89.1700	  602.00	  617.12	-1813.87	  419.27
     89.2700	  650.00	  620.68	-1769.43	  419.12
     89.3700	  628.00	  625.53	-1796.28	  418.97
     89.4700	  609.00	  631.05	-1820.80	  418.83
     89.5700	  661.00	  636.51	-1774.26	  418.68
     89.6700	  608.00	  641.11	-1831.86	  418.52
     89.7700	  594.00	  644.10	-1848.85	  418.37
     89.8700	  609.00	  644.89	-1834.64	  418.21
     89.9700	  610.00	  643.19	-1831.94	  418.05
     90.0700	  607.00	  639.07	-1830.82	  417.89
     90.1700	  555.00	  632.96	-1876.71	  417.73
     90.2700	  597.00	  625.42	-1827.17	  417.56
     90.3700	  597.00	  617.07	-1818.82	  417.40
     90.4700	  575.00	  608.46	-1832.21	  417.23
     90.5700	  593.00	  600.05	-1805.80	  417.06
     90.6700	  563.00	  592.20	-1827.95	  416.88
     90.7700	  539.00	  585.14	-1844.89	  416.71
     90.8700	  546.00	  579.02	-1831.77	  416.53
     90.9700	  588.00	  573.90	-1784.65	  416.35
     91.0700	  565.00	  569.78	-1803.53	  416.17
     91.1700	  576.00	  566.61	-1789.36	  415.99
     91.2700	  550.00	  564.29	-1813.04	  415.80
     91.3700	  595.00	  562.74	-1766.49	  415.61
     91.4700	  548.00	  561.87	-1812.62	  415.42
     91.5700	  536.00	  561.61	-1824.36	  415.23
     91.6700	  536.00	  561.93	-1824.68	  415.04
     91.7700	  558.00	  562.83	-1803.58	  414.84
     91.8700	  528.00	  564.33	-1835.08	  414.65
     91.9700	  546.00	  566.52	-1819.27	  414.45
     92.0700	  554.00	  569.50	-1814.25	  414.24
     92.1700	  538.00	  573.41	-1834.16	  414.04
     92.2700	  525.00	  578.38	-1852.13	  413.84
     92.3700	  576.00	  584.58	-1807.33	  413.63
     92.4700	  610.00	  592.15	-1780.90	  413.42
     92.5700	  589.00	  601.21	-1810.96	  413.21
     92.6700	  578.00	  611.83	-1832.58	  413.00
     92.7700	  580.00	  624.03	-1842.78	  412.78
     92.8700	  639.00	  637.73	-1797.48	  412.56
     92.9700	  617.00	  652.79	-1834.54	  412.35
     93.0700	  600.00	  668.95	-1867.70	  412.13
     93.1700	  640.00	  685.84	-1844.59	  411.90
     93.2700	  707.00	  702.98	-1794.73	  411.68
     93.3700	  682.00	  719.83	-1836.58	  411.45
     93.4700	  703.00	  735.83	-1831.58	  411.22
     93.5700	  744.00	  750.57	-1805.32	  410.99
     93.6700	  757.00	  763.88	-1805.63	  410.76
     93.7700	  810.00	  775.92	-1764.67	  410.53
     93.8700	  790.00	  787.05	-1795.80	  410.29
     93.9700	  860.00	  797.76	-1736.51	  410.06
     94.0700	  768.00	  808.43	-1839.18	  409.82
     94.1700	  804.00	  819.29	-1814.04	  409.58
     94.2700	  817.00	  830.45	-1812.20	  409.33
     94.3700	  878.00	  841.90	-1762.65	  409.09
     94.4700	  799.00	  853.35	-1853.10	  408.84
     94.5700	  901.00	  865.52	-1763.27	  408.59
     94.6700	  870.00	  878.13	-1806.88	  408.34
     94.7700	  950.00	  891.06	-1739.81	  408.09
     94.8700	  916.00	  903.94	-1786.69	  407.84
     94.9700	  973.00	  916.02	-1741.77	  407.58
     95.0700	  997.00	  926.21	-1727.96	  407.33
     95.1700	  934.00	  933.18	-1797.93	  407.07
     95.2700	  937.00	  935.60	-1797.35	  406.81
     95.3700	  974.00	  932.40	-1757.15	  406.55
     95.4700	  879.00	  923.15	-1842.90	  406.28
     95.5700	  913.00	  908.19	-1793.94	  406.02
     95.6700	  848.00	  888.59	-1839.34	  405.75
     95.7700	  875.00	  865.88	-1789.63	  405.48
     95.8700	  849.00	  841.80	-1791.55	  405.21
     95.9700	  824.00	  818.11	-1792.86	  404.94
     96.0700	  764.00	  796.47	-1831.22	  404.67
     96.1700	  791.00	  778.38	-1786.13	  404.39
     96.2700	  800.00	  765.23	-1763.98	  404.12
     96.3700	  727.00	  758.23	-1829.98	  403.84
     96.4700	  754.00	  758.46	-1803.21	  403.56
     96.5700	  805.00	  766.80	-1760.55	  403.28
     96.6700	  778.00	  783.96	-1804.71	  403.00
     96.7700	  793.00	  810.44	-1816.19	  402.71
     96.8700	  841.00	  846.47	-1804.22	  402.43
     96.9700	  933.00	  891.97	-1757.72	  402.14
     97.0700	  901.00	  946.51	-1844.26	  401.85
     97.1700	 1005.00	 1009.23	-1802.98	  401.57
     97.2700	 1124.00	 1078.75	-1753.50	  401.27
     97.3700	 1082.00	 1153.17	-1869.92	  400.98
     97.4700	 1172.00	 1229.96	-1856.71	  400.69
     97.5700	 1299.00	 1306.06	-1805.81	  400.39
     97.6700	 1297.00	 1377.80	-1879.55	  400.10
     97.7700	 1410.00	 1441.07	-1829.82	  399.80
     97.8700	 1452.00	 1491.62	-1838.37	  399.50
     97.9700	 1490.00	 1525.60	-1834.35	  399.20
     98.0700	 1542.00	 1540.35	-1797.10	  398.90
     98.1700	 1496.00	 1534.90	-1837.65	  398.60
     98.2700	 1455.00	 1510.27	-1854.02	  398.29
     98.3700	 1452.00	 1469.16	-1815.91	  397.99
     98.4700	 1412.00	 1415.28	-1802.03	  397.68
     98.5700	 1301.00	 1352.73	-1850.48	  397.37
     98.6700	 1283.00	 1285.55	-1801.30	  397.07
     98.7700	 1183.00	 1217.44	-1833.19	  396.76
     98.8700	 1129.00	 1151.64	-1821.39	  396.45
     98.9700	 1045.00	 1090.91	-1844.66	  396.13
     99.0700	 1005.00	 1037.53	-1831.28	  395.82
     99.1700	  970.00	  993.31	-1822.06	  395.51
     99.2700	  949.00	  959.72	-1809.47	  395.19
     99.3700	  923.00	  937.86	-1813.61	  394.88
     99.4700	  977.00	  928.50	-1750.25	  394.56
     99.5700	  948.00	  932.12	-1782.87	  394.24
     99.6700	  861.00	  948.92	-1886.67	  393.92
     99.7700	  972.00	  978.83	-1805.58	  393.60
     99.8700	 1011.00	 1021.52	-1809.27	  393.28
     99.9700	 1044.00	 1076.37	-1831.12	  392.96
    100.0700	 1152.00	 1142.44	-1789.19	  392.64
    100.1700	 1231.00	 1218.44	-1786.19	  392.32
    100.2700	 1305.00	 1302.62	-1796.37	  391.99
    100.3700	 1402.00	 1392.77	-1789.52	  391.67
    100.4700	 1482.00	 1486.14	-1802.89	  391.34
    100.5700	 1610.00	 1579.56	-1768.31	  391.02
    100.6700	 1660.00	 1669.54	-1808.29	  390.69
    100.7700	 1861.00	 1752.49	-1690.24	  390.36
    100.8700	 1832.00	 1825.32	-1792.07	  390.03
    100.9700	 1906.00	 1885.53	-1778.28	  389.71
    101.0700	 1987.00	 1931.46	-1743.21	  389.38
    101.1700	 1962.00	 1962.13	-1798.88	  389.05
    101.2700	 2008.00	 1976.94	-1767.69	  388.72
    101.3700	 2024.00	 1975.48	-1750.23	  388.39
    101.4700	 1948.00	 1957.65	-1808.40	  388.05
    101.5700	 1934.00	 1923.93	-1788.68	  387.72
    101.6700	 1888.00	 1875.75	-1786.50	  387.39
    101.7700	 1936.00	 1815.61	-1678.36	  387.06
    101.8700	 1723.00	 1746.93	-1822.68	  386.73
    101.9700	 1698.00	 1673.58	-1774.33	  386.39
    102.0700	 1578.00	 1599.30	-1820.05	  386.06
    102.1700	 1502.00	 1527.39	-1824.14	  385.72
    102.2700	 1506.00	 1460.44	-1753.19	  385.39
    102.3700	 1386.00	 1400.23	-1812.98	  385.06
    102.4700	 1384.00	 1347.74	-1762.49	  384.72
    102.5700	 1269.00	 1303.18	-1832.93	  384.39
    102.6700	 1244.00	 1266.08	-1820.83	  384.05
    102.7700	 1262.00	 1235.38	-1772.13	  383.72
    102.8700	 1216.00	 1209.48	-1792.23	  383.38
    102.9700	 1189.00	 1186.47	-1796.22	  383.05
    103.0700	 1174.00	 1164.26	-1789.01	  382.71
    103.1700	 1178.00	 1140.93	-1761.68	  382.38
    103.2700	 1084.00	 1115.00	-1829.75	  382.04
    103.3700	 1044.00	 1085.61	-1840.36	  381.71
    103.4700	 1018.00	 1052.59	-1833.34	  381.37
    103.5700	  996.00	 1016.36	-1819.11	  381.04
    103.6700	 1004.00	  977.74	-1772.49	  380.70
    103.7700	  938.00	  937.72	-1798.47	  380.37
    103.8700	  894.00	  897.33	-1802.08	  380.03
    103.9700	  828.00	  857.51	-1828.26	  379.70
    104.0700	  843.00	  819.11	-1774.86	  379.37
    104.1700	  767.00	  782.81	-1814.56	  379.03
    104.2700	  750.00	  749.14	-1797.89	  378.70
    104.3700	  758.00	  718.50	-1759.25	  378.37
    104.4700	  687.00	  691.10	-1802.85	  378.03
    104.5700	  759.00	  667.04	-1706.79	  377.70
    104.6700	  692.00	  646.26	-1753.01	  377.37
    104.7700	  681.00	  628.63	-1746.38	  377.04
    104.8700	  658.00	  613.92	-1754.67	  376.71
    104.9700	  628.00	  601.87	-1772.62	  376.38
    105.0700	  609.00	  592.19	-1781.94	  376.05
    105.1700	  630.00	  584.57	-1753.32	  375.73
    105.2700	  596.00	  578.73	-1781.48	  375.40
    105.3700	  564.00	  574.42	-1809.17	  375.07
    105.4700	  576.00	  571.40	-1794.15	  374.75
    105.5700	  566.00	  569.51	-1802.26	  374.42
    105.6700	  594.00	  568.60	-1773.35	  374.10
    105.7700	  573.00	  568.56	-1794.31	  373.78
    105.8700	  583.00	  569.32	-1785.07	  373.45
    105.9700	  606.00	  570.85	-1763.60	  373.13
    106.0700	  605.00	  573.12	-1766.87	  372.81
    106.1700	  601.00	  576.16	-1773.91	  372.49
    106.2700	  560.00	  580.00	-1818.75	  372.18
    106.3700	  578.00	  584.68	-1805.43	  371.86
    106.4700	  556.00	  590.23	-1832.98	  371.54
    106.5700	  581.00	  596.69	-1814.44	  371.23
    106.6700	  598.00	  604.08	-1804.83	  370.92
    106.7700	  622.00	  612.36	-1789.11	  370.61
    106.8700	  612.00	  621.49	-1808.24	  370.30
    106.9700	  644.00	  631.33	-1786.08	  369.99
    107.0700	  641.00	  641.73	-1799.48	  369.68
    107.1700	  685.00	  652.48	-1766.23	  369.37
    107.2700	  667.00	  663.30	-1795.05	  369.07
    107.3700	  692.00	  673.88	-1780.63	  368.77
    107.4700	  725.00	  683.88	-1757.63	  368.47
    107.5700	  673.00	  692.92	-1818.67	  368.17
    107.6700	  695.00	  700.66	-1804.41	  367.87
    107.7700	  771.00	  706.80	-1734.55	  367.57
    107.8700	  726.00	  711.17	-1783.92	  367.28
    107.9700	  675.00	  713.74	-1837.49	  366.99
    108.0700	  770.00	  714.61	-1743.36	  366.70
    108.1700	  707.00	  714.13	-1805.88	  366.41
    108.2700	  756.00	  712.62	-1755.37	  366.12
    108.3700	  711.00	  710.53	-1798.28	  365.84
    108.4700	  710.00	  708.25	-1797.00	  365.56
    108.5700	  680.00	  706.10	-1824.85	  365.28
    108.6700	  743.00	  704.37	-1760.12	  365.00
    108.7700	  688.00	  703.22	-1813.97	  364.72
    108.8700	  721.00	  702.73	-1780.48	  364.45
    108.9700	  724.00	  702.90	-1777.65	  364.18
    109.0700	  690.00	  703.58	-1812.33	  363.91
    109.1700	  708.00	  704.59	-1795.34	  363.64
    109.2700	  766.00	  705.64	-1738.39	  363.38
    109.3700	  734.00	  706.37	-1771.12	  363.12
    109.4700	  675.00	  706.43	-1830.18	  362.86
    109.5700	  735.00	  705.46	-1769.21	  362.60
    109.6700	  729.00	  703.18	-1772.93	  362.35
    109.7700	  667.00	  699.42	-1831.17	  362.10
    109.8700	  734.00	  694.16	-1758.91	  361.85
    109.9700	  713.00	  687.50	-1773.25	  361.61
    110.0700	  725.00	  679.65	-1753.40	  361.36
    110.1700	  678.00	  670.88	-1791.63	  361.12
    110.2700	  674.00	  661.51	-1786.26	  360.89
    110.3700	  707.00	  651.85	-1743.60	  360.65
    110.4700	  670.00	  642.19	-1770.94	  360.42
    110.5700	  680.00	  632.80	-1751.55	  360.20
    110.6700	  645.00	  623.91	-1777.66	  359.97
    110.7700	  657.00	  615.68	-1757.43	  359.75
    110.8700	  639.00	  608.31	-1768.06	  359.54
    110.9700	  615.00	  601.88	-1785.63	  359.32
    111.0700	  612.00	  596.48	-1783.23	  359.11
    111.1700	  648.00	  592.15	-1742.90	  358.90
    111.2700	  593.00	  588.87	-1794.62	  358.70
    111.3700	  623.00	  586.63	-1762.38	  358.50
    111.4700	  566.00	  585.37	-1818.12	  358.30
    111.5700	  614.00	  585.02	-1769.77	  358.11
    111.6700	  584.00	  585.48	-1800.23	  357.92
    111.7700	  561.00	  586.65	-1824.40	  357.74
    111.8700	  588.00	  588.40	-1799.15	  357.56
    111.9700	  585.00	  590.63	-1804.38	  357.38
    112.0700	  602.00	  593.21	-1789.96	  357.21
    112.1700	  569.00	  596.03	-1825.78	  357.04
    112.2700	  528.00	  598.96	-1869.71	  356.87
    112.3700	  637.00	  601.92	-1763.67	  356.71
    112.4700	  563.00	  604.82	-1840.57	  356.55
    112.5700	  594.00	  607.60	-1812.35	  356.40
    112.6700	  572.00	  610.26	-1837.01	  356.25
    112.7700	  578.00	  612.79	-1833.54	  356.11
    112.8700	  582.00	  615.24	-1831.99	  355.97
    112.9700	  557.00	  617.69	-1859.44	  355.84
    113.0700	  613.00	  620.24	-1805.99	  355.70
    113.1700	  664.00	  622.99	-1757.74	  355.58
    113.2700	  615.00	  626.08	-1809.83	  355.46
    113.3700	  609.00	  629.65	-1819.40	  355.34
    113.4700	  578.00	  633.85	-1854.60	  355.23
    113.5700	  641.00	  638.89	-1796.64	  355.13
    113.6700	  628.00	  644.97	-1815.72	  355.02
    113.7700	  616.00	  652.37	-1835.11	  354.93
    113.8700	  643.00	  661.39	-1817.14	  354.84
    113.9700	  656.00	  672.44	-1815.19	  354.75
    114.0700	  654.00	  685.98	-1830.73	  354.67
    114.1700	  713.00	  702.62	-1788.37	  354.60
    114.2700	  739.00	  723.07	-1782.82	  354.53
    114.3700	  743.00	  748.18	-1803.93	  354.46
    114.4700	  768.00	  778.99	-1809.74	  354.40
    114.5700	  829.00	  816.71	-1786.46	  354.35
    114.6700	  857.00	  862.74	-1804.49	  354.30
    114.7700	  902.00	  918.67	-1815.42	  354.26
    114.8700	  968.00	  986.29	-1817.04	  354.22
    114.9700	 1081.00	 1067.52	-1785.27	  354.19
    115.0700	 1155.00	 1164.44	-1808.19	  354.17
    115.1700	 1344.00	 1279.21	-1733.96	  354.15
    115.2700	 1534.00	 1413.95	-1678.70	  354.14
    115.3700	 1588.00	 1570.71	-1781.46	  354.13
    115.4700	 1873.00	 1751.31	-1677.06	  354.13
    115.5700	 2014.00	 1957.30	-1742.05	  354.13
    115.6700	 2290.00	 2189.79	-1698.54	  354.15
    115.7700	 2442.00	 2449.23	-1805.98	  354.17
    115.8700	 2757.00	 2735.39	-1777.14	  354.19
    115.9700	 3130.00	 3047.15	-1715.90	  354.22
    116.0700	 3445.00	 3382.52	-1736.27	  354.26
    116.1700	 3688.00	 3738.51	-1849.26	  354.31
    116.2700	 4194.00	 4110.94	-1715.69	  354.36
    116.3700	 4541.00	 4494.53	-1752.28	  354.42
    116.4700	 4808.00	 4882.84	-1873.59	  354.48
    116.5700	 5174.00	 5268.51	-1893.26	  354.56
    116.6700	 5451.00	 5643.09	-1990.84	  354.64
    116.7700	 6013.00	 5997.15	-1782.90	  354.72
    116.8700	 6261.00	 6320.66	-1858.41	  354.82
    116.9700	 6475.00	 6603.28	-1927.03	  354.92
    117.0700	 6809.00	 6835.01	-1824.76	  355.03
    117.1700	 7047.00	 7006.85	-1758.60	  355.14
    117.2700	 7195.00	 7111.59	-1715.34	  355.27
    117.3700	 7174.00	 7144.75	-1769.50	  355.40
    117.4700	 7057.00	 7105.10	-1846.85	  355.54
    117.5700	 6935.00	 6994.83	-1858.58	  355.68
    117.6700	 6930.00	 6819.19	-1687.94	  355.84
    117.7700	 6490.00	 6585.94	-1894.69	  356.00
    117.8700	 6210.00	 6304.41	-1893.16	  356.17
    117.9700	 5984.00	 5984.74	-1799.49	  356.35
    118.0700	 5404.00	 5637.07	-2031.82	  356.54
    118.1700	 5154.00	 5271.07	-1915.82	  356.73
    118.2700	 4837.00	 4895.76	-1857.51	  356.94
    118.3700	 4564.00	 4519.20	-1753.95	  357.15
    118.4700	 4320.00	 4148.41	-1627.16	  357.37
    118.5700	 3839.00	 3789.18	-1748.93	  357.60
    118.6700	 3674.00	 3446.19	-1570.94	  357.83
    118.7700	 3196.00	 3123.16	-1725.91	  358.08
    118.8700	 2877.00	 2822.65	-1744.40	  358.34
    118.9700	 2478.00	 2546.38	-1867.13	  358.60
    119.0700	 2356.00	 2295.09	-1737.84	  358.87
    119.1700	 2088.00	 2068.78	-1779.53	  359.16
    119.2700	 1828.00	 1866.94	-1837.69	  359.45
    119.3700	 1691.00	 1688.53	-1796.28	  359.75
    119.4700	 1547.00	 1532.14	-1783.89	  360.06
    119.5700	 1396.00	 1396.06	-1798.81	  360.38
    119.6700	 1236.00	 1278.45	-1841.20	  360.71
    119.7700	 1233.00	 1177.40	-1743.15	  361.04
    119.8700	 1149.00	 1091.01	-1740.76	  361.39
    119.9700	  992.00	 1017.45	-1824.20	  361.75
    120.0700	  932.00	  954.99	-1821.74	  362.12
    120.1700	  939.00	  902.05	-1761.80	  362.50
    120.2700	  816.00	  857.22	-1839.97	  362.88
    120.3700	  833.00	  819.26	-1785.01	  363.28
    120.4700	  794.00	  787.12	-1791.87	  363.69
    120.5700	  756.00	  759.86	-1802.61	  364.11
    120.6700	  766.00	  736.72	-1769.47	  364.54
    120.7700	  774.00	  717.06	-1741.81	  364.98
    120.8700	  696.00	  700.35	-1803.10	  365.43
    120.9700	  658.00	  686.17	-1826.92	  365.89
    121.0700	  707.00	  674.15	-1765.90	  366.36
    121.1700	  666.00	  664.02	-1796.77	  366.84
    121.2700	  683.00	  655.54	-1771.29	  367.33
    121.3700	  587.00	  648.51	-1860.26	  367.84
    121.4700	  629.00	  642.80	-1812.55	  368.35
    121.5700	  627.00	  638.26	-1810.01	  368.88
    121.6700	  638.00	  634.78	-1795.53	  369.42
    121.7700	  569.00	  632.29	-1862.04	  369.97
    121.8700	  608.00	  630.69	-1821.44	  370.53
    121.9700	  626.00	  629.92	-1802.67	  371.10
    122.0700	  640.00	  629.89	-1788.64	  371.69
    122.1700	  646.00	  630.56	-1783.31	  372.28
    122.2700	  603.00	  631.85	-1827.60	  372.89
    122.3700	  656.00	  633.69	-1776.44	  373.51
    122.4700	  591.00	  636.02	-1843.77	  374.14
    122.5700	  671.00	  638.76	-1766.51	  374.79
    122.6700	  620.00	  641.82	-1820.57	  375.44
    122.7700	  629.00	  645.13	-1814.88	  376.11
    122.8700	  647.00	  648.58	-1800.33	  376.79
    122.9700	  685.00	  652.09	-1765.84	  377.49
    123.0700	  671.00	  655.56	-1783.31	  378.19
    123.1700	  677.00	  658.87	-1780.62	  378.91
    123.2700	  670.00	  661.93	-1790.68	  379.65
    123.3700	  659.00	  664.63	-1804.38	  380.39
    123.4700	  709.00	  666.90	-1756.65	  381.15
    123.5700	  675.00	  668.65	-1792.40	  381.92
    123.6700	  671.00	  669.84	-1797.59	  382.71
    123.7700	  686.00	  670.43	-1783.18	  383.51
    123.8700	  682.00	  670.44	-1787.19	  384.32
    123.9700	  668.00	  669.87	-1800.62	  385.15
    124.0700	  694.00	  668.78	-1773.53	  385.99
    124.1700	  669.00	  667.22	-1796.97	  386.84
    124.2700	  644.00	  665.27	-1820.02	  387.71
    124.3700	  627.00	  662.99	-1834.74	  388.59
    124.4700	  680.00	  660.46	-1779.21	  389.49
    124.5700	  603.00	  657.73	-1853.48	  390.40
    124.6700	  681.00	  654.92	-1772.67	  391.32
    124.7700	  634.00	  652.06	-1816.81	  392.26
    124.8700	  582.00	  649.21	-1865.96	  393.21
    124.9700	  674.00	  506.20	-1630.95	  394.18
    125.0700	  621.00	  507.19	-1798.75	  395.16
    125.1700	  625.00	  508.18	-1798.75	  396.16
    125.2700	  618.00	  509.20	-1798.75	  397.18
    125.3700	  632.00	  510.23	-1798.75	  398.20
    125.4700	  615.00	  511.27	-1798.75	  399.25
    125.5700	  601.00	  512.33	-1798.75	  400.31
    125.6700	  571.00	  513.40	-1798.75	  401.38
    125.7700	  570.00	  514.49	-1798.75	  402.47
    125.8700	  600.00	  515.60	-1798.75	  403.58
    125.9700	  593.00	  516.72	-1798.75	  404.70
    126.0700	  573.00	  517.86	-1798.75	  405.84
    126.1700	  605.00	  519.01	-1798.75	  406.99
    126.2700	  595.00	  520.18	-1798.75	  408.16
    126.3700	  596.00	  521.37	-1798.75	  409.35
    126.4700	  604.00	  522.57	-1798.75	  410.55
    126.5700	  601.00	  523.79	-1798.75	  411.77
    126.6700	  632.00	  525.03	-1798.75	  413.00
    126.7700	  556.00	  526.28	-1798.75	  414.26
    126.8700	  548.00	  527.55	-1798.75	  415.53
    126.9700	  608.00	  528.84	-1798.75	  416.81
    127.0700	  611.00	  530.14	-1798.75	  418.12
    127.1700	  598.00	  531.46	-1798.75	  419.44
    127.2700	  572.00	  532.80	-1798.75	  420.78
    127.3700	  564.00	  534.15	-1798.75	  422.13
    127.4700	  588.00	  535.53	-1798.75	  423.51
    127.5700	  613.00	  536.92	-1798.75	  424.90
    127.6700	  579.00	  538.33	-1798.75	  426.30
    127.7700	  656.00	  539.75	-1798.75	  427.73
    127.8700	  616.00	  541.20	-1798.75	  429.18
    127.9700	  617.00	  542.66	-1798.75	  430.64
    128.0700	  675.00	  544.14	-1798.75	  432.12
    128.1700	  648.00	  545.64	-1798.75	  433.62
    128.2700	  624.00	  547.16	-1798.75	  435.14
    128.3700	  643.00	  548.70	-1798.75	  436.68
    128.4700	  669.00	  550.26	-1798.75	  438.23
    128.5700	    0.00	  551.83	-1798.75	  439.81
    128.6700	    0.00	  553.42	-1798.75	  441.40
     12.3616	        	        	        	        	       0	(  0  0  2)	  0  1
     25.0003	        	        	        	        	       0	(  0  0  4)	  0  1
     28.4420	        	        	        	        	       0	(  1  0  0)	  0  1
     29.1427	        	        	        	        	       0	(  1  0  1)	  0  1
     31.1591	        	        	        	        	       0	(  1  0  2)	  0  1
     34.2831	        	        	        	        	       0	(  1  0  3)	  0  1
     37.9594	        	        	        	        	       0	(  0  0  6)	  0  1
     38.2803	        	        	        	        	       0	(  1  0  4)	  0  1
     42.9541	        	        	        	        	       0	(  1  0  5)	  0  1
     48.1652	        	        	        	        	       0	(  1  0  6)	  0  1
     50.4722	        	        	        	        	       0	(  1  1  0)	  0  1
     51.4483	        	        	        	        	       0	(  0  0  8)	  0  1
     52.2051	        	        	        	        	       0	(  1  1  2)	  0  1
     53.8260	        	        	        	        	       0	(  1  0  7)	  0  1
     57.1815	        	        	        	        	       0	(  1  1  4)	  0  1
     59.0097	        	        	        	        	       0	(  2  0  0)	  0  1
     59.4036	        	        	        	        	       0	(  2  0  1)	  0  1
     59.8904	        	        	        	        	       0	(  1  0  8)	  0  1
     60.5761	        	        	        	        	       0	(  2  0  2)	  0  1
     62.5011	        	        	        	        	       0	(  2  0  3)	  0  1
     64.9226	        	        	        	        	       0	(  1  1  6)	  0  1
     65.1415	        	        	        	        	       0	(  2  0  4)	  0  1
     65.7574	        	        	        	        	       0	(  0  0 10)	  0  1
     66.3450	        	        	        	        	       0	(  1  0  9)	  0  1
     68.4568	        	        	        	        	       0	(  2  0  5)	  0  1
     72.4103	        	        	        	        	       0	(  2  0  6)	  0  1
     73.2047	        	        	        	        	       0	(  1  0 10)	  0  1
     75.0259	        	        	        	        	       0	(  1  1  8)	  0  1
     76.9758	        	        	        	        	       0	(  2  0  7)	  0  1
     80.5131	        	        	        	        	       0	(  1  0 11)	  0  1
     81.3410	        	        	        	        	       0	(  0  0 12)	  0  1
     81.3766	        	        	        	        	       0	(  2  1  0)	  0  1
     81.7191	        	        	        	        	       0	(  2  1  1)	  0  1
     82.1437	        	        	        	        	       0	(  2  0  8)	  0  1
     82.7447	        	        	        	        	       0	(  2  1  2)	  0  1
     84.4493	        	        	        	        	       0	(  2  1  3)	  0  1
     86.8279	        	        	        	        	       0	(  2  1  4)	  0  1
     87.3893	        	        	        	        	       0	(  1  1 10)	  0  1
     87.9272	        	        	        	        	       0	(  2  0  9)	  0  1
     88.3480	        	        	        	        	       0	(  1  0 12)	  0  1
     89.8789	        	        	        	        	       0	(  2  1  5)	  0  1
     93.6089	        	        	        	        	       0	(  2  1  6)	  0  1
     94.3703	        	        	        	        	       0	(  2  0 10)	  0  1
     95.3673	        	        	        	        	       0	(  3  0  0)	  0  1
     95.7079	        	        	        	        	       0	(  3  0  1)	  0  1
     96.7307	        	        	        	        	       0	(  3  0  2)	  0  1
     96.8365	        	        	        	        	       0	(  1  0 13)	  0  1
     98.0389	        	        	        	        	       0	(  2  1  7)	  0  1
     98.4404	        	        	        	        	       0	(  3  0  3)	  0  1
     99.0315	        	        	        	        	       0	(  0  0 14)	  0  1
    100.8475	        	        	        	        	       0	(  3  0  4)	  0  1
    101.5624	        	        	        	        	       0	(  2  0 11)	  0  1
    102.3989	        	        	        	        	       0	(  1  1 12)	  0  1
    103.2142	        	        	        	        	       0	(  2  1  8)	  0  1
    103.9719	        	        	        	        	       0	(  3  0  5)	  0  1
    106.1877	        	        	        	        	       0	(  1  0 14)	  0  1
    107.8509	        	        	        	        	       0	(  3  0  6)	  0  1
    109.2199	        	        	        	        	       0	(  2  1  9)	  0  1
    109.6662	        	        	        	        	       0	(  2  0 12)	  0  1
    112.5498	        	        	        	        	       0	(  3  0  7)	  0  1
    116.2101	        	        	        	        	       0	(  2  1 10)	  0  1
    116.7719	        	        	        	        	       0	(  1  0 15)	  0  1
    117.3238	        	        	        	        	       0	(  2  2  0)	  0  1
    118.1829	        	        	        	        	       0	(  3  0  8)	  0  1
    118.8621	        	        	        	        	       0	(  2  2  2)	  0  1
    118.9822	        	        	        	        	       0	(  2  0 13)	  0  1
    120.8039	        	        	        	        	       0	(  0  0 16)	  0  1
    121.5012	        	        	        	        	       0	(  1  1 14)	  0  1
    123.6257	        	        	        	        	       0	(  2  2  4)	  0  1
    124.4730	        	        	        	        	       0	(  2  1 11)	  0  1
    124.9571	        	        	        	        	       0	(  3  0  9)	  0  1
    125.5159	        	        	        	        	       0	(  3  1  0)	  0  1
    125.9340	        	        	        	        	       0	(  3  1  1)	  0  1
    127.2018	        	        	        	        	       0	(  3  1  2)	  0  1
    129.3486	        	        	        	        	       0	(  1  0 16)	  0  1
    129.3640	        	        	        	        	       0	(  3  1  3)	  0  1
    130.1250	        	        	        	        	       0	(  2  0 14)	  0  1
    132.2408	        	        	        	        	       0	(  2  2  6)	  0  1
    132.5103	        	        	        	        	       0	(  3  1  4)	  0  1
    133.2773	        	        	        	        	       0	(  3  0 10)	  0  1
    134.6108	        	        	        	        	       0	(  2  1 12)	  0  1
    136.8080	        	        	        	        	       0	(  3  1  5)	  0  1
    142.5880	        	        	        	        	       0	(  3  1  6)	  0  1
    144.0993	        	        	        	        	       0	(  3  0 11)	  0  1
    144.7235	        	        	        	        	       0	(  2  0 15)	  0  1
    146.0650	        	        	        	        	       0	(  1  0 17)	  0  1
    146.9577	        	        	        	        	       0	(  2  2  8)	  0  1
    148.2710	        	        	        	        	       0	(  2  1 13)	  0  1
    150.6248	        	        	        	        	       0	(  3  1  7)	  0  1
    151.4235	        	        	        	        	       0	(  1  1 16)	  0  1
    156.2420	        	        	        	        	       0	(  0  0 18)	  0  1
    161.1977	        	        	        	        	       0	(  3  0 12)	  0  1
    161.3079	        	        	        	        	       0	(  4  0  0)	  0  1
    162.4034	        	        	        	        	       0	(  4  0  1)	  0  1
    163.8636	        	        	        	        	       0	(  3  1  8)	  0  1
    166.1894	        	        	        	        	       0	(  4  0  2)	  0  1
