MSG Master    CELL:    5.89466   5.89466  23.16740   90.0000   90.0000  120.0000   SPGR: P 63/m m c             TEMP:    708.55
  2   1280     2.52000     0.00000    -0.11238     0.00000     0.00000    0
    96    96     0     0     2
       0.00000      10.00000
     125.00000     130.00000
 2Theta	Yobs	Ycal	Yobs-Ycal	Backg	Posr	(hkl)	K
      0.7700	    0.00	  598.81	-1816.26	  482.85
      0.8700	    0.00	  599.72	-1816.26	  483.76
      0.9700	   52.00	  600.62	-1816.26	  484.66
      1.0700	   59.00	  601.51	-1816.26	  485.54
      1.1700	   46.00	  602.38	-1816.26	  486.42
      1.2700	   41.00	  603.24	-1816.26	  487.27
      1.3700	   48.00	  604.09	-1816.26	  488.12
      1.4700	   91.00	  604.92	-1816.26	  488.95
      1.5700	  278.00	  605.74	-1816.26	  489.77
      1.6700	  493.00	  606.55	-1816.26	  490.58
      1.7700	  586.00	  607.34	-1816.26	  491.38
      1.8700	  689.00	  608.12	-1816.26	  492.16
      1.9700	  716.00	  608.89	-1816.26	  492.93
      2.0700	  739.00	  609.65	-1816.26	  493.69
      2.1700	  845.00	  610.40	-1816.26	  494.43
      2.2700	  767.00	  611.13	-1816.26	  495.16
      2.3700	  744.00	  611.85	-1816.26	  495.88
      2.4700	  740.00	  612.56	-1816.26	  496.59
      2.5700	  703.00	  613.25	-1816.26	  497.29
      2.6700	  669.00	  613.94	-1816.26	  497.97
      2.7700	  668.00	  614.61	-1816.26	  498.65
      2.8700	  630.00	  615.27	-1816.26	  499.31
      2.9700	  622.00	  615.92	-1816.26	  499.96
      3.0700	  598.00	  616.56	-1816.26	  500.59
      3.1700	  604.00	  617.18	-1816.26	  501.22
      3.2700	  721.00	  617.80	-1816.26	  501.83
      3.3700	  795.00	  618.40	-1816.26	  502.44
      3.4700	 1097.00	  618.99	-1816.26	  503.03
      3.5700	 1073.00	  619.58	-1816.26	  503.61
      3.6700	 1242.00	  620.15	-1816.26	  504.18
      3.7700	 1337.00	  620.70	-1816.26	  504.74
      3.8700	 1391.00	  621.25	-1816.26	  505.29
      3.9700	 1543.00	  621.79	-1816.26	  505.82
      4.0700	 1532.00	  622.31	-1816.26	  506.35
      4.1700	 1582.00	  622.83	-1816.26	  506.86
      4.2700	 1630.00	  623.33	-1816.26	  507.37
      4.3700	 1584.00	  623.83	-1816.26	  507.86
      4.4700	 1511.00	  624.31	-1816.26	  508.35
      4.5700	 1416.00	  624.79	-1816.26	  508.82
      4.6700	 1414.00	  625.25	-1816.26	  509.28
      4.7700	 1309.00	  625.70	-1816.26	  509.74
      4.8700	 1302.00	  626.14	-1816.26	  510.18
      4.9700	 1284.00	  626.58	-1816.26	  510.61
      5.0700	 1239.00	  627.00	-1816.26	  511.03
      5.1700	 1199.00	  627.41	-1816.26	  511.45
      5.2700	 1152.00	  627.81	-1816.26	  511.85
      5.3700	 1132.00	  628.21	-1816.26	  512.24
      5.4700	 1089.00	  628.59	-1816.26	  512.62
      5.5700	 1097.00	  628.96	-1816.26	  513.00
      5.6700	 1145.00	  629.33	-1816.26	  513.36
      5.7700	 1053.00	  629.68	-1816.26	  513.72
      5.8700	 1016.00	  630.03	-1816.26	  514.06
      5.9700	  973.00	  630.36	-1816.26	  514.40
      6.0700	  935.00	  630.69	-1816.26	  514.72
      6.1700	  965.00	  631.01	-1816.26	  515.04
      6.2700	  955.00	  631.31	-1816.26	  515.35
      6.3700	  945.00	  631.61	-1816.26	  515.65
      6.4700	  901.00	  631.90	-1816.26	  515.94
      6.5700	  951.00	  632.18	-1816.26	  516.22
      6.6700	  922.00	  632.45	-1816.26	  516.49
      6.7700	  881.00	  632.72	-1816.26	  516.75
      6.8700	  873.00	  632.97	-1816.26	  517.01
      6.9700	  854.00	  633.22	-1816.26	  517.25
      7.0700	  825.00	  633.46	-1816.26	  517.49
      7.1700	  869.00	  633.69	-1816.26	  517.72
      7.2700	  819.00	  633.91	-1816.26	  517.94
      7.3700	  849.00	  634.12	-1816.26	  518.15
      7.4700	  766.00	  634.32	-1816.26	  518.36
      7.5700	  731.00	  634.52	-1816.26	  518.55
      7.6700	  811.00	  634.70	-1816.26	  518.74
      7.7700	  727.00	  634.88	-1816.26	  518.92
      7.8700	  735.00	  635.06	-1816.26	  519.09
      7.9700	  749.00	  635.22	-1816.26	  519.25
      8.0700	  742.00	  635.37	-1816.26	  519.41
      8.1700	  712.00	  635.52	-1816.26	  519.56
      8.2700	  780.00	  635.66	-1816.26	  519.70
      8.3700	  749.00	  635.79	-1816.26	  519.83
      8.4700	  712.00	  635.92	-1816.26	  519.95
      8.5700	  730.00	  636.04	-1816.26	  520.07
      8.6700	  715.00	  636.14	-1816.26	  520.18
      8.7700	  731.00	  636.25	-1816.26	  520.28
      8.8700	  653.00	  636.34	-1816.26	  520.38
      8.9700	  682.00	  636.43	-1816.26	  520.46
      9.0700	  684.00	  636.51	-1816.26	  520.54
      9.1700	  701.00	  636.58	-1816.26	  520.62
      9.2700	  695.00	  636.65	-1816.26	  520.68
      9.3700	  709.00	  636.71	-1816.26	  520.74
      9.4700	  648.00	  636.76	-1816.26	  520.79
      9.5700	  692.00	  636.80	-1816.26	  520.84
      9.6700	  661.00	  636.84	-1816.26	  520.88
      9.7700	  685.00	  636.87	-1816.26	  520.91
      9.8700	  695.00	  636.90	-1816.26	  520.93
      9.9700	  714.00	  636.92	-1816.26	  520.95
     10.0700	  622.00	  639.08	-1833.33	  520.96
     10.1700	  710.00	  639.32	-1745.58	  520.97
     10.2700	  650.00	  639.62	-1805.88	  520.97
     10.3700	  679.00	  639.98	-1777.24	  520.96
     10.4700	  659.00	  640.45	-1797.70	  520.94
     10.5700	  677.00	  641.07	-1780.32	  520.92
     10.6700	  672.00	  641.93	-1786.18	  520.90
     10.7700	  700.00	  643.12	-1759.38	  520.86
     10.8700	  646.00	  644.76	-1815.01	  520.82
     10.9700	  651.00	  646.90	-1812.16	  520.78
     11.0700	  694.00	  649.58	-1771.83	  520.73
     11.1700	  666.00	  652.79	-1803.05	  520.67
     11.2700	  676.00	  656.58	-1796.83	  520.61
     11.3700	  646.00	  661.01	-1831.27	  520.54
     11.4700	  736.00	  666.23	-1746.48	  520.46
     11.5700	  671.00	  672.43	-1817.69	  520.38
     11.6700	  722.00	  679.93	-1774.19	  520.30
     11.7700	  736.00	  689.10	-1769.36	  520.20
     11.8700	  720.00	  700.26	-1796.51	  520.11
     11.9700	  726.00	  713.24	-1803.50	  520.00
     12.0700	  770.00	  726.84	-1773.09	  519.90
     12.1700	  765.00	  738.03	-1789.28	  519.78
     12.2700	  793.00	  741.64	-1764.90	  519.66
     12.3700	  766.00	  732.63	-1782.88	  519.54
     12.4700	  745.00	  712.77	-1784.02	  519.41
     12.5700	  693.00	  690.74	-1813.99	  519.28
     12.6700	  693.00	  672.74	-1796.00	  519.14
     12.7700	  676.00	  660.18	-1800.43	  518.99
     12.8700	  607.00	  652.14	-1861.40	  518.84
     12.9700	  651.00	  647.20	-1812.46	  518.69
     13.0700	  650.00	  644.10	-1810.36	  518.53
     13.1700	  606.00	  642.05	-1852.31	  518.36
     13.2700	  648.00	  640.54	-1808.80	  518.19
     13.3700	  648.00	  639.37	-1807.62	  518.02
     13.4700	  597.00	  638.42	-1857.67	  517.84
     13.5700	  620.00	  637.62	-1833.88	  517.66
     13.6700	  612.00	  636.94	-1841.20	  517.47
     13.7700	  628.00	  636.34	-1824.60	  517.28
     13.8700	  622.00	  635.81	-1830.07	  517.08
     13.9700	  607.00	  635.33	-1844.58	  516.88
     14.0700	  617.00	  634.88	-1834.14	  516.68
     14.1700	  617.00	  634.47	-1833.73	  516.47
     14.2700	  602.00	  634.08	-1848.34	  516.25
     14.3700	  616.00	  633.71	-1833.97	  516.03
     14.4700	  621.00	  633.36	-1828.61	  515.81
     14.5700	  579.00	  633.02	-1870.27	  515.59
     14.6700	  634.00	  632.68	-1814.94	  515.35
     14.7700	  627.00	  632.36	-1821.61	  515.12
     14.8700	  594.00	  632.04	-1854.29	  514.88
     14.9700	  619.00	  631.72	-1828.98	  514.64
     15.0700	  608.00	  631.41	-1839.67	  514.39
     15.1700	  635.00	  631.11	-1812.36	  514.14
     15.2700	  566.00	  630.80	-1881.05	  513.89
     15.3700	  595.00	  630.49	-1851.75	  513.63
     15.4700	  608.00	  630.19	-1838.44	  513.37
     15.5700	  629.00	  629.89	-1817.14	  513.11
     15.6700	  605.00	  629.58	-1840.84	  512.84
     15.7700	  633.00	  629.28	-1812.53	  512.57
     15.8700	  655.00	  628.97	-1790.23	  512.29
     15.9700	  608.00	  628.66	-1836.92	  512.01
     16.0700	  598.00	  628.36	-1846.61	  511.73
     16.1700	  587.00	  628.05	-1857.30	  511.44
     16.2700	  603.00	  627.74	-1840.99	  511.15
     16.3700	  622.00	  627.43	-1821.68	  510.86
     16.4700	  618.00	  627.11	-1825.37	  510.57
     16.5700	  578.00	  626.80	-1865.05	  510.27
     16.6700	  642.00	  626.48	-1800.73	  509.97
     16.7700	  618.00	  626.16	-1824.41	  509.66
     16.8700	  632.00	  625.84	-1810.09	  509.35
     16.9700	  602.00	  625.51	-1839.77	  509.04
     17.0700	  621.00	  625.19	-1820.44	  508.73
     17.1700	  638.00	  624.86	-1803.12	  508.41
     17.2700	  609.00	  624.53	-1831.79	  508.09
     17.3700	  585.00	  624.20	-1855.46	  507.77
     17.4700	  601.00	  623.87	-1839.12	  507.45
     17.5700	  605.00	  623.53	-1834.79	  507.12
     17.6700	  611.00	  623.19	-1828.45	  506.79
     17.7700	  586.00	  623.46	-1853.72	  506.46
     17.8700	  593.00	  623.13	-1846.39	  506.12
     17.9700	  626.00	  622.80	-1813.06	  505.78
     18.0700	  645.00	  622.84	-1794.10	  505.44
     18.1700	  574.00	  622.52	-1864.77	  505.10
     18.2700	  583.00	  622.19	-1855.44	  504.75
     18.3700	  620.00	  621.86	-1818.11	  504.40
     18.4700	  587.00	  621.52	-1850.78	  504.05
     18.5700	  578.00	  621.19	-1859.45	  503.70
     18.6700	  609.00	  620.86	-1828.11	  503.35
     18.7700	  567.00	  620.52	-1869.78	  502.99
     18.8700	  646.00	  620.18	-1790.44	  502.63
     18.9700	  616.00	  619.85	-1820.10	  502.27
     19.0700	  608.00	  619.51	-1827.76	  501.90
     19.1700	  635.00	  619.17	-1800.42	  501.54
     19.2700	  636.00	  618.83	-1799.08	  501.17
     19.3700	  643.00	  618.49	-1791.74	  500.80
     19.4700	  604.00	  618.15	-1830.40	  500.43
     19.5700	  601.00	  617.86	-1833.11	  500.05
     19.6700	  618.00	  617.52	-1815.77	  499.68
     19.7700	  537.00	  617.17	-1896.43	  499.30
     19.8700	  610.00	  616.83	-1823.09	  498.92
     19.9700	  627.00	  616.49	-1805.75	  498.54
     20.0700	  585.00	  616.15	-1847.40	  498.16
     20.1700	  587.00	  615.81	-1845.06	  497.77
     20.2700	  634.00	  615.46	-1797.72	  497.39
     20.3700	  615.00	  615.12	-1816.38	  497.00
     20.4700	  595.00	  614.78	-1836.04	  496.61
     20.5700	  594.00	  614.44	-1836.70	  496.22
     20.6700	  587.00	  614.11	-1843.36	  495.83
     20.7700	  605.00	  613.77	-1825.02	  495.43
     20.8700	  583.00	  613.43	-1846.69	  495.04
     20.9700	  598.00	  613.10	-1831.35	  494.64
     21.0700	  612.00	  612.77	-1817.02	  494.24
     21.1700	  554.00	  612.43	-1874.69	  493.84
     21.2700	  556.00	  612.11	-1872.36	  493.44
     21.3700	  624.00	  611.78	-1804.04	  493.04
     21.4700	  601.00	  611.46	-1826.71	  492.64
     21.5700	  619.00	  611.14	-1808.39	  492.23
     21.6700	  578.00	  610.82	-1849.08	  491.83
     21.7700	  581.00	  610.51	-1845.77	  491.42
     21.8700	  581.00	  610.20	-1845.46	  491.01
     21.9700	  603.00	  610.08	-1823.34	  490.60
     22.0700	  606.00	  609.79	-1820.04	  490.19
     22.1700	  607.00	  609.50	-1818.76	  489.78
     22.2700	  593.00	  609.22	-1832.48	  489.37
     22.3700	  570.00	  608.96	-1855.21	  488.96
     22.4700	  575.00	  608.70	-1849.95	  488.54
     22.5700	  605.00	  608.45	-1819.70	  488.13
     22.6700	  650.00	  608.21	-1774.47	  487.71
     22.7700	  617.00	  607.99	-1807.25	  487.29
     22.8700	  595.00	  607.79	-1829.05	  486.88
     22.9700	  601.00	  607.61	-1822.86	  486.46
     23.0700	  641.00	  607.45	-1782.71	  486.04
     23.1700	  628.00	  607.32	-1795.58	  485.62
     23.2700	  654.00	  607.23	-1769.48	  485.20
     23.3700	  579.00	  607.18	-1844.43	  484.78
     23.4700	  588.00	  607.18	-1835.44	  484.36
     23.5700	  594.00	  607.25	-1829.51	  483.94
     23.6700	  620.00	  607.42	-1803.68	  483.51
     23.7700	  626.00	  607.66	-1797.92	  483.09
     23.8700	  626.00	  608.16	-1798.42	  482.67
     23.9700	  628.00	  608.97	-1797.23	  482.24
     24.0700	  651.00	  610.28	-1775.53	  481.82
     24.1700	  633.00	  612.38	-1795.64	  481.39
     24.2700	  647.00	  615.70	-1784.96	  480.97
     24.3700	  691.00	  620.72	-1745.98	  480.54
     24.4700	  608.00	  627.83	-1836.08	  480.11
     24.5700	  641.00	  637.10	-1812.36	  479.69
     24.6700	  713.00	  647.99	-1751.24	  479.26
     24.7700	  654.00	  658.88	-1821.14	  478.84
     24.8700	  705.00	  666.72	-1777.98	  478.41
     24.9700	  682.00	  667.45	-1801.71	  477.98
     25.0700	  682.00	  659.37	-1793.63	  477.55
     25.1700	  694.00	  646.39	-1768.64	  477.13
     25.2700	  702.00	  633.82	-1748.07	  476.70
     25.3700	  635.00	  624.20	-1805.46	  476.27
     25.4700	  656.00	  617.80	-1778.06	  475.84
     25.5700	  624.00	  613.97	-1806.22	  475.41
     25.6700	  610.00	  611.87	-1818.13	  474.99
     25.7700	  657.00	  610.86	-1770.11	  474.56
     25.8700	  650.00	  610.50	-1776.75	  474.13
     25.9700	  661.00	  610.57	-1765.83	  473.70
     26.0700	  642.00	  610.99	-1785.25	  473.28
     26.1700	  664.00	  611.71	-1763.97	  472.85
     26.2700	  646.00	  612.74	-1782.99	  472.42
     26.3700	  686.00	  614.08	-1744.34	  471.99
     26.4700	  693.00	  615.79	-1739.04	  471.57
     26.5700	  660.00	  617.91	-1774.16	  471.14
     26.6700	  650.00	  620.52	-1786.78	  470.71
     26.7700	  718.00	  623.73	-1721.99	  470.29
     26.8700	  684.00	  627.68	-1759.94	  469.86
     26.9700	  667.00	  632.57	-1781.83	  469.43
     27.0700	  672.00	  638.69	-1782.95	  469.01
     27.1700	  653.00	  646.45	-1809.71	  468.58
     27.2700	  699.00	  656.54	-1773.79	  468.16
     27.3700	  693.00	  670.20	-1793.45	  467.73
     27.4700	  728.00	  689.84	-1778.10	  467.31
     27.5700	  702.00	  720.08	-1834.34	  466.89
     27.6700	  731.00	  769.21	-1854.47	  466.46
     27.7700	  800.00	  850.61	-1866.87	  466.04
     27.8700	  860.00	  982.39	-1938.65	  465.62
     27.9700	 1034.00	 1182.07	-1964.32	  465.20
     28.0700	 1250.00	 1454.91	-2021.17	  464.78
     28.1700	 1669.00	 1778.63	-1925.88	  464.36
     28.2700	 2189.00	 2088.37	-1715.63	  463.94
     28.3700	 2488.00	 2273.21	-1601.47	  463.52
     28.4700	 2467.00	 2227.83	-1577.09	  463.10
     28.5700	 2183.00	 1992.64	-1625.90	  462.68
     28.6700	 1687.00	 1744.64	-1873.89	  462.26
     28.7700	 1420.00	 1605.36	-2001.62	  461.85
     28.8700	 1453.00	 1590.27	-1953.53	  461.43
     28.9700	 1639.00	 1643.73	-1820.99	  461.01
     29.0700	 1721.00	 1670.67	-1765.93	  460.60
     29.1700	 1668.00	 1583.21	-1731.46	  460.19
     29.2700	 1417.00	 1382.68	-1781.93	  459.77
     29.3700	 1155.00	 1154.93	-1816.19	  459.36
     29.4700	 1006.00	  966.16	-1776.42	  458.95
     29.5700	  821.00	  834.70	-1829.95	  458.54
     29.6700	  789.00	  752.93	-1780.19	  458.13
     29.7700	  780.00	  705.03	-1741.29	  457.72
     29.8700	  733.00	  676.78	-1760.04	  457.31
     29.9700	  735.00	  659.01	-1740.27	  456.90
     30.0700	  708.00	  646.98	-1755.23	  456.50
     30.1700	  719.00	  638.58	-1735.83	  456.09
     30.2700	  689.00	  633.06	-1760.32	  455.69
     30.3700	  684.00	  630.48	-1762.74	  455.28
     30.4700	  691.00	  631.50	-1756.76	  454.88
     30.5700	  666.00	  637.29	-1787.55	  454.48
     30.6700	  657.00	  649.12	-1808.38	  454.08
     30.7700	  639.00	  667.37	-1844.62	  453.68
     30.8700	  714.00	  690.21	-1792.47	  453.28
     30.9700	  698.00	  712.61	-1830.87	  452.89
     31.0700	  766.00	  726.01	-1776.27	  452.49
     31.1700	  741.00	  721.32	-1796.58	  452.09
     31.2700	  640.00	  698.22	-1874.47	  451.70
     31.3700	  653.00	  667.75	-1831.01	  451.31
     31.4700	  675.00	  640.31	-1781.57	  450.92
     31.5700	  664.00	  619.87	-1772.13	  450.53
     31.6700	  625.00	  606.35	-1797.60	  450.14
     31.7700	  635.00	  598.00	-1779.26	  449.75
     31.8700	  601.00	  592.93	-1808.18	  449.36
     31.9700	  624.00	  589.70	-1781.96	  448.98
     32.0700	  608.00	  587.50	-1795.75	  448.59
     32.1700	  608.00	  585.91	-1794.17	  448.21
     32.2700	  561.00	  584.76	-1840.01	  447.83
     32.3700	  630.00	  583.95	-1770.20	  447.45
     32.4700	  644.00	  583.44	-1755.70	  447.07
     32.5700	  572.00	  583.24	-1827.50	  446.69
     32.6700	  626.00	  583.35	-1773.60	  446.31
     32.7700	  614.00	  583.80	-1786.06	  445.94
     32.8700	  628.00	  584.69	-1772.94	  445.56
     32.9700	  638.00	  586.05	-1764.30	  445.19
     33.0700	  647.00	  588.06	-1757.32	  444.82
     33.1700	  587.00	  591.02	-1820.27	  444.45
     33.2700	  631.00	  595.46	-1780.72	  444.08
     33.3700	  636.00	  602.43	-1782.69	  443.71
     33.4700	  619.00	  613.86	-1811.12	  443.34
     33.5700	  633.00	  632.97	-1816.23	  442.98
     33.6700	  614.00	  664.35	-1866.61	  442.62
     33.7700	  694.00	  713.06	-1835.32	  442.25
     33.8700	  783.00	  781.94	-1815.19	  441.89
     33.9700	  904.00	  867.34	-1779.60	  441.54
     34.0700	 1018.00	  955.16	-1753.42	  441.18
     34.1700	 1159.00	 1019.47	-1676.73	  440.82
     34.2700	 1060.00	 1029.31	-1785.57	  440.47
     34.3700	 1089.00	  974.01	-1701.27	  440.12
     34.4700	  942.00	  881.06	-1755.31	  439.76
     34.5700	  780.00	  787.24	-1823.49	  439.41
     34.6700	  669.00	  711.91	-1859.17	  439.07
     34.7700	  653.00	  659.17	-1822.43	  438.72
     34.8700	  562.00	  625.59	-1879.84	  438.37
     34.9700	  597.00	  605.30	-1824.56	  438.03
     35.0700	  599.00	  593.07	-1810.32	  437.69
     35.1700	  636.00	  585.24	-1765.49	  437.35
     35.2700	  621.00	  579.80	-1775.05	  437.01
     35.3700	  548.00	  575.72	-1843.97	  436.67
     35.4700	  574.00	  572.50	-1814.75	  436.34
     35.5700	  557.00	  569.88	-1829.13	  436.00
     35.6700	  503.00	  567.70	-1880.96	  435.67
     35.7700	  559.00	  566.37	-1823.62	  435.34
     35.8700	  542.00	  564.80	-1839.06	  435.01
     35.9700	  590.00	  563.45	-1789.71	  434.68
     36.0700	  557.00	  562.28	-1821.54	  434.36
     36.1700	  539.00	  561.26	-1838.51	  434.03
     36.2700	  530.00	  560.36	-1846.61	  433.71
     36.3700	  542.00	  559.57	-1833.83	  433.39
     36.4700	  537.00	  558.88	-1838.14	  433.07
     36.5700	  593.00	  558.30	-1781.55	  432.75
     36.6700	  580.00	  557.80	-1794.06	  432.44
     36.7700	  557.00	  557.42	-1816.67	  432.12
     36.8700	  525.00	  557.14	-1848.40	  431.81
     36.9700	  537.00	  557.00	-1836.25	  431.50
     37.0700	  580.00	  557.28	-1793.54	  431.19
     37.1700	  537.00	  557.70	-1836.96	  430.89
     37.2700	  594.00	  558.61	-1780.87	  430.58
     37.3700	  559.00	  560.28	-1817.53	  430.28
     37.4700	  569.00	  563.04	-1810.29	  429.97
     37.5700	  545.00	  567.29	-1838.54	  429.67
     37.6700	  593.00	  573.32	-1796.58	  429.38
     37.7700	  572.00	  581.16	-1825.41	  429.08
     37.8700	  571.00	  590.25	-1835.50	  428.79
     37.9700	  611.00	  599.40	-1804.65	  428.49
     38.0700	  564.00	  607.03	-1859.29	  428.20
     38.1700	  619.00	  611.18	-1808.43	  427.91
     38.2700	  593.00	  609.51	-1832.77	  427.62
     38.3700	  580.00	  601.40	-1837.65	  427.34
     38.4700	  543.00	  589.62	-1862.87	  427.05
     38.5700	  571.00	  577.88	-1823.13	  426.77
     38.6700	  550.00	  568.13	-1834.39	  426.49
     38.7700	  518.00	  560.97	-1859.23	  426.21
     38.8700	  550.00	  556.11	-1822.37	  425.94
     38.9700	  543.00	  552.95	-1826.21	  425.66
     39.0700	  586.00	  550.31	-1780.56	  425.39
     39.1700	  570.00	  548.92	-1795.18	  425.12
     39.2700	  510.00	  547.91	-1854.16	  424.85
     39.3700	  530.00	  547.11	-1833.36	  424.58
     39.4700	  562.00	  546.44	-1800.69	  424.31
     39.5700	  553.00	  545.87	-1809.12	  424.05
     39.6700	  540.00	  545.36	-1821.62	  423.79
     39.7700	  568.00	  544.92	-1793.17	  423.53
     39.8700	  486.00	  544.52	-1874.77	  423.27
     39.9700	  554.00	  544.16	-1806.41	  423.01
     40.0700	  560.00	  543.83	-1800.09	  422.76
     40.1700	  529.00	  544.08	-1831.34	  422.51
     40.2700	  543.00	  543.82	-1817.08	  422.26
     40.3700	  508.00	  543.23	-1851.49	  422.01
     40.4700	  547.00	  543.03	-1812.29	  421.76
     40.5700	  513.00	  542.85	-1846.11	  421.52
     40.6700	  570.00	  542.71	-1788.96	  421.27
     40.7700	  541.00	  542.59	-1817.84	  421.03
     40.8700	  533.00	  542.50	-1825.75	  420.79
     40.9700	  543.00	  542.45	-1815.70	  420.55
     41.0700	  541.00	  542.44	-1817.69	  420.32
     41.1700	  560.00	  542.47	-1798.73	  420.08
     41.2700	  517.00	  542.56	-1841.82	  419.85
     41.3700	  519.00	  542.72	-1839.98	  419.62
     41.4700	  499.00	  543.02	-1860.28	  419.39
     41.5700	  558.00	  543.38	-1801.63	  419.17
     41.6700	  483.00	  543.88	-1877.13	  418.94
     41.7700	  536.00	  544.58	-1824.84	  418.72
     41.8700	  543.00	  545.61	-1818.87	  418.50
     41.9700	  552.00	  547.18	-1811.44	  418.28
     42.0700	  503.00	  549.69	-1862.95	  418.06
     42.1700	  509.00	  553.85	-1861.10	  417.85
     42.2700	  499.00	  560.54	-1877.80	  417.64
     42.3700	  580.00	  570.73	-1806.98	  417.42
     42.4700	  536.00	  585.38	-1865.63	  417.22
     42.5700	  640.00	  604.57	-1780.82	  417.01
     42.6700	  569.00	  626.73	-1873.99	  416.80
     42.7700	  666.00	  647.86	-1798.12	  416.60
     42.8700	  648.00	  661.55	-1829.81	  416.40
     42.9700	  594.00	  661.85	-1884.11	  416.20
     43.0700	  557.00	  647.88	-1907.13	  416.00
     43.1700	  596.00	  625.93	-1846.19	  415.80
     43.2700	  584.00	  603.11	-1835.36	  415.61
     43.3700	  567.00	  583.55	-1832.81	  415.42
     43.4700	  532.00	  568.71	-1852.97	  415.23
     43.5700	  546.00	  558.42	-1828.68	  415.04
     43.6700	  543.00	  551.73	-1824.99	  414.85
     43.7700	  534.00	  547.53	-1829.79	  414.67
     43.8700	  541.00	  544.88	-1820.13	  414.48
     43.9700	  573.00	  543.12	-1786.38	  414.30
     44.0700	  573.00	  541.88	-1785.14	  414.12
     44.1700	  532.00	  541.16	-1825.42	  413.95
     44.2700	  519.00	  540.44	-1837.69	  413.77
     44.3700	  497.00	  539.85	-1859.11	  413.60
     44.4700	  538.00	  539.38	-1817.64	  413.43
     44.5700	  528.00	  538.99	-1827.25	  413.26
     44.6700	  503.00	  538.68	-1851.94	  413.09
     44.7700	  502.00	  538.43	-1852.68	  412.92
     44.8700	  557.00	  538.22	-1797.48	  412.76
     44.9700	  554.00	  538.07	-1800.32	  412.60
     45.0700	  542.00	  537.95	-1812.21	  412.44
     45.1700	  566.00	  537.87	-1788.13	  412.28
     45.2700	  559.00	  537.83	-1795.09	  412.12
     45.3700	  576.00	  537.84	-1778.10	  411.97
     45.4700	  534.00	  537.96	-1820.21	  411.81
     45.5700	  557.00	  538.02	-1797.27	  411.66
     45.6700	  538.00	  538.11	-1816.36	  411.51
     45.7700	  541.00	  538.24	-1813.49	  411.37
     45.8700	  577.00	  538.47	-1777.72	  411.22
     45.9700	  558.00	  538.67	-1796.93	  411.08
     46.0700	  570.00	  538.92	-1785.17	  410.93
     46.1700	  534.00	  539.21	-1821.47	  410.79
     46.2700	  549.00	  539.56	-1806.82	  410.66
     46.3700	  565.00	  539.97	-1791.22	  410.52
     46.4700	  546.00	  540.44	-1810.70	  410.38
     46.5700	  541.00	  541.00	-1816.25	  410.25
     46.6700	  535.00	  541.48	-1822.73	  410.12
     46.7700	  540.00	  542.25	-1818.50	  409.99
     46.8700	  548.00	  543.17	-1811.42	  409.86
     46.9700	  528.00	  544.30	-1832.55	  409.74
     47.0700	  583.00	  545.75	-1779.00	  409.61
     47.1700	  518.00	  547.70	-1845.96	  409.49
     47.2700	  583.00	  550.48	-1783.73	  409.37
     47.3700	  558.00	  554.55	-1812.81	  409.25
     47.4700	  566.00	  560.55	-1810.81	  409.14
     47.5700	  576.00	  569.14	-1809.39	  409.02
     47.6700	  584.00	  580.79	-1813.04	  408.91
     47.7700	  609.00	  595.45	-1802.71	  408.80
     47.8700	  587.00	  612.12	-1841.38	  408.69
     47.9700	  605.00	  628.41	-1839.66	  408.58
     48.0700	  670.00	  640.85	-1787.10	  408.47
     48.1700	  663.00	  644.62	-1797.87	  408.37
     48.2700	  644.00	  639.09	-1811.35	  408.26
     48.3700	  615.00	  627.40	-1828.66	  408.16
     48.4700	  633.00	  614.03	-1797.28	  408.06
     48.5700	  617.00	  602.22	-1801.47	  407.96
     48.6700	  579.00	  593.57	-1830.83	  407.87
     48.7700	  597.00	  588.57	-1807.83	  407.77
     48.8700	  550.00	  587.03	-1853.29	  407.68
     48.9700	  566.00	  588.51	-1838.77	  407.59
     49.0700	  586.00	  592.62	-1822.88	  407.50
     49.1700	  587.00	  599.26	-1828.52	  407.41
     49.2700	  615.00	  608.85	-1810.11	  407.33
     49.3700	  597.00	  622.70	-1841.96	  407.24
     49.4700	  618.00	  643.69	-1841.95	  407.16
     49.5700	  640.00	  677.36	-1853.62	  407.08
     49.6700	  699.00	  733.03	-1850.29	  407.00
     49.7700	  772.00	  824.30	-1868.55	  406.92
     49.8700	  863.00	  967.27	-1920.53	  406.85
     49.9700	 1146.00	 1175.71	-1845.96	  406.77
     50.0700	 1406.00	 1452.71	-1862.96	  406.70
     50.1700	 1845.00	 1780.59	-1751.84	  406.63
     50.2700	 2274.00	 2111.62	-1653.88	  406.56
     50.3700	 2418.00	 2364.83	-1763.08	  406.49
     50.4700	 2550.00	 2449.38	-1715.63	  406.42
     50.5700	 2444.00	 2326.84	-1699.10	  406.36
     50.6700	 2084.00	 2049.90	-1782.15	  406.29
     50.7700	 1648.00	 1715.58	-1883.84	  406.23
     50.8700	 1256.00	 1400.64	-1960.90	  406.17
     50.9700	 1001.00	 1145.51	-1960.77	  406.11
     51.0700	  884.00	  961.72	-1893.98	  406.05
     51.1700	  789.00	  842.00	-1869.26	  406.00
     51.2700	  729.00	  769.70	-1856.95	  405.94
     51.3700	  669.00	  726.66	-1873.92	  405.89
     51.4700	  694.00	  698.30	-1820.56	  405.84
     51.5700	  656.00	  676.07	-1836.32	  405.79
     51.6700	  671.00	  656.93	-1802.18	  405.74
     51.7700	  689.00	  640.56	-1767.82	  405.70
     51.8700	  607.00	  627.26	-1836.51	  405.65
     51.9700	  621.00	  617.04	-1812.29	  405.61
     52.0700	  685.00	  609.57	-1740.82	  405.56
     52.1700	  596.00	  604.26	-1824.51	  405.52
     52.2700	  669.00	  600.51	-1747.77	  405.48
     52.3700	  598.00	  598.09	-1816.34	  405.45
     52.4700	  587.00	  597.10	-1826.36	  405.41
     52.5700	  556.00	  597.94	-1858.19	  405.37
     52.6700	  668.00	  601.24	-1749.50	  405.34
     52.7700	  597.00	  608.12	-1827.38	  405.31
     52.8700	  619.00	  620.35	-1817.61	  405.28
     52.9700	  613.00	  640.52	-1843.78	  405.25
     53.0700	  640.00	  671.98	-1848.24	  405.22
     53.1700	  756.00	  718.32	-1778.58	  405.19
     53.2700	  817.00	  782.31	-1781.56	  405.17
     53.3700	  918.00	  864.44	-1762.70	  405.14
     53.4700	 1012.00	  960.89	-1765.14	  405.12
     53.5700	 1108.00	 1061.74	-1770.00	  405.10
     53.6700	 1196.00	 1149.12	-1769.38	  405.08
     53.7700	 1235.00	 1199.40	-1780.65	  405.06
     53.8700	 1276.00	 1194.41	-1734.67	  405.04
     53.9700	 1233.00	 1135.90	-1719.16	  405.02
     54.0700	 1077.00	 1044.34	-1783.60	  405.01
     54.1700	 1009.00	  943.39	-1750.64	  405.00
     54.2700	  822.00	  849.54	-1843.80	  404.98
     54.3700	  752.00	  771.34	-1835.59	  404.97
     54.4700	  670.00	  711.49	-1857.74	  404.96
     54.5700	  644.00	  668.89	-1841.14	  404.95
     54.6700	  643.00	  640.43	-1813.69	  404.95
     54.7700	  623.00	  622.44	-1815.70	  404.94
     54.8700	  640.00	  611.62	-1787.88	  404.93
     54.9700	  615.00	  605.48	-1806.73	  404.93
     55.0700	  608.00	  602.36	-1810.62	  404.93
     55.1700	  621.00	  601.31	-1796.56	  404.93
     55.2700	  611.00	  601.81	-1807.06	  404.93
     55.3700	  571.00	  603.64	-1848.90	  404.93
     55.4700	  620.00	  606.76	-1803.02	  404.93
     55.5700	  658.00	  611.25	-1769.50	  404.93
     55.6700	  609.00	  617.32	-1824.58	  404.94
     55.7700	  592.00	  625.43	-1849.69	  404.94
     55.8700	  600.00	  636.40	-1852.66	  404.95
     55.9700	  621.00	  651.77	-1847.02	  404.95
     56.0700	  673.00	  674.28	-1817.54	  404.96
     56.1700	  723.00	  708.57	-1801.82	  404.97
     56.2700	  745.00	  761.72	-1832.97	  404.98
     56.3700	  804.00	  843.44	-1855.69	  404.99
     56.4700	  899.00	  965.04	-1882.29	  405.01
     56.5700	 1040.00	 1137.12	-1913.38	  405.02
     56.6700	 1385.00	 1365.40	-1796.65	  405.04
     56.7700	 1656.00	 1645.85	-1806.10	  405.05
     56.8700	 1993.00	 1959.14	-1782.39	  405.07
     56.9700	 2396.00	 2265.77	-1686.02	  405.09
     57.0700	 2425.00	 2504.37	-1895.62	  405.11
     57.1700	 2620.00	 2606.35	-1802.60	  405.13
     57.2700	 2529.00	 2535.37	-1822.63	  405.15
     57.3700	 2296.00	 2317.25	-1837.51	  405.17
     57.4700	 1966.00	 2019.05	-1869.31	  405.19
     57.5700	 1574.00	 1705.90	-1948.15	  405.21
     57.6700	 1288.00	 1421.40	-1949.65	  405.24
     57.7700	 1143.00	 1187.83	-1861.09	  405.26
     57.8700	  945.00	 1011.74	-1883.00	  405.29
     57.9700	  842.00	  889.15	-1863.41	  405.32
     58.0700	  770.00	  810.91	-1857.17	  405.35
     58.1700	  725.00	  767.02	-1858.28	  405.38
     58.2700	  779.00	  749.41	-1786.66	  405.41
     58.3700	  770.00	  752.96	-1799.21	  405.44
     58.4700	  802.00	  775.12	-1789.38	  405.47
     58.5700	  783.00	  814.79	-1848.05	  405.50
     58.6700	  859.00	  870.79	-1828.05	  405.53
     58.7700	  954.00	  940.33	-1802.58	  405.57
     58.8700	 1035.00	 1017.61	-1798.87	  405.60
     58.9700	 1068.00	 1093.82	-1842.07	  405.64
     59.0700	 1134.00	 1159.96	-1842.22	  405.67
     59.1700	 1259.00	 1210.88	-1768.14	  405.71
     59.2700	 1293.00	 1244.34	-1767.59	  405.75
     59.3700	 1271.00	 1257.29	-1802.54	  405.79
     59.4700	 1255.00	 1248.13	-1809.38	  405.83
     59.5700	 1248.00	 1222.67	-1790.93	  405.87
     59.6700	 1238.00	 1193.48	-1771.73	  405.91
     59.7700	 1201.00	 1172.64	-1787.89	  405.95
     59.8700	 1114.00	 1168.04	-1870.29	  405.99
     59.9700	 1199.00	 1184.86	-1802.12	  406.03
     60.0700	 1307.00	 1227.20	-1736.45	  406.08
     60.1700	 1343.00	 1295.93	-1769.18	  406.12
     60.2700	 1438.00	 1384.63	-1762.89	  406.16
     60.3700	 1489.00	 1477.07	-1804.32	  406.21
     60.4700	 1567.00	 1547.65	-1796.91	  406.26
     60.5700	 1539.00	 1568.03	-1845.28	  406.30
     60.6700	 1566.00	 1522.42	-1772.67	  406.35
     60.7700	 1435.00	 1419.09	-1800.34	  406.40
     60.8700	 1301.00	 1283.14	-1798.40	  406.44
     60.9700	 1110.00	 1140.46	-1846.72	  406.49
     61.0700	 1052.00	 1009.68	-1773.93	  406.54
     61.1700	  924.00	  901.39	-1793.65	  406.59
     61.2700	  816.00	  820.02	-1820.27	  406.64
     61.3700	  790.00	  765.72	-1791.97	  406.69
     61.4700	  773.00	  736.59	-1779.85	  406.74
     61.5700	  756.00	  730.62	-1790.88	  406.80
     61.6700	  791.00	  746.84	-1772.09	  406.85
     61.7700	  822.00	  785.57	-1779.82	  406.90
     61.8700	  862.00	  847.62	-1801.87	  406.95
     61.9700	 1032.00	  932.79	-1717.04	  407.01
     62.0700	 1059.00	 1038.08	-1795.34	  407.06
     62.1700	 1133.00	 1155.95	-1839.21	  407.12
     62.2700	 1304.00	 1272.89	-1785.15	  407.17
     62.3700	 1335.00	 1368.81	-1850.06	  407.23
     62.4700	 1393.00	 1420.43	-1843.68	  407.28
     62.5700	 1380.00	 1411.65	-1847.91	  407.34
     62.6700	 1303.00	 1344.75	-1858.01	  407.39
     62.7700	 1226.00	 1238.51	-1828.77	  407.45
     62.8700	 1121.00	 1116.23	-1811.49	  407.51
     62.9700	  940.00	  996.33	-1872.58	  407.56
     63.0700	  877.00	  890.50	-1829.75	  407.62
     63.1700	  770.00	  804.49	-1850.75	  407.68
     63.2700	  706.00	  739.42	-1849.67	  407.74
     63.3700	  635.00	  693.38	-1874.64	  407.79
     63.4700	  682.00	  662.91	-1797.17	  407.85
     63.5700	  637.00	  644.30	-1823.55	  407.91
     63.6700	  658.00	  634.54	-1792.80	  407.97
     63.7700	  657.00	  631.67	-1790.92	  408.03
     63.8700	  650.00	  634.93	-1801.19	  408.09
     63.9700	  684.00	  644.70	-1776.95	  408.15
     64.0700	  644.00	  662.21	-1834.47	  408.21
     64.1700	  739.00	  689.27	-1766.52	  408.27
     64.2700	  779.00	  727.70	-1764.96	  408.33
     64.3700	  795.00	  778.82	-1800.08	  408.39
     64.4700	  875.00	  842.67	-1783.93	  408.45
     64.5700	  966.00	  917.03	-1767.28	  408.51
     64.6700	  966.00	  996.94	-1847.20	  408.57
     64.7700	 1081.00	 1074.10	-1809.35	  408.63
     64.8700	 1189.00	 1136.83	-1764.08	  408.69
     64.9700	 1253.00	 1174.05	-1737.31	  408.76
     65.0700	 1192.00	 1179.13	-1803.38	  408.82
     65.1700	 1184.00	 1151.87	-1784.13	  408.88
     65.2700	 1161.00	 1099.94	-1755.19	  408.94
     65.3700	 1006.00	 1033.24	-1843.50	  409.00
     65.4700	  895.00	  962.32	-1883.58	  409.06
     65.5700	  837.00	  894.96	-1874.21	  409.12
     65.6700	  831.00	  835.46	-1820.71	  409.18
     65.7700	  740.00	  784.75	-1861.01	  409.24
     65.8700	  674.00	  742.83	-1885.08	  409.31
     65.9700	  690.00	  709.04	-1835.29	  409.37
     66.0700	  631.00	  682.59	-1867.84	  409.43
     66.1700	  683.00	  662.51	-1795.76	  409.49
     66.2700	  653.00	  647.87	-1811.13	  409.55
     66.3700	  630.00	  637.48	-1823.73	  409.61
     66.4700	  595.00	  630.67	-1851.93	  409.67
     66.5700	  590.00	  626.89	-1853.15	  409.73
     66.6700	  592.00	  625.87	-1850.13	  409.79
     66.7700	  601.00	  627.34	-1842.59	  409.85
     66.8700	  663.00	  631.33	-1784.59	  409.91
     66.9700	  664.00	  638.37	-1790.62	  409.97
     67.0700	  671.00	  649.44	-1794.69	  410.03
     67.1700	  635.00	  666.31	-1847.56	  410.09
     67.2700	  694.00	  691.80	-1814.06	  410.15
     67.3700	  738.00	  730.00	-1808.26	  410.21
     67.4700	  874.00	  786.26	-1728.51	  410.27
     67.5700	  937.00	  866.82	-1746.08	  410.33
     67.6700	  918.00	  978.02	-1876.28	  410.39
     67.7700	 1068.00	 1124.79	-1873.05	  410.45
     67.8700	 1358.00	 1308.79	-1767.04	  410.51
     67.9700	 1534.00	 1526.41	-1808.67	  410.56
     68.0700	 1792.00	 1766.98	-1791.23	  410.62
     68.1700	 2000.00	 2010.93	-1827.19	  410.68
     68.2700	 2287.00	 2229.02	-1758.27	  410.74
     68.3700	 2312.00	 2384.22	-1888.48	  410.79
     68.4700	 2459.00	 2441.86	-1799.12	  410.85
     68.5700	 2327.00	 2386.96	-1876.21	  410.91
     68.6700	 2144.00	 2233.82	-1906.08	  410.96
     68.7700	 2003.00	 2016.81	-1830.06	  411.02
     68.8700	 1729.00	 1773.13	-1860.38	  411.07
     68.9700	 1509.00	 1532.32	-1839.58	  411.13
     69.0700	 1303.00	 1314.17	-1827.42	  411.18
     69.1700	 1098.00	 1129.52	-1847.78	  411.24
     69.2700	  922.00	  982.03	-1876.29	  411.29
     69.3700	  892.00	  870.17	-1794.43	  411.34
     69.4700	  809.00	  789.05	-1796.31	  411.40
     69.5700	  755.00	  732.37	-1793.63	  411.45
     69.6700	  724.00	  693.80	-1786.05	  411.50
     69.7700	  711.00	  667.91	-1773.16	  411.55
     69.8700	  622.00	  650.55	-1844.80	  411.60
     69.9700	  635.00	  638.76	-1820.02	  411.65
     70.0700	  649.00	  630.64	-1797.90	  411.70
     70.1700	  586.00	  625.00	-1855.26	  411.75
     70.2700	  630.00	  621.16	-1807.42	  411.80
     70.3700	  594.00	  618.71	-1840.97	  411.85
     70.4700	  600.00	  617.50	-1833.76	  411.89
     70.5700	  605.00	  617.49	-1828.75	  411.94
     70.6700	  657.00	  618.59	-1777.85	  411.99
     70.7700	  645.00	  621.46	-1792.72	  412.03
     70.8700	  621.00	  626.39	-1821.65	  412.08
     70.9700	  613.00	  635.18	-1838.44	  412.12
     71.0700	  681.00	  647.29	-1782.55	  412.17
     71.1700	  660.00	  665.61	-1821.87	  412.21
     71.2700	  714.00	  692.82	-1795.07	  412.26
     71.3700	  746.00	  732.27	-1802.53	  412.30
     71.4700	  789.00	  787.77	-1815.03	  412.34
     71.5700	  814.00	  863.08	-1865.33	  412.38
     71.6700	  945.00	  961.10	-1832.35	  412.42
     71.7700	 1066.00	 1082.96	-1833.22	  412.46
     71.8700	 1207.00	 1226.96	-1836.21	  412.50
     71.9700	 1394.00	 1387.50	-1809.75	  412.54
     72.0700	 1511.00	 1554.33	-1859.58	  412.57
     72.1700	 1732.00	 1711.83	-1796.08	  412.61
     72.2700	 1854.00	 1839.40	-1801.66	  412.65
     72.3700	 1903.00	 1914.72	-1827.97	  412.68
     72.4700	 1863.00	 1921.48	-1874.74	  412.72
     72.5700	 1897.00	 1858.05	-1777.31	  412.75
     72.6700	 1704.00	 1738.40	-1850.66	  412.78
     72.7700	 1548.00	 1584.44	-1852.69	  412.82
     72.8700	 1524.00	 1417.47	-1709.72	  412.85
     72.9700	 1298.00	 1254.12	-1772.38	  412.88
     73.0700	 1169.00	 1105.60	-1752.86	  412.91
     73.1700	  986.00	  978.28	-1808.53	  412.94
     73.2700	  920.00	  874.49	-1770.75	  412.97
     73.3700	  824.00	  793.58	-1785.83	  412.99
     73.4700	  771.00	  732.93	-1778.19	  413.02
     73.5700	  723.00	  688.95	-1782.20	  413.04
     73.6700	  716.00	  657.83	-1758.09	  413.07
     73.7700	  668.00	  636.17	-1784.42	  413.09
     73.8700	  605.00	  621.18	-1832.43	  413.12
     73.9700	  640.00	  610.82	-1787.07	  413.14
     74.0700	  600.00	  603.67	-1819.92	  413.16
     74.1700	  641.00	  598.81	-1774.06	  413.18
     74.2700	  642.00	  595.65	-1769.90	  413.20
     74.3700	  629.00	  593.27	-1780.52	  413.22
     74.4700	  640.00	  592.47	-1768.72	  413.24
     74.5700	  665.00	  592.47	-1743.72	  413.25
     74.6700	  644.00	  593.00	-1765.25	  413.27
     74.7700	  658.00	  593.76	-1752.01	  413.28
     74.8700	  629.00	  594.38	-1781.64	  413.30
     74.9700	  655.00	  594.52	-1755.77	  413.31
     75.0700	  724.00	  593.88	-1686.14	  413.32
     75.1700	  676.00	  592.44	-1732.69	  413.33
     75.2700	  637.00	  590.41	-1769.67	  413.34
     75.3700	  678.00	  588.22	-1726.48	  413.35
     75.4700	  672.00	  586.37	-1730.63	  413.36
     75.5700	  676.00	  585.37	-1725.63	  413.36
     75.6700	  640.00	  585.77	-1762.03	  413.37
     75.7700	  605.00	  588.13	-1799.38	  413.37
     75.8700	  656.00	  592.98	-1753.24	  413.38
     75.9700	  621.00	  601.05	-1796.31	  413.38
     76.0700	  632.00	  612.82	-1797.07	  413.38
     76.1700	  663.00	  628.66	-1781.92	  413.38
     76.2700	  671.00	  648.72	-1793.98	  413.38
     76.3700	  721.00	  672.72	-1767.98	  413.38
     76.4700	  735.00	  699.88	-1781.13	  413.37
     76.5700	  743.00	  728.68	-1801.94	  413.37
     76.6700	  759.00	  757.20	-1814.46	  413.36
     76.7700	  748.00	  782.49	-1850.75	  413.36
     76.8700	  784.00	  801.18	-1833.44	  413.35
     76.9700	  801.00	  810.08	-1825.34	  413.34
     77.0700	  811.00	  807.40	-1812.65	  413.33
     77.1700	  805.00	  793.60	-1804.85	  413.32
     77.2700	  729.00	  771.17	-1858.42	  413.31
     77.3700	  735.00	  743.47	-1824.73	  413.29
     77.4700	  664.00	  713.72	-1865.97	  413.28
     77.5700	  671.00	  684.44	-1829.69	  413.26
     77.6700	  641.00	  657.43	-1832.68	  413.24
     77.7700	  631.00	  633.78	-1819.03	  413.23
     77.8700	  601.00	  614.00	-1829.25	  413.21
     77.9700	  610.00	  598.12	-1804.37	  413.19
     78.0700	  579.00	  585.84	-1823.09	  413.16
     78.1700	  619.00	  576.65	-1773.90	  413.14
     78.2700	  537.00	  569.96	-1849.21	  413.12
     78.3700	  560.00	  564.97	-1821.23	  413.09
     78.4700	  581.00	  561.58	-1796.83	  413.06
     78.5700	  594.00	  559.25	-1781.51	  413.04
     78.6700	  549.00	  557.65	-1824.90	  413.01
     78.7700	  568.00	  556.55	-1804.80	  412.98
     78.8700	  536.00	  555.82	-1836.07	  412.94
     78.9700	  548.00	  555.37	-1823.62	  412.91
     79.0700	  566.00	  555.16	-1805.41	  412.87
     79.1700	  585.00	  555.17	-1786.42	  412.84
     79.2700	  575.00	  555.40	-1796.66	  412.80
     79.3700	  542.00	  555.89	-1830.14	  412.76
     79.4700	  584.00	  556.65	-1788.90	  412.72
     79.5700	  587.00	  557.74	-1786.99	  412.68
     79.6700	  571.00	  559.23	-1804.49	  412.64
     79.7700	  570.00	  561.23	-1807.49	  412.60
     79.8700	  585.00	  563.88	-1795.13	  412.55
     79.9700	  568.00	  567.37	-1815.62	  412.50
     80.0700	  540.00	  571.96	-1848.22	  412.46
     80.1700	  549.00	  578.00	-1845.25	  412.41
     80.2700	  604.00	  585.90	-1798.15	  412.36
     80.3700	  583.00	  596.14	-1829.39	  412.30
     80.4700	  616.00	  609.23	-1809.49	  412.25
     80.5700	  606.00	  625.71	-1835.96	  412.20
     80.6700	  671.00	  646.02	-1791.28	  412.14
     80.7700	  635.00	  670.49	-1851.74	  412.08
     80.8700	  702.00	  699.09	-1813.34	  412.02
     80.9700	  744.00	  731.17	-1803.43	  411.96
     81.0700	  794.00	  766.13	-1788.39	  411.90
     81.1700	  793.00	  802.10	-1825.35	  411.84
     81.2700	  849.00	  836.84	-1804.10	  411.77
     81.3700	  915.00	  867.83	-1769.09	  411.71
     81.4700	  828.00	  892.78	-1881.04	  411.64
     81.5700	  866.00	  910.14	-1860.39	  411.57
     81.6700	  931.00	  919.19	-1804.44	  411.50
     81.7700	  865.00	  919.96	-1871.22	  411.43
     81.8700	  896.00	  913.08	-1833.34	  411.36
     81.9700	  906.00	  899.63	-1809.89	  411.28
     82.0700	  876.00	  880.91	-1821.16	  411.21
     82.1700	  826.00	  858.17	-1848.43	  411.13
     82.2700	  777.00	  832.70	-1871.95	  411.05
     82.3700	  839.00	  805.84	-1783.10	  410.97
     82.4700	  773.00	  778.90	-1822.15	  410.89
     82.5700	  728.00	  752.85	-1841.10	  410.80
     82.6700	  687.00	  728.20	-1857.46	  410.72
     82.7700	  678.00	  705.12	-1843.38	  410.63
     82.8700	  645.00	  683.64	-1854.89	  410.55
     82.9700	  643.00	  663.88	-1837.14	  410.46
     83.0700	  618.00	  646.11	-1844.37	  410.37
     83.1700	  590.00	  630.61	-1856.87	  410.27
     83.2700	  602.00	  617.62	-1831.88	  410.18
     83.3700	  614.00	  607.27	-1809.53	  410.09
     83.4700	  573.00	  599.61	-1842.86	  409.99
     83.5700	  556.00	  594.57	-1854.83	  409.89
     83.6700	  588.00	  592.01	-1820.27	  409.79
     83.7700	  625.00	  591.68	-1782.94	  409.69
     83.8700	  587.00	  593.23	-1822.49	  409.59
     83.9700	  544.00	  596.21	-1868.47	  409.49
     84.0700	  589.00	  600.06	-1827.32	  409.38
     84.1700	  579.00	  604.16	-1841.41	  409.27
     84.2700	  594.00	  607.78	-1830.04	  409.17
     84.3700	  598.00	  610.21	-1828.47	  409.06
     84.4700	  606.00	  610.86	-1821.11	  408.94
     84.5700	  607.00	  609.25	-1818.51	  408.83
     84.6700	  590.00	  605.76	-1832.02	  408.72
     84.7700	  588.00	  600.63	-1828.88	  408.60
     84.8700	  533.00	  594.41	-1877.67	  408.48
     84.9700	  542.00	  587.69	-1861.95	  408.36
     85.0700	  586.00	  580.97	-1811.23	  408.24
     85.1700	  581.00	  574.64	-1809.90	  408.12
     85.2700	  559.00	  569.01	-1826.26	  408.00
     85.3700	  585.00	  564.26	-1795.51	  407.87
     85.4700	  573.00	  560.50	-1803.76	  407.75
     85.5700	  560.00	  557.79	-1814.04	  407.62
     85.6700	  569.00	  556.10	-1803.36	  407.49
     85.7700	  603.00	  555.42	-1768.67	  407.36
     85.8700	  558.00	  555.68	-1813.94	  407.23
     85.9700	  546.00	  556.85	-1827.11	  407.09
     86.0700	  562.00	  558.88	-1813.14	  406.96
     86.1700	  553.00	  561.73	-1824.99	  406.82
     86.2700	  559.00	  565.35	-1822.60	  406.68
     86.3700	  542.00	  569.74	-1843.99	  406.54
     86.4700	  615.00	  574.84	-1776.10	  406.40
     86.5700	  588.00	  580.62	-1808.87	  406.26
     86.6700	  578.00	  587.01	-1825.27	  406.11
     86.7700	  566.00	  593.95	-1844.20	  405.97
     86.8700	  589.00	  601.39	-1828.64	  405.82
     86.9700	  613.00	  609.34	-1812.59	  405.67
     87.0700	  602.00	  617.88	-1832.13	  405.52
     87.1700	  581.00	  627.12	-1862.37	  405.37
     87.2700	  584.00	  637.11	-1869.36	  405.22
     87.3700	  659.00	  647.75	-1805.01	  405.06
     87.4700	  647.00	  658.75	-1828.01	  404.91
     87.5700	  655.00	  669.57	-1830.82	  404.75
     87.6700	  617.00	  679.43	-1878.69	  404.59
     87.7700	  639.00	  687.40	-1864.66	  404.43
     87.8700	  708.00	  692.48	-1800.74	  404.27
     87.9700	  658.00	  693.89	-1852.15	  404.10
     88.0700	  646.00	  691.30	-1861.55	  403.94
     88.1700	  632.00	  684.94	-1869.19	  403.77
     88.2700	  659.00	  675.54	-1832.80	  403.60
     88.3700	  627.00	  664.09	-1853.34	  403.43
     88.4700	  638.00	  651.59	-1829.84	  403.26
     88.5700	  615.00	  638.99	-1840.24	  403.09
     88.6700	  639.00	  627.10	-1804.35	  402.92
     88.7700	  606.00	  616.55	-1826.81	  402.74
     88.8700	  605.00	  607.81	-1819.06	  402.56
     88.9700	  625.00	  601.14	-1792.40	  402.39
     89.0700	  598.00	  596.21	-1814.47	  402.21
     89.1700	  610.00	  593.83	-1800.08	  402.02
     89.2700	  569.00	  593.31	-1840.57	  401.84
     89.3700	  638.00	  594.33	-1772.59	  401.66
     89.4700	  628.00	  596.44	-1784.69	  401.47
     89.5700	  648.00	  599.10	-1767.35	  401.29
     89.6700	  621.00	  601.73	-1796.99	  401.10
     89.7700	  680.00	  603.75	-1740.01	  400.91
     89.8700	  629.00	  604.63	-1791.89	  400.72
     89.9700	  637.00	  604.02	-1783.27	  400.52
     90.0700	  630.00	  601.79	-1788.05	  400.33
     90.1700	  666.00	  598.10	-1748.36	  400.14
     90.2700	  610.00	  593.28	-1799.54	  399.94
     90.3700	  594.00	  587.73	-1809.98	  399.74
     90.4700	  542.00	  581.85	-1856.10	  399.54
     90.5700	  590.00	  575.98	-1802.24	  399.34
     90.6700	  575.00	  570.41	-1811.66	  399.14
     90.7700	  572.00	  565.33	-1809.58	  398.94
     90.8700	  507.00	  560.88	-1870.13	  398.73
     90.9700	  574.00	  557.13	-1799.39	  398.52
     91.0700	  598.00	  554.12	-1772.37	  398.32
     91.1700	  529.00	  551.81	-1839.06	  398.11
     91.2700	  559.00	  550.17	-1807.43	  397.90
     91.3700	  582.00	  549.16	-1783.42	  397.69
     91.4700	  576.00	  548.72	-1788.98	  397.47
     91.5700	  532.00	  548.83	-1833.09	  397.26
     91.6700	  515.00	  549.48	-1850.74	  397.04
     91.7700	  587.00	  550.72	-1779.97	  396.83
     91.8700	  546.00	  552.59	-1822.85	  396.61
     91.9700	  540.00	  555.23	-1831.48	  396.39
     92.0700	  554.00	  558.76	-1821.02	  396.17
     92.1700	  564.00	  563.38	-1815.64	  395.95
     92.2700	  542.00	  569.29	-1843.55	  395.73
     92.3700	  574.00	  576.70	-1818.96	  395.50
     92.4700	  547.00	  585.83	-1855.09	  395.28
     92.5700	  584.00	  596.85	-1829.10	  395.05
     92.6700	  623.00	  609.88	-1803.14	  394.82
     92.7700	  611.00	  624.99	-1830.24	  394.59
     92.8700	  591.00	  642.11	-1867.36	  394.36
     92.9700	  637.00	  661.08	-1840.34	  394.13
     93.0700	  622.00	  681.60	-1875.85	  393.90
     93.1700	  666.00	  703.21	-1853.46	  393.67
     93.2700	  731.00	  725.28	-1810.54	  393.43
     93.3700	  697.00	  747.09	-1866.34	  393.20
     93.4700	  780.00	  767.78	-1804.04	  392.96
     93.5700	  754.00	  786.62	-1848.87	  392.72
     93.6700	  710.00	  803.10	-1909.36	  392.48
     93.7700	  766.00	  817.15	-1867.41	  392.24
     93.8700	  735.00	  829.08	-1910.34	  392.00
     93.9700	  824.00	  839.45	-1831.70	  391.76
     94.0700	  782.00	  848.83	-1883.08	  391.51
     94.1700	  851.00	  857.67	-1822.93	  391.27
     94.2700	  821.00	  866.24	-1861.50	  391.02
     94.3700	  866.00	  874.66	-1824.92	  390.78
     94.4700	  842.00	  882.74	-1857.00	  390.53
     94.5700	  924.00	  891.29	-1783.55	  390.28
     94.6700	  872.00	  900.25	-1844.51	  390.03
     94.7700	  914.00	  909.77	-1812.02	  389.78
     94.8700	  953.00	  919.75	-1783.00	  389.53
     94.9700	  962.00	  929.73	-1783.99	  389.28
     95.0700	  967.00	  938.86	-1788.12	  389.02
     95.1700	  963.00	  945.91	-1799.17	  388.77
     95.2700	  941.00	  949.45	-1824.71	  388.51
     95.3700	  941.00	  948.13	-1823.39	  388.26
     95.4700	  950.00	  941.02	-1807.27	  388.00
     95.5700	  911.00	  927.91	-1833.16	  387.74
     95.6700	  949.00	  909.41	-1776.67	  387.48
     95.7700	  887.00	  886.80	-1816.06	  387.22
     95.8700	  865.00	  861.74	-1812.99	  386.96
     95.9700	  888.00	  836.02	-1764.28	  386.70
     96.0700	  865.00	  811.41	-1762.67	  386.44
     96.1700	  810.00	  789.57	-1795.82	  386.17
     96.2700	  748.00	  772.00	-1840.26	  385.91
     96.3700	  758.00	  760.06	-1818.31	  385.65
     96.4700	  712.00	  754.91	-1859.17	  385.38
     96.5700	  744.00	  757.56	-1829.82	  385.11
     96.6700	  754.00	  768.81	-1831.06	  384.85
     96.7700	  834.00	  789.26	-1771.51	  384.58
     96.8700	  817.00	  819.28	-1818.54	  384.31
     96.9700	  866.00	  858.98	-1809.24	  384.04
     97.0700	  937.00	  908.12	-1787.38	  383.77
     97.1700	  937.00	  966.09	-1845.35	  383.50
     97.2700	  996.00	 1031.80	-1852.06	  383.23
     97.3700	 1117.00	 1103.68	-1802.93	  382.96
     97.4700	 1175.00	 1179.55	-1820.80	  382.69
     97.5700	 1280.00	 1256.68	-1792.94	  382.41
     97.6700	 1275.00	 1331.72	-1872.98	  382.14
     97.7700	 1421.00	 1400.76	-1796.02	  381.87
     97.8700	 1413.00	 1459.59	-1862.85	  381.59
     97.9700	 1502.00	 1504.03	-1818.28	  381.32
     98.0700	 1526.00	 1530.63	-1820.88	  381.04
     98.1700	 1535.00	 1537.34	-1818.60	  380.77
     98.2700	 1486.00	 1524.03	-1854.29	  380.49
     98.3700	 1445.00	 1492.45	-1863.71	  380.21
     98.4700	 1390.00	 1445.77	-1872.03	  379.94
     98.5700	 1452.00	 1387.90	-1752.15	  379.66
     98.6700	 1256.00	 1322.92	-1883.18	  379.38
     98.7700	 1252.00	 1254.77	-1819.03	  379.10
     98.8700	 1220.00	 1186.95	-1783.21	  378.82
     98.9700	 1096.00	 1122.54	-1842.79	  378.54
     99.0700	 1012.00	 1064.11	-1868.36	  378.26
     99.1700	  965.00	 1013.80	-1865.06	  377.98
     99.2700	  974.00	  973.37	-1815.63	  377.70
     99.3700	  976.00	  944.18	-1784.43	  377.42
     99.4700	  936.00	  927.25	-1807.50	  377.14
     99.5700	  966.00	  923.29	-1773.55	  376.86
     99.6700	  936.00	  932.73	-1812.99	  376.58
     99.7700	  937.00	  955.71	-1834.97	  376.30
     99.8700	  977.00	  992.12	-1831.37	  376.02
     99.9700	 1003.00	 1041.53	-1854.79	  375.74
    100.0700	 1093.00	 1103.22	-1826.48	  375.46
    100.1700	 1214.00	 1176.09	-1778.35	  375.17
    100.2700	 1257.00	 1258.67	-1817.92	  374.89
    100.3700	 1396.00	 1348.99	-1769.24	  374.61
    100.4700	 1416.00	 1444.56	-1844.81	  374.33
    100.5700	 1564.00	 1542.37	-1794.62	  374.05
    100.6700	 1649.00	 1638.95	-1806.21	  373.76
    100.7700	 1698.00	 1730.56	-1848.81	  373.48
    100.8700	 1789.00	 1813.73	-1840.98	  373.20
    100.9700	 1934.00	 1885.29	-1767.55	  372.92
    101.0700	 2035.00	 1942.93	-1724.19	  372.64
    101.1700	 1968.00	 1985.13	-1833.38	  372.36
    101.2700	 2080.00	 2010.96	-1747.21	  372.08
    101.3700	 2056.00	 2019.84	-1780.10	  371.79
    101.4700	 2025.00	 2011.46	-1802.71	  371.51
    101.5700	 2042.00	 1985.96	-1760.22	  371.23
    101.6700	 1998.00	 1944.35	-1762.61	  370.95
    101.7700	 1983.00	 1888.71	-1721.97	  370.67
    101.8700	 1883.00	 1822.20	-1755.45	  370.39
    101.9700	 1755.00	 1748.68	-1809.93	  370.11
    102.0700	 1714.00	 1672.22	-1774.48	  369.83
    102.1700	 1574.00	 1596.58	-1838.83	  369.55
    102.2700	 1542.00	 1524.82	-1799.08	  369.28
    102.3700	 1410.00	 1459.22	-1865.48	  369.00
    102.4700	 1459.00	 1401.23	-1758.49	  368.72
    102.5700	 1343.00	 1351.47	-1824.73	  368.44
    102.6700	 1281.00	 1309.84	-1845.10	  368.17
    102.7700	 1245.00	 1275.52	-1846.77	  367.89
    102.8700	 1230.00	 1247.09	-1833.34	  367.61
    102.9700	 1164.00	 1222.72	-1874.97	  367.34
    103.0700	 1131.00	 1200.28	-1885.53	  367.06
    103.1700	 1169.00	 1177.64	-1824.89	  366.79
    103.2700	 1162.00	 1152.92	-1807.17	  366.52
    103.3700	 1132.00	 1124.82	-1809.07	  366.25
    103.4700	 1044.00	 1092.76	-1865.01	  365.97
    103.5700	 1004.00	 1056.86	-1869.12	  365.70
    103.6700	 1012.00	 1017.79	-1822.05	  365.43
    103.7700	  984.00	  976.51	-1808.77	  365.16
    103.8700	  949.00	  934.13	-1801.39	  364.89
    103.9700	  909.00	  891.72	-1798.97	  364.63
    104.0700	  904.00	  850.23	-1762.49	  364.36
    104.1700	  750.00	  810.51	-1876.77	  364.09
    104.2700	  804.00	  773.22	-1785.48	  363.83
    104.3700	  781.00	  738.87	-1774.12	  363.56
    104.4700	  749.00	  707.80	-1775.06	  363.30
    104.5700	  757.00	  680.19	-1739.44	  363.04
    104.6700	  691.00	  656.06	-1781.32	  362.78
    104.7700	  655.00	  635.34	-1796.60	  362.52
    104.8700	  680.00	  617.85	-1754.10	  362.26
    104.9700	  639.00	  603.32	-1780.57	  362.00
    105.0700	  631.00	  591.46	-1776.72	  361.74
    105.1700	  660.00	  581.96	-1738.22	  361.49
    105.2700	  606.00	  574.53	-1784.78	  361.23
    105.3700	  622.00	  568.87	-1763.12	  360.98
    105.4700	  573.00	  564.74	-1807.99	  360.73
    105.5700	  618.00	  561.94	-1760.20	  360.48
    105.6700	  566.00	  560.31	-1810.57	  360.23
    105.7700	  590.00	  559.74	-1785.99	  359.98
    105.8700	  621.00	  560.15	-1755.41	  359.74
    105.9700	  571.00	  561.49	-1806.75	  359.49
    106.0700	  607.00	  563.82	-1773.08	  359.25
    106.1700	  572.00	  567.13	-1811.38	  359.01
    106.2700	  645.00	  571.46	-1742.71	  358.77
    106.3700	  594.00	  576.88	-1799.13	  358.53
    106.4700	  599.00	  583.44	-1800.69	  358.29
    106.5700	  597.00	  591.16	-1810.41	  358.05
    106.6700	  662.00	  600.11	-1754.37	  357.82
    106.7700	  607.00	  610.27	-1819.52	  357.59
    106.8700	  652.00	  621.56	-1785.81	  357.36
    106.9700	  641.00	  633.86	-1809.11	  357.13
    107.0700	  652.00	  647.00	-1811.26	  356.90
    107.1700	  630.00	  660.75	-1847.00	  356.68
    107.2700	  633.00	  674.80	-1858.05	  356.46
    107.3700	  663.00	  688.79	-1842.05	  356.24
    107.4700	  679.00	  702.32	-1839.57	  356.02
    107.5700	  716.00	  714.92	-1815.18	  355.80
    107.6700	  684.00	  726.15	-1858.41	  355.58
    107.7700	  721.00	  735.58	-1830.84	  355.37
    107.8700	  706.00	  742.88	-1853.14	  355.16
    107.9700	  763.00	  747.89	-1801.15	  354.95
    108.0700	  743.00	  750.62	-1823.88	  354.75
    108.1700	  759.00	  751.28	-1808.53	  354.54
    108.2700	  698.00	  750.31	-1868.57	  354.34
    108.3700	  727.00	  748.17	-1837.42	  354.14
    108.4700	  675.00	  745.36	-1886.61	  353.94
    108.5700	  706.00	  742.35	-1852.61	  353.75
    108.6700	  693.00	  739.54	-1862.80	  353.56
    108.7700	  748.00	  737.23	-1805.49	  353.37
    108.8700	  756.00	  735.59	-1795.85	  353.18
    108.9700	  725.00	  734.70	-1825.95	  352.99
    109.0700	  721.00	  734.49	-1829.74	  352.81
    109.1700	  688.00	  734.79	-1863.05	  352.63
    109.2700	  712.00	  735.34	-1839.60	  352.45
    109.3700	  707.00	  735.77	-1845.02	  352.28
    109.4700	  689.00	  735.65	-1862.91	  352.11
    109.5700	  772.00	  734.58	-1778.83	  351.94
    109.6700	  749.00	  732.16	-1799.41	  351.77
    109.7700	  724.00	  728.12	-1820.38	  351.61
    109.8700	  707.00	  722.34	-1831.60	  351.45
    109.9700	  717.00	  714.84	-1814.10	  351.29
    110.0700	  649.00	  705.80	-1873.06	  351.14
    110.1700	  689.00	  695.50	-1822.76	  350.99
    110.2700	  680.00	  684.26	-1820.52	  350.84
    110.3700	  731.00	  672.45	-1757.71	  350.69
    110.4700	  667.00	  660.40	-1809.66	  350.55
    110.5700	  675.00	  648.43	-1789.69	  350.41
    110.6700	  626.00	  636.81	-1827.07	  350.27
    110.7700	  644.00	  625.77	-1798.02	  350.14
    110.8700	  581.00	  615.51	-1850.76	  350.01
    110.9700	  645.00	  606.17	-1777.42	  349.89
    111.0700	  629.00	  597.85	-1785.11	  349.76
    111.1700	  601.00	  590.62	-1805.88	  349.64
    111.2700	  584.00	  584.50	-1816.75	  349.53
    111.3700	  579.00	  579.48	-1816.73	  349.42
    111.4700	  583.00	  575.52	-1808.78	  349.31
    111.5700	  590.00	  572.57	-1798.83	  349.20
    111.6700	  574.00	  570.55	-1812.80	  349.10
    111.7700	  583.00	  569.36	-1802.62	  349.01
    111.8700	  568.00	  568.92	-1817.18	  348.91
    111.9700	  598.00	  569.13	-1787.39	  348.82
    112.0700	  565.00	  569.89	-1821.15	  348.74
    112.1700	  578.00	  571.12	-1809.38	  348.65
    112.2700	  587.00	  572.73	-1801.99	  348.58
    112.3700	  582.00	  574.65	-1808.90	  348.50
    112.4700	  573.00	  576.80	-1820.06	  348.43
    112.5700	  557.00	  579.16	-1838.41	  348.36
    112.6700	  529.00	  581.68	-1868.94	  348.30
    112.7700	  591.00	  584.35	-1809.61	  348.24
    112.8700	  595.00	  587.19	-1808.44	  348.19
    112.9700	  592.00	  590.20	-1814.46	  348.14
    113.0700	  636.00	  593.44	-1773.69	  348.10
    113.1700	  588.00	  596.95	-1825.21	  348.06
    113.2700	  550.00	  600.82	-1867.07	  348.02
    113.3700	  567.00	  605.11	-1854.36	  347.99
    113.4700	  606.00	  609.94	-1820.19	  347.96
    113.5700	  589.00	  615.42	-1842.68	  347.94
    113.6700	  567.00	  621.72	-1870.97	  347.92
    113.7700	  627.00	  629.03	-1818.28	  347.91
    113.8700	  623.00	  637.59	-1830.85	  347.90
    113.9700	  634.00	  647.71	-1829.97	  347.90
    114.0700	  671.00	  659.78	-1805.04	  347.90
    114.1700	  643.00	  674.29	-1847.54	  347.90
    114.2700	  662.00	  691.81	-1846.07	  347.91
    114.3700	  702.00	  713.12	-1827.37	  347.93
    114.4700	  713.00	  739.08	-1842.34	  347.95
    114.5700	  765.00	  770.77	-1822.03	  347.98
    114.6700	  802.00	  809.45	-1823.71	  348.01
    114.7700	  838.00	  856.59	-1834.85	  348.04
    114.8700	  857.00	  913.85	-1873.11	  348.08
    114.9700	  958.00	  983.09	-1841.35	  348.13
    115.0700	 1087.00	 1066.33	-1795.58	  348.18
    115.1700	 1162.00	 1165.73	-1819.99	  348.24
    115.2700	 1310.00	 1283.55	-1789.81	  348.30
    115.3700	 1521.00	 1422.01	-1717.27	  348.37
    115.4700	 1658.00	 1583.24	-1741.50	  348.45
    115.5700	 1846.00	 1769.13	-1739.38	  348.53
    115.6700	 2135.00	 1981.27	-1662.53	  348.61
    115.7700	 2389.00	 2220.80	-1648.06	  348.70
    115.8700	 2568.00	 2488.16	-1736.41	  348.80
    115.9700	 2849.00	 2783.05	-1750.31	  348.90
    116.0700	 3103.00	 3104.26	-1817.51	  349.01
    116.1700	 3517.00	 3449.64	-1748.89	  349.13
    116.2700	 3914.00	 3815.99	-1718.24	  349.25
    116.3700	 4209.00	 4198.87	-1806.12	  349.37
    116.4700	 4619.00	 4592.72	-1789.97	  349.51
    116.5700	 5005.00	 4990.73	-1801.99	  349.65
    116.6700	 5451.00	 5385.21	-1750.46	  349.79
    116.7700	 5704.00	 5767.31	-1879.57	  349.94
    116.8700	 6090.00	 6127.26	-1853.51	  350.10
    116.9700	 6379.00	 6454.70	-1891.96	  350.27
    117.0700	 6596.00	 6739.04	-1959.30	  350.44
    117.1700	 6858.00	 6970.17	-1928.43	  350.61
    117.2700	 6980.00	 7139.09	-1975.34	  350.80
    117.3700	 7193.00	 7238.76	-1862.01	  350.99
    117.4700	 7204.00	 7265.02	-1877.28	  351.19
    117.5700	 7114.00	 7217.09	-1919.35	  351.39
    117.6700	 7091.00	 7097.63	-1822.89	  351.60
    117.7700	 6900.00	 6912.37	-1828.63	  351.82
    117.8700	 6665.00	 6669.45	-1820.71	  352.05
    117.9700	 6096.00	 6378.53	-2098.78	  352.28
    118.0700	 5819.00	 6049.98	-2047.23	  352.52
    118.1700	 5661.00	 5694.08	-1849.34	  352.76
    118.2700	 5354.00	 5320.64	-1782.89	  353.02
    118.3700	 4987.00	 4938.74	-1768.00	  353.28
    118.4700	 4562.00	 4556.48	-1810.73	  353.54
    118.5700	 4467.00	 4180.86	-1530.12	  353.82
    118.6700	 4007.00	 3817.67	-1626.92	  354.10
    118.7700	 3488.00	 3471.50	-1799.76	  354.39
    118.8700	 3318.00	 3145.98	-1644.23	  354.69
    118.9700	 2985.00	 2843.59	-1674.85	  355.00
    119.0700	 2569.00	 2565.91	-1813.17	  355.31
    119.1700	 2364.00	 2313.57	-1765.83	  355.63
    119.2700	 2160.00	 2086.48	-1742.74	  355.96
    119.3700	 1918.00	 1884.05	-1782.30	  356.30
    119.4700	 1772.00	 1705.13	-1749.39	  356.64
    119.5700	 1533.00	 1548.28	-1831.54	  357.00
    119.6700	 1411.00	 1411.74	-1816.99	  357.36
    119.7700	 1351.00	 1293.61	-1758.87	  357.73
    119.8700	 1225.00	 1191.98	-1783.24	  358.10
    119.9700	 1177.00	 1104.94	-1744.19	  358.49
    120.0700	 1050.00	 1030.66	-1796.91	  358.88
    120.1700	  947.00	  967.41	-1836.67	  359.29
    120.2700	  922.00	  913.64	-1807.90	  359.70
    120.3700	  898.00	  867.97	-1786.22	  360.12
    120.4700	  880.00	  829.17	-1765.43	  360.55
    120.5700	  805.00	  796.21	-1807.47	  360.98
    120.6700	  776.00	  768.19	-1808.45	  361.43
    120.7700	  809.00	  744.36	-1751.62	  361.88
    120.8700	  722.00	  724.11	-1818.36	  362.35
    120.9700	  718.00	  706.90	-1805.16	  362.82
    121.0700	  657.00	  692.33	-1851.59	  363.30
    121.1700	  663.00	  680.05	-1833.31	  363.79
    121.2700	  636.00	  669.77	-1850.03	  364.29
    121.3700	  694.00	  661.26	-1783.51	  364.80
    121.4700	  636.00	  654.32	-1834.58	  365.32
    121.5700	  640.00	  648.81	-1825.07	  365.85
    121.6700	  661.00	  644.59	-1799.84	  366.39
    121.7700	  638.00	  641.54	-1819.79	  366.93
    121.8700	  600.00	  639.57	-1855.83	  367.49
    121.9700	  651.00	  638.60	-1803.86	  368.06
    122.0700	  588.00	  638.55	-1866.80	  368.63
    122.1700	  691.00	  639.34	-1764.60	  369.22
    122.2700	  641.00	  640.91	-1816.16	  369.82
    122.3700	  668.00	  643.17	-1791.43	  370.42
    122.4700	  628.00	  646.07	-1834.32	  371.04
    122.5700	  596.00	  649.51	-1869.76	  371.66
    122.6700	  650.00	  653.42	-1819.67	  372.30
    122.7700	  624.00	  657.70	-1849.95	  372.95
    122.8700	  667.00	  662.26	-1811.52	  373.61
    122.9700	  599.00	  667.00	-1884.25	  374.27
    123.0700	  665.00	  671.80	-1823.06	  374.95
    123.1700	  646.00	  676.56	-1846.82	  375.64
    123.2700	  705.00	  681.16	-1792.41	  376.34
    123.3700	  649.00	  685.47	-1852.73	  377.05
    123.4700	  724.00	  689.40	-1781.65	  377.77
    123.5700	  684.00	  692.83	-1825.08	  378.50
    123.6700	  696.00	  695.69	-1815.94	  379.25
    123.7700	  711.00	  697.92	-1803.17	  380.00
    123.8700	  726.00	  699.49	-1789.74	  380.77
    123.9700	  720.00	  700.40	-1796.66	  381.54
    124.0700	  746.00	  700.68	-1770.94	  382.33
    124.1700	  700.00	  700.38	-1816.64	  383.13
    124.2700	  670.00	  699.57	-1845.82	  383.94
    124.3700	  727.00	  698.30	-1787.56	  384.76
    124.4700	  707.00	  696.67	-1805.93	  385.59
    124.5700	  701.00	  694.72	-1809.98	  386.44
    124.6700	  647.00	  692.57	-1861.83	  387.30
    124.7700	  617.00	  690.27	-1889.53	  388.17
    124.8700	  711.00	  687.87	-1793.12	  389.05
    124.9700	  673.00	  505.91	-1649.16	  389.94
    125.0700	  629.00	  506.81	-1816.26	  390.85
    125.1700	  662.00	  507.73	-1816.26	  391.76
    125.2700	  659.00	  508.66	-1816.26	  392.69
    125.3700	  655.00	  509.60	-1816.26	  393.64
    125.4700	  630.00	  510.55	-1816.26	  394.59
    125.5700	  675.00	  511.52	-1816.26	  395.56
    125.6700	  615.00	  512.50	-1816.26	  396.54
    125.7700	  640.00	  513.49	-1816.26	  397.53
    125.8700	  617.00	  514.50	-1816.26	  398.53
    125.9700	  629.00	  515.52	-1816.26	  399.55
    126.0700	  638.00	  516.55	-1816.26	  400.58
    126.1700	  641.00	  517.59	-1816.26	  401.63
    126.2700	  640.00	  518.65	-1816.26	  402.68
    126.3700	  637.00	  519.72	-1816.26	  403.75
    126.4700	  663.00	  520.80	-1816.26	  404.84
    126.5700	  634.00	  521.90	-1816.26	  405.93
    126.6700	  591.00	  523.01	-1816.26	  407.04
    126.7700	  673.00	  524.13	-1816.26	  408.17
    126.8700	  617.00	  525.27	-1816.26	  409.31
    126.9700	  551.00	  526.42	-1816.26	  410.46
    127.0700	  585.00	  527.59	-1816.26	  411.62
    127.1700	  606.00	  528.77	-1816.26	  412.80
    127.2700	  563.00	  529.96	-1816.26	  413.99
    127.3700	  619.00	  531.17	-1816.26	  415.20
    127.4700	  566.00	  532.39	-1816.26	  416.42
    127.5700	  586.00	  533.62	-1816.26	  417.66
    127.6700	  573.00	  534.87	-1816.26	  418.91
    127.7700	  575.00	  536.14	-1816.26	  420.17
    127.8700	  654.00	  537.41	-1816.26	  421.45
    127.9700	  598.00	  538.71	-1816.26	  422.74
    128.0700	  624.00	  540.02	-1816.26	  424.05
    128.1700	  607.00	  541.34	-1816.26	  425.37
    128.2700	  644.00	  542.68	-1816.26	  426.71
    128.3700	  673.00	  544.03	-1816.26	  428.06
    128.4700	  677.00	  545.40	-1816.26	  429.43
    128.5700	    0.00	  546.78	-1816.26	  430.82
    128.6700	    0.00	  548.18	-1816.26	  432.21
     12.3770	        	        	        	        	       0	(  0  0  2)	  0  1
     12.3770	        	        	        	        	    -454	(  0  0  2)	  0  1
     25.0179	        	        	        	        	       0	(  0  0  4)	  0  1
     25.0179	        	        	        	        	    -454	(  0  0  4)	  0  1
     28.4665	        	        	        	        	       0	(  1  0  0)	  0  1
     28.4665	        	        	        	        	    -454	(  1  0  0)	  0  1
     29.1673	        	        	        	        	       0	(  1  0  1)	  0  1
     29.1673	        	        	        	        	    -454	(  1  0  1)	  0  1
     31.1836	        	        	        	        	       0	(  1  0  2)	  0  1
     31.1836	        	        	        	        	    -454	(  1  0  2)	  0  1
     34.3077	        	        	        	        	       0	(  1  0  3)	  0  1
     34.3077	        	        	        	        	    -454	(  1  0  3)	  0  1
     37.9793	        	        	        	        	       0	(  0  0  6)	  0  1
     37.9793	        	        	        	        	    -454	(  0  0  6)	  0  1
     38.3051	        	        	        	        	       0	(  1  0  4)	  0  1
     38.3051	        	        	        	        	    -454	(  1  0  4)	  0  1
     42.9795	        	        	        	        	       0	(  1  0  5)	  0  1
     42.9795	        	        	        	        	    -454	(  1  0  5)	  0  1
     48.1912	        	        	        	        	       0	(  1  0  6)	  0  1
     48.1912	        	        	        	        	    -454	(  1  0  6)	  0  1
     50.5064	        	        	        	        	       0	(  1  1  0)	  0  1
     50.5064	        	        	        	        	    -454	(  1  1  0)	  0  1
     51.4708	        	        	        	        	       0	(  0  0  8)	  0  1
     51.4708	        	        	        	        	    -454	(  0  0  8)	  0  1
     52.2393	        	        	        	        	       0	(  1  1  2)	  0  1
     52.2393	        	        	        	        	    -454	(  1  1  2)	  0  1
     53.8528	        	        	        	        	       0	(  1  0  7)	  0  1
     53.8528	        	        	        	        	    -454	(  1  0  7)	  0  1
     57.2161	        	        	        	        	       0	(  1  1  4)	  0  1
     57.2161	        	        	        	        	    -454	(  1  1  4)	  0  1
     59.0481	        	        	        	        	       0	(  2  0  0)	  0  1
     59.0481	        	        	        	        	    -454	(  2  0  0)	  0  1
     59.4420	        	        	        	        	       0	(  2  0  1)	  0  1
     59.4420	        	        	        	        	    -454	(  2  0  1)	  0  1
     59.9183	        	        	        	        	       0	(  1  0  8)	  0  1
     59.9183	        	        	        	        	    -454	(  1  0  8)	  0  1
     60.6146	        	        	        	        	       0	(  2  0  2)	  0  1
     60.6146	        	        	        	        	    -454	(  2  0  2)	  0  1
     62.5397	        	        	        	        	       0	(  2  0  3)	  0  1
     62.5397	        	        	        	        	    -454	(  2  0  3)	  0  1
     64.9582	        	        	        	        	       0	(  1  1  6)	  0  1
     64.9582	        	        	        	        	    -454	(  1  1  6)	  0  1
     65.1805	        	        	        	        	       0	(  2  0  4)	  0  1
     65.1805	        	        	        	        	    -454	(  2  0  4)	  0  1
     65.7831	        	        	        	        	       0	(  0  0 10)	  0  1
     65.7831	        	        	        	        	    -454	(  0  0 10)	  0  1
     66.3741	        	        	        	        	       0	(  1  0  9)	  0  1
     66.3741	        	        	        	        	    -454	(  1  0  9)	  0  1
     68.4963	        	        	        	        	       0	(  2  0  5)	  0  1
     68.4963	        	        	        	        	    -454	(  2  0  5)	  0  1
     72.4504	        	        	        	        	       0	(  2  0  6)	  0  1
     72.4504	        	        	        	        	    -454	(  2  0  6)	  0  1
     73.2354	        	        	        	        	       0	(  1  0 10)	  0  1
     73.2354	        	        	        	        	    -454	(  1  0 10)	  0  1
     75.0634	        	        	        	        	       0	(  1  1  8)	  0  1
     75.0634	        	        	        	        	    -454	(  1  1  8)	  0  1
     77.0168	        	        	        	        	       0	(  2  0  7)	  0  1
     77.0168	        	        	        	        	    -454	(  2  0  7)	  0  1
     80.5457	        	        	        	        	       0	(  1  0 11)	  0  1
     80.5457	        	        	        	        	    -454	(  1  0 11)	  0  1
     81.3708	        	        	        	        	       0	(  0  0 12)	  0  1
     81.3708	        	        	        	        	    -454	(  0  0 12)	  0  1
     81.4280	        	        	        	        	       0	(  2  1  0)	  0  1
     81.4280	        	        	        	        	    -454	(  2  1  0)	  0  1
     81.7705	        	        	        	        	       0	(  2  1  1)	  0  1
     81.7705	        	        	        	        	    -454	(  2  1  1)	  0  1
     82.1860	        	        	        	        	       0	(  2  0  8)	  0  1
     82.1860	        	        	        	        	    -454	(  2  0  8)	  0  1
     82.7964	        	        	        	        	       0	(  2  1  2)	  0  1
     82.7964	        	        	        	        	    -454	(  2  1  2)	  0  1
     84.5014	        	        	        	        	       0	(  2  1  3)	  0  1
     84.5014	        	        	        	        	    -454	(  2  1  3)	  0  1
     86.8807	        	        	        	        	       0	(  2  1  4)	  0  1
     86.8807	        	        	        	        	    -454	(  2  1  4)	  0  1
     87.4300	        	        	        	        	       0	(  1  1 10)	  0  1
     87.4300	        	        	        	        	    -454	(  1  1 10)	  0  1
     87.9712	        	        	        	        	       0	(  2  0  9)	  0  1
     87.9712	        	        	        	        	    -454	(  2  0  9)	  0  1
     88.3829	        	        	        	        	       0	(  1  0 12)	  0  1
     88.3829	        	        	        	        	    -454	(  1  0 12)	  0  1
     89.9327	        	        	        	        	       0	(  2  1  5)	  0  1
     89.9327	        	        	        	        	    -454	(  2  1  5)	  0  1
     93.6640	        	        	        	        	       0	(  2  1  6)	  0  1
     93.6640	        	        	        	        	    -454	(  2  1  6)	  0  1
     94.4165	        	        	        	        	       0	(  2  0 10)	  0  1
     94.4165	        	        	        	        	    -454	(  2  0 10)	  0  1
     95.4293	        	        	        	        	       0	(  3  0  0)	  0  1
     95.4293	        	        	        	        	    -454	(  3  0  0)	  0  1
     95.7699	        	        	        	        	       0	(  3  0  1)	  0  1
     95.7699	        	        	        	        	    -454	(  3  0  1)	  0  1
     96.7932	        	        	        	        	       0	(  3  0  2)	  0  1
     96.7932	        	        	        	        	    -454	(  3  0  2)	  0  1
     96.8744	        	        	        	        	       0	(  1  0 13)	  0  1
     96.8744	        	        	        	        	    -454	(  1  0 13)	  0  1
     98.0958	        	        	        	        	       0	(  2  1  7)	  0  1
     98.0958	        	        	        	        	    -454	(  2  1  7)	  0  1
     98.5037	        	        	        	        	       0	(  3  0  3)	  0  1
     98.5037	        	        	        	        	    -454	(  3  0  3)	  0  1
     99.0673	        	        	        	        	       0	(  0  0 14)	  0  1
     99.0673	        	        	        	        	    -454	(  0  0 14)	  0  1
    100.9119	        	        	        	        	       0	(  3  0  4)	  0  1
    100.9119	        	        	        	        	    -454	(  3  0  4)	  0  1
    101.6116	        	        	        	        	       0	(  2  0 11)	  0  1
    101.6116	        	        	        	        	    -454	(  2  0 11)	  0  1
    102.4453	        	        	        	        	       0	(  1  1 12)	  0  1
    102.4453	        	        	        	        	    -454	(  1  1 12)	  0  1
    103.2736	        	        	        	        	       0	(  2  1  8)	  0  1
    103.2736	        	        	        	        	    -454	(  2  1  8)	  0  1
    104.0381	        	        	        	        	       0	(  3  0  5)	  0  1
    104.0381	        	        	        	        	    -454	(  3  0  5)	  0  1
    106.2297	        	        	        	        	       0	(  1  0 14)	  0  1
    106.2297	        	        	        	        	    -454	(  1  0 14)	  0  1
    107.9194	        	        	        	        	       0	(  3  0  6)	  0  1
    107.9194	        	        	        	        	    -454	(  3  0  6)	  0  1
    109.2828	        	        	        	        	       0	(  2  1  9)	  0  1
    109.2828	        	        	        	        	    -454	(  2  1  9)	  0  1
    109.7197	        	        	        	        	       0	(  2  0 12)	  0  1
    109.7197	        	        	        	        	    -454	(  2  0 12)	  0  1
    112.6215	        	        	        	        	       0	(  3  0  7)	  0  1
    112.6215	        	        	        	        	    -454	(  3  0  7)	  0  1
    116.2780	        	        	        	        	       0	(  2  1 10)	  0  1
    116.2780	        	        	        	        	    -454	(  2  1 10)	  0  1
    116.8197	        	        	        	        	       0	(  1  0 15)	  0  1
    116.8197	        	        	        	        	    -454	(  1  0 15)	  0  1
    117.4099	        	        	        	        	       0	(  2  2  0)	  0  1
    117.4099	        	        	        	        	    -454	(  2  2  0)	  0  1
    118.2595	        	        	        	        	       0	(  3  0  8)	  0  1
    118.2595	        	        	        	        	    -454	(  3  0  8)	  0  1
    118.9497	        	        	        	        	       0	(  2  2  2)	  0  1
    118.9497	        	        	        	        	    -454	(  2  2  2)	  0  1
    119.0419	        	        	        	        	       0	(  2  0 13)	  0  1
    119.0419	        	        	        	        	    -454	(  2  0 13)	  0  1
    120.8509	        	        	        	        	       0	(  0  0 16)	  0  1
    120.8509	        	        	        	        	    -454	(  0  0 16)	  0  1
    121.5595	        	        	        	        	       0	(  1  1 14)	  0  1
    121.5595	        	        	        	        	    -454	(  1  1 14)	  0  1
    123.7188	        	        	        	        	       0	(  2  2  4)	  0  1
    123.7188	        	        	        	        	    -454	(  2  2  4)	  0  1
    124.5486	        	        	        	        	       0	(  2  1 11)	  0  1
    124.5486	        	        	        	        	    -454	(  2  1 11)	  0  1
    125.0407	        	        	        	        	       0	(  3  0  9)	  0  1
    125.0407	        	        	        	        	    -454	(  3  0  9)	  0  1
    125.6153	        	        	        	        	       0	(  3  1  0)	  0  1
    125.6153	        	        	        	        	    -454	(  3  1  0)	  0  1
    126.0340	        	        	        	        	       0	(  3  1  1)	  0  1
    126.0340	        	        	        	        	    -454	(  3  1  1)	  0  1
    127.3036	        	        	        	        	       0	(  3  1  2)	  0  1
    127.3036	        	        	        	        	    -454	(  3  1  2)	  0  1
    129.4063	        	        	        	        	       0	(  1  0 16)	  0  1
    129.4063	        	        	        	        	    -454	(  1  0 16)	  0  1
    129.4693	        	        	        	        	       0	(  3  1  3)	  0  1
    129.4693	        	        	        	        	    -454	(  3  1  3)	  0  1
    130.1955	        	        	        	        	       0	(  2  0 14)	  0  1
    130.1955	        	        	        	        	    -454	(  2  0 14)	  0  1
    132.3470	        	        	        	        	       0	(  2  2  6)	  0  1
    132.3470	        	        	        	        	    -454	(  2  2  6)	  0  1
    132.6211	        	        	        	        	       0	(  3  1  4)	  0  1
    132.6211	        	        	        	        	    -454	(  3  1  4)	  0  1
    133.3728	        	        	        	        	       0	(  3  0 10)	  0  1
    133.3728	        	        	        	        	    -454	(  3  0 10)	  0  1
    134.7000	        	        	        	        	       0	(  2  1 12)	  0  1
    134.7000	        	        	        	        	    -454	(  2  1 12)	  0  1
    136.9279	        	        	        	        	       0	(  3  1  5)	  0  1
    136.9279	        	        	        	        	    -454	(  3  1  5)	  0  1
    142.7235	        	        	        	        	       0	(  3  1  6)	  0  1
    142.7235	        	        	        	        	    -454	(  3  1  6)	  0  1
    144.2189	        	        	        	        	       0	(  3  0 11)	  0  1
    144.2189	        	        	        	        	    -454	(  3  0 11)	  0  1
    144.8183	        	        	        	        	       0	(  2  0 15)	  0  1
    144.8183	        	        	        	        	    -454	(  2  0 15)	  0  1
    146.1467	        	        	        	        	       0	(  1  0 17)	  0  1
    146.1467	        	        	        	        	    -454	(  1  0 17)	  0  1
    147.1033	        	        	        	        	       0	(  2  2  8)	  0  1
    147.1033	        	        	        	        	    -454	(  2  2  8)	  0  1
    148.3927	        	        	        	        	       0	(  2  1 13)	  0  1
    148.3927	        	        	        	        	    -454	(  2  1 13)	  0  1
    150.7928	        	        	        	        	       0	(  3  1  7)	  0  1
    150.7928	        	        	        	        	    -454	(  3  1  7)	  0  1
    151.5314	        	        	        	        	       0	(  1  1 16)	  0  1
    151.5314	        	        	        	        	    -454	(  1  1 16)	  0  1
    156.3467	        	        	        	        	       0	(  0  0 18)	  0  1
    156.3467	        	        	        	        	    -454	(  0  0 18)	  0  1
    161.4140	        	        	        	        	       0	(  3  0 12)	  0  1
    161.4140	        	        	        	        	    -454	(  3  0 12)	  0  1
    161.5934	        	        	        	        	       0	(  4  0  0)	  0  1
    161.5934	        	        	        	        	    -454	(  4  0  0)	  0  1
    162.7060	        	        	        	        	       0	(  4  0  1)	  0  1
    162.7060	        	        	        	        	    -454	(  4  0  1)	  0  1
    164.1590	        	        	        	        	       0	(  3  1  8)	  0  1
    164.1590	        	        	        	        	    -454	(  3  1  8)	  0  1
    166.5732	        	        	        	        	       0	(  4  0  2)	  0  1
    166.5732	        	        	        	        	    -454	(  4  0  2)	  0  1
