MSG Master    CELL:    5.91903   5.91903  23.27526   90.0000   90.0000  120.0000   SPGR: P 63/m m c             TEMP:   1074.85
  1   1280     2.52000     0.00000    -0.13212     0.00000     0.00000    0
    99     0     2
       0.00000      10.00000
     125.00000     130.00000
 2Theta	Yobs	Ycal	Yobs-Ycal	Backg	Posr	(hkl)	K
      0.7700	    0.00	  558.82	-1746.00	  439.95
      0.8700	    0.00	  559.42	-1746.00	  440.55
      0.9700	   54.00	  560.01	-1746.00	  441.14
      1.0700	   36.00	  560.59	-1746.00	  441.72
      1.1700	   41.00	  561.15	-1746.00	  442.29
      1.2700	   43.00	  561.71	-1746.00	  442.85
      1.3700	   49.00	  562.26	-1746.00	  443.40
      1.4700	  102.00	  562.80	-1746.00	  443.94
      1.5700	  278.00	  563.33	-1746.00	  444.47
      1.6700	  442.00	  563.85	-1746.00	  444.99
      1.7700	  581.00	  564.36	-1746.00	  445.50
      1.8700	  634.00	  564.86	-1746.00	  446.00
      1.9700	  694.00	  565.36	-1746.00	  446.49
      2.0700	  739.00	  565.84	-1746.00	  446.97
      2.1700	  836.00	  566.31	-1746.00	  447.44
      2.2700	  782.00	  566.77	-1746.00	  447.91
      2.3700	  743.00	  567.23	-1746.00	  448.36
      2.4700	  658.00	  567.67	-1746.00	  448.81
      2.5700	  685.00	  568.11	-1746.00	  449.24
      2.6700	  667.00	  568.53	-1746.00	  449.67
      2.7700	  637.00	  568.95	-1746.00	  450.09
      2.8700	  626.00	  569.36	-1746.00	  450.50
      2.9700	  621.00	  569.76	-1746.00	  450.90
      3.0700	  606.00	  570.15	-1746.00	  451.29
      3.1700	  580.00	  570.53	-1746.00	  451.67
      3.2700	  573.00	  570.91	-1746.00	  452.04
      3.3700	  648.00	  571.27	-1746.00	  452.41
      3.4700	  699.00	  571.63	-1746.00	  452.76
      3.5700	  811.00	  571.98	-1746.00	  453.11
      3.6700	  854.00	  572.32	-1746.00	  453.45
      3.7700	  943.00	  572.65	-1746.00	  453.78
      3.8700	  967.00	  572.97	-1746.00	  454.11
      3.9700	 1011.00	  573.29	-1746.00	  454.42
      4.0700	 1021.00	  573.60	-1746.00	  454.73
      4.1700	 1096.00	  573.89	-1746.00	  455.03
      4.2700	 1096.00	  574.19	-1746.00	  455.32
      4.3700	 1167.00	  574.47	-1746.00	  455.60
      4.4700	 1035.00	  574.74	-1746.00	  455.88
      4.5700	  990.00	  575.01	-1746.00	  456.15
      4.6700	 1070.00	  575.27	-1746.00	  456.41
      4.7700	  984.00	  575.52	-1746.00	  456.66
      4.8700	  991.00	  575.77	-1746.00	  456.90
      4.9700	  958.00	  576.00	-1746.00	  457.14
      5.0700	  935.00	  576.23	-1746.00	  457.37
      5.1700	  971.00	  576.46	-1746.00	  457.59
      5.2700	  864.00	  576.67	-1746.00	  457.80
      5.3700	  840.00	  576.88	-1746.00	  458.01
      5.4700	  808.00	  577.08	-1746.00	  458.21
      5.5700	  876.00	  577.27	-1746.00	  458.40
      5.6700	  811.00	  577.46	-1746.00	  458.59
      5.7700	  830.00	  577.63	-1746.00	  458.77
      5.8700	  759.00	  577.81	-1746.00	  458.94
      5.9700	  837.00	  577.97	-1746.00	  459.10
      6.0700	  818.00	  578.13	-1746.00	  459.26
      6.1700	  823.00	  578.28	-1746.00	  459.41
      6.2700	  805.00	  578.42	-1746.00	  459.56
      6.3700	  802.00	  578.56	-1746.00	  459.69
      6.4700	  781.00	  578.69	-1746.00	  459.83
      6.5700	  770.00	  578.82	-1746.00	  459.95
      6.6700	  721.00	  578.93	-1746.00	  460.07
      6.7700	  744.00	  579.04	-1746.00	  460.18
      6.8700	  714.00	  579.15	-1746.00	  460.28
      6.9700	  708.00	  579.25	-1746.00	  460.38
      7.0700	  728.00	  579.34	-1746.00	  460.47
      7.1700	  663.00	  579.42	-1746.00	  460.56
      7.2700	  763.00	  579.50	-1746.00	  460.64
      7.3700	  663.00	  579.58	-1746.00	  460.71
      7.4700	  656.00	  579.64	-1746.00	  460.78
      7.5700	  635.00	  579.71	-1746.00	  460.84
      7.6700	  650.00	  579.76	-1746.00	  460.90
      7.7700	  632.00	  579.81	-1746.00	  460.95
      7.8700	  654.00	  579.85	-1746.00	  460.99
      7.9700	  647.00	  579.89	-1746.00	  461.03
      8.0700	  684.00	  579.92	-1746.00	  461.06
      8.1700	  645.00	  579.95	-1746.00	  461.08
      8.2700	  602.00	  579.97	-1746.00	  461.10
      8.3700	  622.00	  579.99	-1746.00	  461.12
      8.4700	  646.00	  579.99	-1746.00	  461.13
      8.5700	  636.00	  580.00	-1746.00	  461.13
      8.6700	  653.00	  580.00	-1746.00	  461.13
      8.7700	  616.00	  579.99	-1746.00	  461.12
      8.8700	  592.00	  579.98	-1746.00	  461.11
      8.9700	  644.00	  579.96	-1746.00	  461.09
      9.0700	  665.00	  579.94	-1746.00	  461.07
      9.1700	  558.00	  579.91	-1746.00	  461.04
      9.2700	  584.00	  579.88	-1746.00	  461.01
      9.3700	  577.00	  579.84	-1746.00	  460.97
      9.4700	  644.00	  579.79	-1746.00	  460.93
      9.5700	  625.00	  579.75	-1746.00	  460.88
      9.6700	  594.00	  579.69	-1746.00	  460.83
      9.7700	  613.00	  579.64	-1746.00	  460.77
      9.8700	  600.00	  579.57	-1746.00	  460.71
      9.9700	  547.00	  579.51	-1746.00	  460.64
     10.0700	  605.00	  580.22	-1721.22	  460.57
     10.1700	  612.00	  580.22	-1714.22	  460.49
     10.2700	  573.00	  580.24	-1753.24	  460.41
     10.3700	  592.00	  580.29	-1734.29	  460.32
     10.4700	  619.00	  580.40	-1707.40	  460.23
     10.5700	  586.00	  580.61	-1740.61	  460.14
     10.6700	  594.00	  581.02	-1733.02	  460.04
     10.7700	  588.00	  581.74	-1739.74	  459.93
     10.8700	  611.00	  582.81	-1717.81	  459.82
     10.9700	  593.00	  584.23	-1737.23	  459.71
     11.0700	  596.00	  585.97	-1735.97	  459.59
     11.1700	  585.00	  588.03	-1749.03	  459.47
     11.2700	  550.00	  590.45	-1786.45	  459.35
     11.3700	  598.00	  593.29	-1741.29	  459.22
     11.4700	  608.00	  596.69	-1734.69	  459.09
     11.5700	  599.00	  600.83	-1747.83	  458.95
     11.6700	  626.00	  606.07	-1726.07	  458.81
     11.7700	  586.00	  612.97	-1772.97	  458.66
     11.8700	  679.00	  622.39	-1689.39	  458.51
     11.9700	  673.00	  634.77	-1707.77	  458.36
     12.0700	  730.00	  648.39	-1664.39	  458.20
     12.1700	  647.00	  657.33	-1756.33	  458.04
     12.2700	  629.00	  652.85	-1769.85	  457.88
     12.3700	  591.00	  633.36	-1788.36	  457.71
     12.4700	  639.00	  610.72	-1717.72	  457.54
     12.5700	  656.00	  594.46	-1684.46	  457.36
     12.6700	  587.00	  585.63	-1744.63	  457.18
     12.7700	  594.00	  581.56	-1733.56	  457.00
     12.8700	  600.00	  579.64	-1725.64	  456.82
     12.9700	  560.00	  578.54	-1764.54	  456.63
     13.0700	  552.00	  577.76	-1771.76	  456.44
     13.1700	  560.00	  577.14	-1763.14	  456.24
     13.2700	  564.00	  576.63	-1758.63	  456.04
     13.3700	  559.00	  576.19	-1763.19	  455.84
     13.4700	  610.00	  575.79	-1711.79	  455.64
     13.5700	  519.00	  575.43	-1802.43	  455.43
     13.6700	  576.00	  575.10	-1745.10	  455.22
     13.7700	  548.00	  574.78	-1772.78	  455.00
     13.8700	  565.00	  574.48	-1755.48	  454.78
     13.9700	  578.00	  574.19	-1742.19	  454.56
     14.0700	  572.00	  573.91	-1747.91	  454.34
     14.1700	  560.00	  573.63	-1759.63	  454.11
     14.2700	  520.00	  573.36	-1799.36	  453.89
     14.3700	  540.00	  573.08	-1779.08	  453.65
     14.4700	  549.00	  572.82	-1769.82	  453.42
     14.5700	  552.00	  572.55	-1766.55	  453.18
     14.6700	  545.00	  572.28	-1773.28	  452.94
     14.7700	  593.00	  572.02	-1725.02	  452.70
     14.8700	  618.00	  571.75	-1699.75	  452.45
     14.9700	  605.00	  571.48	-1712.48	  452.21
     15.0700	  549.00	  571.22	-1768.22	  451.96
     15.1700	  555.00	  570.95	-1761.95	  451.70
     15.2700	  549.00	  570.68	-1767.68	  451.45
     15.3700	  550.00	  570.41	-1766.41	  451.19
     15.4700	  550.00	  570.14	-1766.14	  450.93
     15.5700	  554.00	  569.86	-1761.86	  450.67
     15.6700	  555.00	  569.59	-1760.59	  450.40
     15.7700	  562.00	  569.31	-1753.31	  450.14
     15.8700	  572.00	  569.04	-1743.04	  449.87
     15.9700	  566.00	  568.76	-1748.76	  449.60
     16.0700	  576.00	  568.50	-1738.50	  449.32
     16.1700	  607.00	  568.22	-1707.22	  449.05
     16.2700	  612.00	  567.94	-1701.94	  448.77
     16.3700	  597.00	  567.66	-1716.66	  448.49
     16.4700	  541.00	  567.37	-1772.37	  448.21
     16.5700	  534.00	  567.08	-1779.08	  447.93
     16.6700	  567.00	  566.79	-1745.79	  447.64
     16.7700	  587.00	  566.50	-1725.50	  447.35
     16.8700	  612.00	  566.21	-1700.21	  447.06
     16.9700	  549.00	  565.92	-1762.92	  446.77
     17.0700	  550.00	  565.62	-1761.62	  446.48
     17.1700	  553.00	  565.32	-1758.32	  446.18
     17.2700	  561.00	  565.03	-1750.03	  445.89
     17.3700	  528.00	  564.73	-1782.73	  445.59
     17.4700	  534.00	  564.42	-1776.42	  445.29
     17.5700	  577.00	  564.12	-1733.12	  444.99
     17.6700	  563.00	  563.82	-1746.82	  444.69
     17.7700	  588.00	  563.51	-1721.51	  444.38
     17.8700	  565.00	  563.20	-1744.20	  444.07
     17.9700	  565.00	  562.90	-1743.90	  443.77
     18.0700	  549.00	  562.69	-1759.69	  443.46
     18.1700	  525.00	  562.38	-1783.38	  443.15
     18.2700	  536.00	  562.07	-1772.07	  442.84
     18.3700	  525.00	  561.76	-1782.76	  442.52
     18.4700	  599.00	  561.45	-1708.45	  442.21
     18.5700	  536.00	  561.13	-1771.13	  441.89
     18.6700	  551.00	  560.82	-1755.82	  441.58
     18.7700	  530.00	  560.50	-1776.50	  441.26
     18.8700	  542.00	  560.27	-1764.27	  440.94
     18.9700	  569.00	  559.96	-1736.96	  440.62
     19.0700	  539.00	  559.64	-1766.64	  440.30
     19.1700	  558.00	  559.32	-1747.32	  439.97
     19.2700	  562.00	  559.00	-1743.00	  439.65
     19.3700	  597.00	  558.69	-1707.69	  439.32
     19.4700	  543.00	  558.37	-1761.37	  439.00
     19.5700	  568.00	  558.05	-1736.05	  438.67
     19.6700	  576.00	  557.73	-1727.73	  438.34
     19.7700	  499.00	  557.41	-1804.41	  438.01
     19.8700	  547.00	  557.08	-1756.08	  437.68
     19.9700	  545.00	  556.76	-1757.76	  437.35
     20.0700	  534.00	  556.44	-1768.44	  437.02
     20.1700	  551.00	  556.12	-1751.12	  436.69
     20.2700	  538.00	  555.79	-1763.79	  436.36
     20.3700	  538.00	  555.47	-1763.47	  436.02
     20.4700	  547.00	  555.15	-1754.15	  435.69
     20.5700	  579.00	  554.83	-1721.83	  435.35
     20.6700	  518.00	  554.47	-1782.47	  435.02
     20.7700	  522.00	  554.15	-1778.15	  434.68
     20.8700	  551.00	  553.87	-1748.87	  434.34
     20.9700	  574.00	  553.54	-1725.54	  434.01
     21.0700	  553.00	  553.22	-1746.22	  433.67
     21.1700	  602.00	  552.90	-1696.90	  433.33
     21.2700	  527.00	  552.58	-1771.58	  432.99
     21.3700	  524.00	  552.27	-1774.27	  432.65
     21.4700	  549.00	  551.95	-1748.95	  432.31
     21.5700	  564.00	  551.63	-1733.63	  431.97
     21.6700	  534.00	  551.32	-1763.32	  431.63
     21.7700	  574.00	  551.00	-1723.00	  431.29
     21.8700	  570.00	  550.69	-1726.69	  430.95
     21.9700	  565.00	  550.38	-1731.38	  430.60
     22.0700	  579.00	  550.07	-1717.07	  430.26
     22.1700	  553.00	  549.77	-1742.77	  429.92
     22.2700	  565.00	  549.47	-1730.47	  429.58
     22.3700	  550.00	  549.17	-1745.17	  429.23
     22.4700	  527.00	  548.87	-1767.87	  428.89
     22.5700	  582.00	  548.58	-1712.58	  428.55
     22.6700	  523.00	  548.30	-1771.30	  428.20
     22.7700	  538.00	  548.03	-1756.03	  427.86
     22.8700	  549.00	  547.76	-1744.76	  427.52
     22.9700	  518.00	  547.50	-1775.50	  427.17
     23.0700	  516.00	  547.26	-1777.26	  426.83
     23.1700	  599.00	  547.04	-1694.04	  426.48
     23.2700	  564.00	  546.83	-1728.83	  426.14
     23.3700	  518.00	  546.65	-1774.65	  425.80
     23.4700	  500.00	  546.51	-1792.51	  425.45
     23.5700	  548.00	  546.42	-1744.42	  425.11
     23.6700	  534.00	  546.53	-1758.53	  424.77
     23.7700	  548.00	  546.63	-1744.63	  424.42
     23.8700	  583.00	  546.95	-1709.95	  424.08
     23.9700	  508.00	  547.73	-1785.73	  423.74
     24.0700	  545.00	  549.40	-1750.40	  423.39
     24.1700	  545.00	  552.60	-1753.60	  423.05
     24.2700	  537.00	  558.16	-1767.16	  422.71
     24.3700	  609.00	  567.00	-1704.00	  422.36
     24.4700	  595.00	  580.04	-1731.04	  422.02
     24.5700	  574.00	  597.30	-1769.30	  421.68
     24.6700	  577.00	  615.70	-1784.70	  421.34
     24.7700	  652.00	  627.48	-1721.48	  421.00
     24.8700	  599.00	  622.93	-1769.93	  420.66
     24.9700	  597.00	  602.15	-1751.15	  420.32
     25.0700	  556.00	  578.27	-1768.27	  419.98
     25.1700	  588.00	  560.75	-1718.75	  419.64
     25.2700	  569.00	  550.91	-1727.91	  419.30
     25.3700	  550.00	  546.23	-1742.23	  418.96
     25.4700	  563.00	  544.05	-1727.05	  418.62
     25.5700	  571.00	  542.86	-1717.86	  418.28
     25.6700	  527.00	  542.08	-1761.08	  417.95
     25.7700	  551.00	  541.50	-1736.50	  417.61
     25.8700	  569.00	  541.05	-1718.05	  417.27
     25.9700	  634.00	  540.71	-1652.71	  416.94
     26.0700	  543.00	  540.46	-1743.46	  416.60
     26.1700	  577.00	  540.28	-1709.28	  416.27
     26.2700	  544.00	  540.18	-1742.18	  415.93
     26.3700	  510.00	  540.16	-1776.16	  415.60
     26.4700	  536.00	  540.22	-1750.22	  415.27
     26.5700	  556.00	  540.37	-1730.37	  414.94
     26.6700	  543.00	  540.64	-1743.64	  414.60
     26.7700	  578.00	  541.04	-1709.04	  414.27
     26.8700	  533.00	  541.61	-1754.61	  413.94
     26.9700	  554.00	  542.41	-1734.41	  413.62
     27.0700	  583.00	  543.51	-1706.51	  413.29
     27.1700	  551.00	  545.04	-1740.04	  412.96
     27.2700	  618.00	  547.27	-1675.27	  412.63
     27.3700	  581.00	  550.68	-1715.68	  412.31
     27.4700	  589.00	  556.29	-1713.29	  411.98
     27.5700	  521.00	  565.86	-1790.86	  411.66
     27.6700	  518.00	  582.16	-1810.16	  411.33
     27.7700	  602.00	  608.74	-1752.74	  411.01
     27.8700	  633.00	  648.56	-1761.56	  410.69
     27.9700	  666.00	  701.56	-1781.56	  410.37
     28.0700	  788.00	  761.33	-1719.33	  410.05
     28.1700	  941.00	  812.44	-1617.44	  409.73
     28.2700	  956.00	  832.32	-1622.32	  409.41
     28.3700	  926.00	  809.17	-1629.17	  409.10
     28.4700	  779.00	  766.05	-1733.05	  408.78
     28.5700	  659.00	  737.52	-1824.52	  408.47
     28.6700	  716.00	  738.28	-1768.28	  408.15
     28.7700	  754.00	  762.64	-1754.64	  407.84
     28.8700	  816.00	  790.18	-1720.18	  407.53
     28.9700	  809.00	  792.97	-1729.97	  407.22
     29.0700	  828.00	  754.71	-1672.71	  406.91
     29.1700	  678.00	  692.44	-1760.44	  406.60
     29.2700	  600.00	  634.16	-1780.16	  406.29
     29.3700	  634.00	  592.56	-1704.56	  405.99
     29.4700	  571.00	  567.60	-1742.60	  405.68
     29.5700	  591.00	  554.16	-1709.16	  405.38
     29.6700	  593.00	  547.06	-1700.06	  405.08
     29.7700	  603.00	  543.04	-1686.04	  404.77
     29.8700	  601.00	  540.54	-1685.54	  404.47
     29.9700	  569.00	  538.98	-1715.98	  404.18
     30.0700	  576.00	  538.25	-1708.25	  403.88
     30.1700	  578.00	  538.52	-1706.52	  403.58
     30.2700	  538.00	  540.40	-1748.40	  403.29
     30.3700	  569.00	  544.99	-1721.99	  402.99
     30.4700	  558.00	  553.98	-1741.98	  402.70
     30.5700	  566.00	  569.06	-1749.06	  402.41
     30.6700	  568.00	  590.56	-1768.56	  402.12
     30.7700	  597.00	  615.64	-1764.64	  401.83
     30.8700	  586.00	  636.94	-1796.94	  401.54
     30.9700	  659.00	  643.59	-1730.59	  401.25
     31.0700	  560.00	  628.72	-1814.72	  400.97
     31.1700	  560.00	  600.36	-1786.36	  400.68
     31.2700	  553.00	  572.48	-1765.48	  400.40
     31.3700	  594.00	  552.11	-1704.11	  400.12
     31.4700	  527.00	  539.79	-1758.79	  399.84
     31.5700	  537.00	  533.22	-1742.22	  399.56
     31.6700	  510.00	  529.84	-1765.84	  399.29
     31.7700	  568.00	  527.96	-1705.96	  399.01
     31.8700	  542.00	  526.77	-1730.77	  398.74
     31.9700	  545.00	  525.96	-1726.96	  398.46
     32.0700	  553.00	  525.38	-1718.38	  398.19
     32.1700	  570.00	  524.99	-1700.99	  397.92
     32.2700	  550.00	  524.77	-1720.77	  397.65
     32.3700	  544.00	  524.70	-1726.70	  397.39
     32.4700	  582.00	  524.80	-1688.80	  397.12
     32.5700	  561.00	  525.07	-1710.07	  396.86
     32.6700	  512.00	  525.56	-1759.56	  396.60
     32.7700	  514.00	  526.29	-1758.29	  396.34
     32.8700	  537.00	  527.36	-1736.36	  396.08
     32.9700	  536.00	  528.88	-1738.88	  395.82
     33.0700	  550.00	  531.08	-1727.08	  395.56
     33.1700	  557.00	  534.47	-1723.47	  395.31
     33.2700	  530.00	  540.18	-1756.18	  395.05
     33.3700	  574.00	  550.66	-1722.66	  394.80
     33.4700	  560.00	  570.53	-1756.53	  394.55
     33.5700	  666.00	  606.97	-1686.97	  394.30
     33.6700	  643.00	  667.94	-1770.94	  394.06
     33.7700	  800.00	  756.43	-1702.43	  393.81
     33.8700	  881.00	  861.94	-1726.94	  393.57
     33.9700	  976.00	  955.25	-1725.25	  393.33
     34.0700	 1059.00	  992.91	-1679.91	  393.09
     34.1700	 1063.00	  945.32	-1628.32	  392.85
     34.2700	  898.00	  837.85	-1685.85	  392.61
     34.3700	  747.00	  724.80	-1723.80	  392.37
     34.4700	  571.00	  638.17	-1813.17	  392.14
     34.5700	  571.00	  583.94	-1758.94	  391.91
     34.6700	  541.00	  554.58	-1759.58	  391.68
     34.7700	  509.00	  539.76	-1776.76	  391.45
     34.8700	  569.00	  531.97	-1708.97	  391.22
     34.9700	  518.00	  527.29	-1755.29	  391.00
     35.0700	  528.00	  524.05	-1742.05	  390.77
     35.1700	  512.00	  521.61	-1755.61	  390.55
     35.2700	  530.00	  519.68	-1735.68	  390.33
     35.3700	  509.00	  518.10	-1755.10	  390.11
     35.4700	  525.00	  516.80	-1737.80	  389.89
     35.5700	  515.00	  515.70	-1746.70	  389.68
     35.6700	  504.00	  514.76	-1756.76	  389.46
     35.7700	  497.00	  513.94	-1762.94	  389.25
     35.8700	  515.00	  513.22	-1744.22	  389.04
     35.9700	  528.00	  512.58	-1730.58	  388.83
     36.0700	  524.00	  512.49	-1734.49	  388.63
     36.1700	  507.00	  511.99	-1750.99	  388.42
     36.2700	  573.00	  511.53	-1684.53	  388.22
     36.3700	  520.00	  511.12	-1737.12	  388.02
     36.4700	  519.00	  510.75	-1737.75	  387.82
     36.5700	  491.00	  510.42	-1765.42	  387.62
     36.6700	  474.00	  510.12	-1782.12	  387.42
     36.7700	  548.00	  509.88	-1707.88	  387.23
     36.8700	  520.00	  509.70	-1735.70	  387.03
     36.9700	  508.00	  509.65	-1747.65	  386.84
     37.0700	  559.00	  509.84	-1696.84	  386.65
     37.1700	  511.00	  510.49	-1745.49	  386.47
     37.2700	  528.00	  511.93	-1729.93	  386.28
     37.3700	  508.00	  514.43	-1752.43	  386.10
     37.4700	  543.00	  517.95	-1720.95	  385.92
     37.5700	  511.00	  521.84	-1756.84	  385.73
     37.6700	  518.00	  524.80	-1752.80	  385.56
     37.7700	  460.00	  525.44	-1811.44	  385.38
     37.8700	  503.00	  523.58	-1766.58	  385.20
     37.9700	  528.00	  520.43	-1738.43	  385.03
     38.0700	  555.00	  517.03	-1708.03	  384.86
     38.1700	  529.00	  513.78	-1730.78	  384.69
     38.2700	  483.00	  510.99	-1773.99	  384.52
     38.3700	  490.00	  508.87	-1764.87	  384.36
     38.4700	  463.00	  507.40	-1790.40	  384.19
     38.5700	  503.00	  506.44	-1749.44	  384.03
     38.6700	  463.00	  505.84	-1788.84	  383.87
     38.7700	  492.00	  505.34	-1759.34	  383.71
     38.8700	  501.00	  505.04	-1750.04	  383.56
     38.9700	  492.00	  504.80	-1758.80	  383.40
     39.0700	  484.00	  504.58	-1766.58	  383.25
     39.1700	  499.00	  504.39	-1751.39	  383.10
     39.2700	  498.00	  504.14	-1752.14	  382.95
     39.3700	  492.00	  503.98	-1757.98	  382.80
     39.4700	  467.00	  503.95	-1782.95	  382.65
     39.5700	  529.00	  503.82	-1720.82	  382.51
     39.6700	  535.00	  503.69	-1714.69	  382.37
     39.7700	  507.00	  503.57	-1742.57	  382.23
     39.8700	  499.00	  503.46	-1750.46	  382.09
     39.9700	  534.00	  503.37	-1715.37	  381.95
     40.0700	  463.00	  503.28	-1786.28	  381.82
     40.1700	  515.00	  503.20	-1734.20	  381.69
     40.2700	  514.00	  503.13	-1735.13	  381.56
     40.3700	  528.00	  503.08	-1721.08	  381.43
     40.4700	  538.00	  503.04	-1711.04	  381.30
     40.5700	  518.00	  503.01	-1731.01	  381.17
     40.6700	  483.00	  503.00	-1766.00	  381.05
     40.7700	  478.00	  503.01	-1771.01	  380.93
     40.8700	  482.00	  503.04	-1767.04	  380.81
     40.9700	  520.00	  503.10	-1729.10	  380.69
     41.0700	  494.00	  503.20	-1755.20	  380.58
     41.1700	  484.00	  503.34	-1765.34	  380.46
     41.2700	  457.00	  503.49	-1792.49	  380.35
     41.3700	  472.00	  503.74	-1777.74	  380.24
     41.4700	  517.00	  504.09	-1733.09	  380.13
     41.5700	  486.00	  504.98	-1764.98	  380.02
     41.6700	  510.00	  505.63	-1741.63	  379.92
     41.7700	  491.00	  506.61	-1761.61	  379.81
     41.8700	  485.00	  508.25	-1769.25	  379.71
     41.9700	  511.00	  511.28	-1746.28	  379.61
     42.0700	  522.00	  517.08	-1741.08	  379.52
     42.1700	  525.00	  527.82	-1748.82	  379.42
     42.2700	  566.00	  545.89	-1725.89	  379.33
     42.3700	  534.00	  572.54	-1784.54	  379.23
     42.4700	  606.00	  605.40	-1745.40	  379.14
     42.5700	  546.00	  637.10	-1837.10	  379.05
     42.6700	  600.00	  655.91	-1801.91	  378.97
     42.7700	  604.00	  651.87	-1793.87	  378.88
     42.8700	  593.00	  626.37	-1779.37	  378.80
     42.9700	  564.00	  591.98	-1773.98	  378.72
     43.0700	  563.00	  560.27	-1743.27	  378.64
     43.1700	  532.00	  536.70	-1750.70	  378.56
     43.2700	  498.00	  521.81	-1769.81	  378.49
     43.3700	  549.00	  513.52	-1710.52	  378.41
     43.4700	  466.00	  509.22	-1789.22	  378.34
     43.5700	  473.00	  506.99	-1779.99	  378.27
     43.6700	  530.00	  505.71	-1721.71	  378.20
     43.7700	  492.00	  505.06	-1759.06	  378.13
     43.8700	  497.00	  504.47	-1753.47	  378.07
     43.9700	  542.00	  504.06	-1708.06	  378.01
     44.0700	  508.00	  503.73	-1741.73	  377.94
     44.1700	  529.00	  503.47	-1720.47	  377.89
     44.2700	  545.00	  503.27	-1704.27	  377.83
     44.3700	  500.00	  503.13	-1749.13	  377.77
     44.4700	  522.00	  503.02	-1727.02	  377.72
     44.5700	  512.00	  502.83	-1736.83	  377.66
     44.6700	  510.00	  502.79	-1738.79	  377.61
     44.7700	  467.00	  502.79	-1781.79	  377.57
     44.8700	  519.00	  502.81	-1729.81	  377.52
     44.9700	  483.00	  502.86	-1765.86	  377.47
     45.0700	  514.00	  502.92	-1734.92	  377.43
     45.1700	  492.00	  503.19	-1757.19	  377.39
     45.2700	  534.00	  503.30	-1715.30	  377.35
     45.3700	  538.00	  503.44	-1711.44	  377.31
     45.4700	  522.00	  503.60	-1727.60	  377.27
     45.5700	  511.00	  503.78	-1738.78	  377.24
     45.6700	  496.00	  503.98	-1753.98	  377.20
     45.7700	  524.00	  504.22	-1726.22	  377.17
     45.8700	  493.00	  504.47	-1757.47	  377.14
     45.9700	  498.00	  504.76	-1752.77	  377.12
     46.0700	  510.00	  505.09	-1741.09	  377.09
     46.1700	  505.00	  505.45	-1746.45	  377.06
     46.2700	  486.00	  505.86	-1765.86	  377.04
     46.3700	  527.00	  506.31	-1725.31	  377.02
     46.4700	  548.00	  506.82	-1704.82	  377.00
     46.5700	  493.00	  507.40	-1760.40	  376.98
     46.6700	  546.00	  508.07	-1708.07	  376.97
     46.7700	  466.00	  508.85	-1788.85	  376.95
     46.8700	  484.00	  509.79	-1771.79	  376.94
     46.9700	  527.00	  511.03	-1730.03	  376.93
     47.0700	  491.00	  512.81	-1767.81	  376.92
     47.1700	  496.00	  515.69	-1765.69	  376.91
     47.2700	  517.00	  520.50	-1749.50	  376.91
     47.3700	  540.00	  528.25	-1734.25	  376.90
     47.4700	  497.00	  539.94	-1788.94	  376.90
     47.5700	  596.00	  555.63	-1705.63	  376.90
     47.6700	  536.00	  573.60	-1783.60	  376.90
     47.7700	  652.00	  589.98	-1683.98	  376.90
     47.8700	  609.00	  599.38	-1736.38	  376.90
     47.9700	  571.00	  597.93	-1772.94	  376.91
     48.0700	  567.00	  587.09	-1766.09	  376.92
     48.1700	  590.00	  572.25	-1728.25	  376.93
     48.2700	  557.00	  558.51	-1747.51	  376.94
     48.3700	  534.00	  548.62	-1760.62	  376.95
     48.4700	  504.00	  543.30	-1785.30	  376.96
     48.5700	  547.00	  541.97	-1740.97	  376.98
     48.6700	  509.00	  543.64	-1780.64	  376.99
     48.7700	  559.00	  547.51	-1734.51	  377.01
     48.8700	  520.00	  553.20	-1779.20	  377.03
     48.9700	  549.00	  560.86	-1757.86	  377.05
     49.0700	  565.00	  571.19	-1752.19	  377.07
     49.1700	  609.00	  585.94	-1722.94	  377.10
     49.2700	  654.00	  608.72	-1700.72	  377.12
     49.3700	  662.00	  646.39	-1730.39	  377.15
     49.4700	  735.00	  710.77	-1721.77	  377.18
     49.5700	  780.00	  817.59	-1783.59	  377.21
     49.6700	  953.00	  985.56	-1778.56	  377.24
     49.7700	 1106.00	 1227.97	-1867.97	  377.28
     49.8700	 1434.00	 1541.99	-1853.99	  377.31
     49.9700	 1922.00	 1896.94	-1720.94	  377.35
     50.0700	 2245.00	 2225.16	-1726.16	  377.39
     50.1700	 2493.00	 2428.19	-1681.19	  377.42
     50.2700	 2501.00	 2421.45	-1666.45	  377.47
     50.3700	 2295.00	 2205.98	-1656.98	  377.51
     50.4700	 1917.00	 1871.16	-1700.16	  377.55
     50.5700	 1445.00	 1518.60	-1819.60	  377.60
     50.6700	 1062.00	 1214.05	-1898.05	  377.64
     50.7700	  832.00	  985.35	-1899.35	  377.69
     50.8700	  633.00	  832.69	-1945.69	  377.74
     50.9700	  627.00	  740.15	-1859.15	  377.79
     51.0700	  678.00	  686.64	-1754.64	  377.84
     51.1700	  616.00	  653.50	-1783.50	  377.90
     51.2700	  636.00	  628.82	-1738.82	  377.95
     51.3700	  552.00	  607.79	-1801.79	  378.01
     51.4700	  596.00	  589.73	-1739.73	  378.07
     51.5700	  612.00	  575.04	-1709.04	  378.12
     51.6700	  561.00	  563.91	-1748.91	  378.19
     51.7700	  562.00	  556.01	-1740.01	  378.25
     51.8700	  542.00	  550.69	-1754.69	  378.31
     51.9700	  545.00	  547.25	-1748.25	  378.37
     52.0700	  572.00	  545.12	-1719.12	  378.44
     52.1700	  568.00	  544.24	-1722.24	  378.51
     52.2700	  544.00	  544.06	-1746.06	  378.58
     52.3700	  568.00	  544.93	-1722.93	  378.65
     52.4700	  557.00	  547.32	-1736.32	  378.72
     52.5700	  558.00	  552.35	-1740.35	  378.79
     52.6700	  587.00	  562.31	-1721.31	  378.86
     52.7700	  573.00	  581.34	-1754.34	  378.94
     52.8700	  682.00	  615.60	-1679.60	  379.01
     52.9700	  718.00	  672.48	-1700.48	  379.09
     53.0700	  796.00	  757.72	-1707.72	  379.17
     53.1700	  934.00	  871.06	-1683.06	  379.25
     53.2700	 1044.00	 1001.65	-1703.65	  379.33
     53.3700	 1137.00	 1125.28	-1734.28	  379.41
     53.4700	 1212.00	 1206.99	-1740.99	  379.49
     53.5700	 1124.00	 1215.22	-1837.22	  379.58
     53.6700	 1122.00	 1145.84	-1769.84	  379.67
     53.7700	  980.00	 1026.85	-1792.85	  379.75
     53.8700	  853.00	  895.04	-1788.04	  379.84
     53.9700	  738.00	  777.29	-1785.29	  379.93
     54.0700	  658.00	  686.83	-1774.83	  380.02
     54.1700	  640.00	  625.51	-1731.51	  380.11
     54.2700	  567.00	  588.20	-1767.20	  380.20
     54.3700	  613.00	  567.46	-1700.46	  380.30
     54.4700	  559.00	  556.66	-1743.66	  380.39
     54.5700	  584.00	  551.34	-1713.34	  380.49
     54.6700	  581.00	  548.88	-1713.88	  380.58
     54.7700	  547.00	  547.99	-1746.99	  380.68
     54.8700	  558.00	  548.12	-1736.12	  380.78
     54.9700	  575.00	  549.04	-1720.04	  380.88
     55.0700	  568.00	  550.69	-1728.69	  380.98
     55.1700	  583.00	  553.10	-1716.10	  381.09
     55.2700	  587.00	  556.29	-1715.29	  381.19
     55.3700	  588.00	  560.41	-1718.41	  381.29
     55.4700	  558.00	  565.68	-1753.68	  381.40
     55.5700	  550.00	  572.51	-1768.51	  381.51
     55.6700	  560.00	  581.72	-1767.72	  381.61
     55.7700	  518.00	  595.03	-1823.03	  381.72
     55.8700	  625.00	  615.82	-1736.82	  381.83
     55.9700	  610.00	  650.40	-1786.40	  381.94
     56.0700	  679.00	  709.24	-1776.24	  382.05
     56.1700	  715.00	  807.32	-1838.32	  382.16
     56.2700	  890.00	  962.25	-1818.25	  382.28
     56.3700	 1172.00	 1188.90	-1762.90	  382.39
     56.4700	 1434.00	 1490.93	-1802.93	  382.51
     56.5700	 1761.00	 1851.07	-1836.07	  382.62
     56.6700	 2140.00	 2223.94	-1829.94	  382.74
     56.7700	 2429.00	 2533.96	-1850.96	  382.86
     56.8700	 2671.00	 2690.73	-1765.73	  382.97
     56.9700	 2574.00	 2635.68	-1807.68	  383.09
     57.0700	 2283.00	 2390.17	-1853.17	  383.21
     57.1700	 2008.00	 2037.68	-1775.68	  383.33
     57.2700	 1649.00	 1665.79	-1762.79	  383.46
     57.3700	 1232.00	 1334.99	-1848.99	  383.58
     57.4700	 1079.00	 1075.32	-1742.32	  383.70
     57.5700	  869.00	  892.17	-1769.17	  383.83
     57.6700	  759.00	  775.14	-1762.14	  383.95
     57.7700	  738.00	  707.81	-1715.81	  384.08
     57.8700	  673.00	  674.79	-1747.79	  384.20
     57.9700	  671.00	  665.35	-1740.35	  384.33
     58.0700	  662.00	  673.90	-1757.90	  384.46
     58.1700	  683.00	  698.69	-1761.69	  384.59
     58.2700	  726.00	  739.88	-1759.88	  384.72
     58.3700	  857.00	  797.79	-1686.79	  384.85
     58.4700	  939.00	  871.11	-1678.11	  384.98
     58.5700	 1052.00	  955.41	-1649.41	  385.11
     58.6700	 1213.00	 1042.56	-1575.56	  385.24
     58.7700	 1350.00	 1123.05	-1519.05	  385.38
     58.8700	 1475.00	 1190.14	-1461.14	  385.51
     58.9700	 1506.00	 1239.63	-1479.63	  385.64
     59.0700	 1508.00	 1265.84	-1503.84	  385.78
     59.1700	 1521.00	 1263.98	-1488.98	  385.91
     59.2700	 1541.00	 1237.99	-1442.99	  386.05
     59.3700	 1325.00	 1200.73	-1621.73	  386.19
     59.4700	 1258.00	 1165.49	-1653.49	  386.33
     59.5700	 1174.00	 1141.56	-1713.56	  386.46
     59.6700	 1142.00	 1137.01	-1741.01	  386.60
     59.7700	 1106.00	 1160.44	-1800.44	  386.74
     59.8700	 1175.00	 1216.70	-1787.70	  386.88
     59.9700	 1360.00	 1300.94	-1686.94	  387.02
     60.0700	 1441.00	 1396.00	-1701.00	  387.16
     60.1700	 1536.00	 1473.33	-1683.33	  387.30
     60.2700	 1599.00	 1500.22	-1647.22	  387.44
     60.3700	 1459.00	 1457.02	-1744.02	  387.59
     60.4700	 1458.00	 1351.24	-1639.24	  387.73
     60.5700	 1269.00	 1210.02	-1687.02	  387.87
     60.6700	 1141.00	 1062.03	-1667.03	  388.02
     60.7700	  952.00	  928.09	-1722.09	  388.16
     60.8700	  759.00	  819.84	-1806.84	  388.30
     60.9700	  740.00	  741.19	-1747.19	  388.45
     61.0700	  628.00	  690.93	-1808.93	  388.60
     61.1700	  618.00	  665.76	-1793.76	  388.74
     61.2700	  632.00	  663.03	-1777.03	  388.89
     61.3700	  662.00	  682.33	-1766.33	  389.03
     61.4700	  696.00	  725.68	-1775.68	  389.18
     61.5700	  792.00	  796.17	-1750.17	  389.33
     61.6700	  862.00	  895.58	-1779.58	  389.48
     61.7700	  940.00	 1021.44	-1827.44	  389.62
     61.8700	 1069.00	 1164.29	-1841.29	  389.77
     61.9700	 1220.00	 1306.20	-1832.20	  389.92
     62.0700	 1380.00	 1420.69	-1786.69	  390.07
     62.1700	 1382.00	 1478.08	-1842.08	  390.22
     62.2700	 1389.00	 1459.56	-1816.56	  390.37
     62.3700	 1250.00	 1370.79	-1866.79	  390.52
     62.4700	 1126.00	 1237.55	-1857.55	  390.67
     62.5700	  971.00	 1089.36	-1864.36	  390.82
     62.6700	  911.00	  949.02	-1784.02	  390.97
     62.7700	  772.00	  830.28	-1804.28	  391.12
     62.8700	  717.00	  738.72	-1767.72	  391.27
     62.9700	  622.00	  673.57	-1797.57	  391.42
     63.0700	  573.00	  630.43	-1803.43	  391.57
     63.1700	  597.00	  603.61	-1752.61	  391.73
     63.2700	  593.00	  587.87	-1740.87	  391.88
     63.3700	  537.00	  579.38	-1788.38	  392.03
     63.4700	  547.00	  575.88	-1774.88	  392.18
     63.5700	  558.00	  576.56	-1764.56	  392.33
     63.6700	  567.00	  581.83	-1760.83	  392.49
     63.7700	  562.00	  593.07	-1777.07	  392.64
     63.8700	  602.00	  612.26	-1756.26	  392.79
     63.9700	  676.00	  641.49	-1711.49	  392.94
     64.0700	  755.00	  682.10	-1673.10	  393.10
     64.1700	  741.00	  733.78	-1738.78	  393.25
     64.2700	  831.00	  793.69	-1708.69	  393.40
     64.3700	  973.00	  855.80	-1628.80	  393.56
     64.4700	  983.00	  910.99	-1673.99	  393.71
     64.5700	  994.00	  948.12	-1700.12	  393.86
     64.6700	 1044.00	  960.15	-1662.15	  394.02
     64.7700	  989.00	  945.07	-1702.07	  394.17
     64.8700	  972.00	  908.01	-1682.01	  394.32
     64.9700	  910.00	  857.65	-1693.65	  394.47
     65.0700	  851.00	  803.23	-1698.23	  394.63
     65.1700	  802.00	  752.01	-1696.01	  394.78
     65.2700	  738.00	  707.96	-1715.96	  394.93
     65.3700	  682.00	  672.06	-1736.06	  395.09
     65.4700	  649.00	  643.47	-1740.47	  395.24
     65.5700	  627.00	  620.95	-1739.95	  395.39
     65.6700	  570.00	  603.45	-1779.45	  395.54
     65.7700	  590.00	  590.18	-1746.18	  395.70
     65.8700	  556.00	  580.48	-1770.48	  395.85
     65.9700	  532.00	  573.80	-1787.80	  396.00
     66.0700	  546.00	  569.69	-1769.69	  396.15
     66.1700	  577.00	  567.71	-1736.71	  396.31
     66.2700	  583.00	  567.49	-1730.49	  396.46
     66.3700	  547.00	  568.74	-1767.74	  396.61
     66.4700	  552.00	  571.31	-1765.31	  396.76
     66.5700	  559.00	  575.37	-1762.37	  396.91
     66.6700	  589.00	  581.10	-1738.10	  397.06
     66.7700	  574.00	  589.53	-1761.53	  397.21
     66.8700	  564.00	  602.42	-1784.42	  397.36
     66.9700	  658.00	  622.80	-1710.80	  397.51
     67.0700	  626.00	  655.43	-1775.43	  397.66
     67.1700	  714.00	  707.09	-1739.09	  397.81
     67.2700	  745.00	  786.28	-1787.28	  397.96
     67.3700	  881.00	  902.11	-1767.11	  398.11
     67.4700	 1079.00	 1061.95	-1728.95	  398.26
     67.5700	 1291.00	 1267.99	-1722.99	  398.41
     67.6700	 1569.00	 1514.18	-1691.18	  398.56
     67.7700	 1825.00	 1783.77	-1704.77	  398.71
     67.8700	 1950.00	 2047.31	-1843.31	  398.85
     67.9700	 2339.00	 2264.14	-1671.14	  399.00
     68.0700	 2425.00	 2389.24	-1710.24	  399.15
     68.1700	 2384.00	 2390.36	-1752.36	  399.30
     68.2700	 2194.00	 2267.23	-1819.23	  399.44
     68.3700	 2095.00	 2051.68	-1702.68	  399.59
     68.4700	 1809.00	 1788.89	-1725.89	  399.73
     68.5700	 1577.00	 1519.49	-1688.49	  399.88
     68.6700	 1219.00	 1273.14	-1800.14	  400.02
     68.7700	 1090.00	 1067.03	-1723.03	  400.17
     68.8700	  856.00	  907.14	-1797.14	  400.31
     68.9700	  779.00	  791.29	-1758.29	  400.45
     69.0700	  717.00	  712.17	-1741.17	  400.60
     69.1700	  662.00	  660.75	-1744.75	  400.74
     69.2700	  654.00	  628.45	-1720.45	  400.88
     69.3700	  569.00	  608.48	-1785.48	  401.02
     69.4700	  579.00	  596.04	-1763.04	  401.16
     69.5700	  599.00	  588.07	-1735.07	  401.30
     69.6700	  586.00	  582.75	-1742.75	  401.44
     69.7700	  611.00	  579.10	-1714.10	  401.58
     69.8700	  585.00	  576.57	-1737.57	  401.72
     69.9700	  605.00	  574.93	-1715.93	  401.86
     70.0700	  555.00	  574.02	-1765.02	  402.00
     70.1700	  593.00	  573.84	-1726.84	  402.13
     70.2700	  609.00	  574.36	-1711.36	  402.27
     70.3700	  562.00	  575.71	-1759.71	  402.40
     70.4700	  553.00	  578.14	-1771.14	  402.54
     70.5700	  572.00	  582.13	-1756.13	  402.67
     70.6700	  554.00	  588.58	-1780.58	  402.81
     70.7700	  562.00	  599.02	-1783.02	  402.94
     70.8700	  582.00	  615.91	-1779.91	  403.07
     70.9700	  637.00	  642.82	-1751.82	  403.21
     71.0700	  680.00	  684.53	-1750.53	  403.34
     71.1700	  723.00	  746.72	-1769.72	  403.47
     71.2700	  822.00	  835.01	-1759.01	  403.60
     71.3700	  951.00	  953.60	-1748.60	  403.73
     71.4700	 1056.00	 1103.24	-1793.24	  403.85
     71.5700	 1234.00	 1280.33	-1792.33	  403.98
     71.6700	 1408.00	 1472.20	-1810.20	  404.11
     71.7700	 1694.00	 1661.31	-1713.31	  404.24
     71.8700	 1700.00	 1822.75	-1868.75	  404.36
     71.9700	 1889.00	 1928.33	-1785.33	  404.49
     72.0700	 1912.00	 1955.20	-1789.20	  404.61
     72.1700	 1829.00	 1896.86	-1813.86	  404.73
     72.2700	 1833.00	 1767.34	-1680.34	  404.85
     72.3700	 1672.00	 1592.56	-1666.56	  404.98
     72.4700	 1509.00	 1400.92	-1637.92	  405.10
     72.5700	 1343.00	 1214.37	-1617.37	  405.22
     72.6700	 1094.00	 1048.18	-1700.18	  405.34
     72.7700	 1038.00	  910.55	-1618.55	  405.45
     72.8700	  917.00	  803.55	-1632.55	  405.57
     72.9700	  864.00	  724.84	-1606.84	  405.69
     73.0700	  830.00	  669.59	-1585.59	  405.80
     73.1700	  684.00	  632.23	-1694.23	  405.92
     73.2700	  695.00	  607.55	-1658.55	  406.03
     73.3700	  662.00	  591.40	-1675.40	  406.14
     73.4700	  644.00	  580.76	-1682.76	  406.26
     73.5700	  665.00	  573.65	-1654.65	  406.37
     73.6700	  602.00	  568.85	-1712.85	  406.48
     73.7700	  586.00	  565.64	-1725.64	  406.59
     73.8700	  601.00	  563.63	-1708.63	  406.69
     73.9700	  624.00	  562.59	-1684.59	  406.80
     74.0700	  610.00	  562.33	-1698.33	  406.91
     74.1700	  577.00	  562.67	-1731.67	  407.01
     74.2700	  586.00	  563.40	-1723.40	  407.12
     74.3700	  647.00	  564.27	-1663.27	  407.22
     74.4700	  636.00	  564.96	-1674.96	  407.32
     74.5700	  611.00	  565.17	-1700.17	  407.42
     74.6700	  687.00	  564.67	-1623.67	  407.53
     74.7700	  653.00	  563.41	-1656.41	  407.62
     74.8700	  620.00	  561.57	-1687.57	  407.72
     74.9700	  559.00	  559.45	-1746.45	  407.82
     75.0700	  618.00	  557.41	-1685.41	  407.92
     75.1700	  602.00	  555.81	-1699.81	  408.01
     75.2700	  558.00	  554.96	-1742.96	  408.11
     75.3700	  574.00	  555.31	-1727.31	  408.20
     75.4700	  529.00	  557.32	-1774.32	  408.29
     75.5700	  581.00	  561.42	-1726.42	  408.38
     75.6700	  552.00	  568.02	-1762.02	  408.47
     75.7700	  582.00	  577.75	-1741.75	  408.56
     75.8700	  606.00	  590.79	-1730.79	  408.65
     75.9700	  612.00	  607.08	-1741.08	  408.73
     76.0700	  620.00	  626.08	-1752.08	  408.82
     76.1700	  630.00	  646.68	-1762.68	  408.90
     76.2700	  691.00	  667.17	-1722.17	  408.98
     76.3700	  671.00	  685.23	-1760.23	  409.07
     76.4700	  688.00	  698.26	-1756.26	  409.15
     76.5700	  674.00	  703.90	-1775.90	  409.23
     76.6700	  707.00	  700.96	-1739.96	  409.30
     76.7700	  654.00	  690.04	-1782.04	  409.38
     76.8700	  669.00	  673.19	-1750.19	  409.46
     76.9700	  649.00	  652.82	-1749.82	  409.53
     77.0700	  595.00	  631.75	-1782.75	  409.60
     77.1700	  581.00	  611.71	-1776.71	  409.68
     77.2700	  539.00	  594.00	-1801.00	  409.75
     77.3700	  538.00	  579.31	-1787.31	  409.82
     77.4700	  565.00	  567.81	-1748.81	  409.89
     77.5700	  558.00	  559.25	-1747.25	  409.95
     77.6700	  561.00	  553.17	-1738.17	  410.02
     77.7700	  507.00	  549.03	-1788.03	  410.08
     77.8700	  579.00	  546.30	-1713.30	  410.15
     77.9700	  563.00	  544.54	-1727.54	  410.21
     78.0700	  538.00	  543.43	-1751.43	  410.27
     78.1700	  534.00	  542.72	-1754.72	  410.33
     78.2700	  539.00	  542.28	-1749.28	  410.39
     78.3700	  542.00	  542.00	-1746.00	  410.44
     78.4700	  522.00	  541.86	-1765.86	  410.50
     78.5700	  554.00	  541.81	-1733.81	  410.55
     78.6700	  550.00	  541.86	-1737.86	  410.61
     78.7700	  493.00	  542.02	-1795.02	  410.66
     78.8700	  541.00	  542.30	-1747.30	  410.71
     78.9700	  524.00	  542.75	-1764.75	  410.76
     79.0700	  544.00	  543.40	-1745.40	  410.80
     79.1700	  519.00	  544.30	-1771.30	  410.85
     79.2700	  492.00	  545.50	-1799.50	  410.90
     79.3700	  532.00	  546.90	-1760.90	  410.94
     79.4700	  476.00	  548.90	-1818.90	  410.98
     79.5700	  523.00	  551.38	-1774.38	  411.02
     79.6700	  516.00	  554.43	-1784.43	  411.06
     79.7700	  534.00	  558.15	-1770.15	  411.10
     79.8700	  534.00	  562.65	-1774.65	  411.14
     79.9700	  564.00	  568.11	-1750.11	  411.17
     80.0700	  582.00	  574.74	-1738.74	  411.20
     80.1700	  518.00	  582.84	-1810.84	  411.24
     80.2700	  565.00	  592.72	-1773.72	  411.27
     80.3700	  604.00	  604.65	-1746.65	  411.30
     80.4700	  589.00	  618.73	-1775.73	  411.32
     80.5700	  614.00	  634.79	-1766.79	  411.35
     80.6700	  626.00	  652.34	-1772.34	  411.38
     80.7700	  681.00	  670.48	-1735.48	  411.40
     80.8700	  695.00	  688.01	-1739.01	  411.42
     80.9700	  704.00	  703.54	-1745.54	  411.44
     81.0700	  702.00	  715.81	-1759.81	  411.46
     81.1700	  759.00	  723.89	-1710.89	  411.48
     81.2700	  773.00	  727.21	-1700.21	  411.50
     81.3700	  760.00	  725.61	-1711.61	  411.51
     81.4700	  772.00	  719.36	-1693.36	  411.52
     81.5700	  774.00	  709.09	-1681.09	  411.53
     81.6700	  704.00	  695.69	-1737.69	  411.55
     81.7700	  715.00	  680.08	-1711.08	  411.55
     81.8700	  708.00	  663.27	-1701.27	  411.56
     81.9700	  646.00	  646.28	-1746.28	  411.57
     82.0700	  686.00	  629.94	-1689.94	  411.57
     82.1700	  632.00	  614.99	-1728.99	  411.57
     82.2700	  635.00	  601.75	-1712.75	  411.58
     82.3700	  581.00	  590.35	-1755.35	  411.57
     82.4700	  599.00	  580.82	-1727.82	  411.57
     82.5700	  621.00	  573.06	-1698.06	  411.57
     82.6700	  546.00	  567.04	-1767.04	  411.56
     82.7700	  569.00	  562.63	-1739.63	  411.56
     82.8700	  558.00	  559.74	-1747.74	  411.55
     82.9700	  607.00	  558.27	-1697.27	  411.54
     83.0700	  572.00	  558.15	-1732.15	  411.53
     83.1700	  563.00	  559.28	-1742.28	  411.52
     83.2700	  479.00	  561.57	-1828.57	  411.50
     83.3700	  604.00	  564.86	-1706.86	  411.49
     83.4700	  579.00	  568.94	-1735.94	  411.47
     83.5700	  533.00	  573.48	-1786.48	  411.45
     83.6700	  540.00	  578.11	-1784.11	  411.43
     83.7700	  550.00	  582.35	-1778.35	  411.41
     83.8700	  578.00	  585.66	-1753.66	  411.38
     83.9700	  543.00	  587.57	-1790.57	  411.36
     84.0700	  537.00	  587.71	-1796.71	  411.33
     84.1700	  546.00	  586.03	-1786.03	  411.30
     84.2700	  584.00	  582.75	-1744.75	  411.27
     84.3700	  517.00	  578.30	-1807.30	  411.24
     84.4700	  543.00	  573.18	-1776.18	  411.21
     84.5700	  567.00	  567.85	-1746.85	  411.17
     84.6700	  563.00	  562.69	-1745.69	  411.14
     84.7700	  546.00	  557.97	-1757.97	  411.10
     84.8700	  550.00	  553.86	-1749.86	  411.06
     84.9700	  531.00	  550.46	-1765.46	  411.02
     85.0700	  555.00	  547.77	-1738.77	  410.98
     85.1700	  533.00	  545.75	-1758.75	  410.93
     85.2700	  550.00	  544.32	-1740.32	  410.89
     85.3700	  499.00	  543.38	-1790.38	  410.84
     85.4700	  533.00	  542.85	-1755.85	  410.79
     85.5700	  539.00	  542.67	-1749.67	  410.74
     85.6700	  535.00	  542.79	-1753.79	  410.68
     85.7700	  525.00	  543.20	-1764.20	  410.63
     85.8700	  513.00	  543.90	-1776.90	  410.57
     85.9700	  510.00	  544.95	-1780.95	  410.52
     86.0700	  556.00	  546.43	-1736.43	  410.46
     86.1700	  577.00	  548.44	-1717.44	  410.40
     86.2700	  545.00	  551.11	-1752.11	  410.34
     86.3700	  572.00	  554.59	-1728.59	  410.27
     86.4700	  544.00	  559.01	-1761.01	  410.21
     86.5700	  583.00	  564.48	-1727.48	  410.14
     86.6700	  563.00	  571.03	-1754.03	  410.07
     86.7700	  581.00	  578.58	-1743.58	  410.00
     86.8700	  621.00	  586.62	-1711.62	  409.93
     86.9700	  597.00	  595.38	-1744.38	  409.86
     87.0700	  613.00	  604.05	-1737.05	  409.78
     87.1700	  627.00	  611.97	-1730.97	  409.70
     87.2700	  635.00	  618.39	-1729.39	  409.62
     87.3700	  657.00	  622.59	-1711.59	  409.54
     87.4700	  625.00	  624.02	-1745.02	  409.46
     87.5700	  664.00	  622.52	-1704.52	  409.38
     87.6700	  637.00	  618.33	-1727.33	  409.29
     87.7700	  656.00	  612.07	-1702.07	  409.21
     87.8700	  655.00	  604.54	-1695.54	  409.12
     87.9700	  610.00	  596.58	-1732.58	  409.03
     88.0700	  594.00	  588.94	-1740.94	  408.94
     88.1700	  604.00	  582.25	-1724.25	  408.85
     88.2700	  563.00	  577.01	-1760.01	  408.75
     88.3700	  567.00	  573.54	-1752.54	  408.66
     88.4700	  594.00	  572.01	-1724.01	  408.56
     88.5700	  586.00	  572.40	-1732.40	  408.46
     88.6700	  593.00	  574.58	-1727.58	  408.36
     88.7700	  580.00	  578.26	-1744.26	  408.25
     88.8700	  594.00	  583.05	-1735.05	  408.15
     88.9700	  624.00	  588.47	-1710.47	  408.04
     89.0700	  617.00	  593.97	-1722.97	  407.94
     89.1700	  611.00	  598.93	-1733.93	  407.83
     89.2700	  599.00	  602.74	-1749.74	  407.72
     89.3700	  606.00	  604.87	-1744.87	  407.61
     89.4700	  582.00	  604.98	-1768.98	  407.49
     89.5700	  547.00	  602.99	-1801.99	  407.38
     89.6700	  620.00	  599.15	-1725.15	  407.26
     89.7700	  592.00	  593.88	-1747.88	  407.14
     89.8700	  566.00	  587.70	-1767.70	  407.02
     89.9700	  573.00	  581.12	-1754.12	  406.90
     90.0700	  541.00	  574.57	-1779.57	  406.78
     90.1700	  577.00	  568.39	-1737.39	  406.65
     90.2700	  522.00	  562.83	-1786.83	  406.52
     90.3700	  569.00	  558.05	-1735.05	  406.40
     90.4700	  546.00	  554.09	-1754.09	  406.27
     90.5700	  527.00	  550.97	-1769.97	  406.14
     90.6700	  579.00	  548.60	-1715.60	  406.00
     90.7700	  507.00	  546.92	-1785.92	  405.87
     90.8700	  500.00	  545.82	-1791.82	  405.73
     90.9700	  517.00	  545.21	-1774.21	  405.60
     91.0700	  541.00	  545.03	-1750.03	  405.46
     91.1700	  508.00	  545.23	-1783.23	  405.32
     91.2700	  537.00	  545.83	-1754.83	  405.17
     91.3700	  529.00	  546.84	-1763.84	  405.03
     91.4700	  559.00	  548.36	-1735.36	  404.89
     91.5700	  524.00	  550.50	-1772.50	  404.74
     91.6700	  498.00	  553.41	-1801.41	  404.59
     91.7700	  576.00	  557.28	-1727.28	  404.44
     91.8700	  493.00	  562.30	-1815.30	  404.29
     91.9700	  516.00	  568.44	-1798.44	  404.14
     92.0700	  548.00	  576.33	-1774.33	  403.99
     92.1700	  552.00	  585.86	-1779.86	  403.83
     92.2700	  592.00	  597.07	-1751.07	  403.67
     92.3700	  603.00	  609.91	-1752.91	  403.51
     92.4700	  579.00	  624.20	-1791.20	  403.35
     92.5700	  621.00	  639.66	-1764.66	  403.19
     92.6700	  693.00	  655.83	-1708.83	  403.03
     92.7700	  699.00	  672.17	-1719.17	  402.87
     92.8700	  750.00	  688.02	-1684.02	  402.70
     92.9700	  736.00	  702.73	-1712.73	  402.53
     93.0700	  757.00	  715.74	-1704.74	  402.37
     93.1700	  792.00	  726.79	-1680.79	  402.20
     93.2700	  794.00	  735.95	-1687.95	  402.02
     93.3700	  823.00	  743.68	-1666.68	  401.85
     93.4700	  837.00	  750.60	-1659.60	  401.68
     93.5700	  760.00	  757.38	-1743.38	  401.50
     93.6700	  841.00	  764.63	-1669.63	  401.33
     93.7700	  817.00	  772.88	-1701.88	  401.15
     93.8700	  835.00	  782.62	-1693.62	  400.97
     93.9700	  852.00	  794.26	-1688.26	  400.79
     94.0700	  893.00	  808.12	-1661.12	  400.61
     94.1700	  827.00	  824.26	-1743.26	  400.42
     94.2700	  889.00	  842.40	-1699.40	  400.24
     94.3700	  861.00	  861.78	-1746.78	  400.05
     94.4700	  895.00	  881.23	-1732.23	  399.86
     94.5700	  917.00	  899.15	-1728.15	  399.67
     94.6700	  885.00	  913.68	-1774.68	  399.48
     94.7700	  909.00	  922.89	-1759.89	  399.29
     94.8700	  929.00	  925.17	-1742.17	  399.10
     94.9700	  881.00	  919.62	-1784.62	  398.91
     95.0700	  928.00	  906.33	-1724.33	  398.71
     95.1700	  881.00	  886.35	-1751.35	  398.51
     95.2700	  828.00	  861.39	-1779.39	  398.32
     95.3700	  780.00	  833.49	-1799.49	  398.12
     95.4700	  790.00	  804.74	-1760.74	  397.92
     95.5700	  782.00	  777.13	-1741.13	  397.72
     95.6700	  714.00	  752.49	-1784.49	  397.51
     95.7700	  693.00	  732.45	-1785.45	  397.31
     95.8700	  705.00	  718.49	-1759.49	  397.10
     95.9700	  675.00	  711.89	-1782.89	  396.90
     96.0700	  746.00	  713.76	-1713.76	  396.69
     96.1700	  677.00	  725.03	-1794.03	  396.48
     96.2700	  711.00	  746.39	-1781.39	  396.27
     96.3700	  790.00	  778.32	-1734.32	  396.06
     96.4700	  794.00	  820.89	-1772.89	  395.85
     96.5700	  858.00	  873.78	-1761.78	  395.64
     96.6700	  900.00	  936.12	-1782.12	  395.42
     96.7700	 1025.00	 1006.38	-1727.38	  395.21
     96.8700	 1083.00	 1082.33	-1745.33	  394.99
     96.9700	 1175.00	 1161.04	-1732.04	  394.77
     97.0700	 1209.00	 1238.90	-1775.90	  394.56
     97.1700	 1288.00	 1311.70	-1769.70	  394.34
     97.2700	 1369.00	 1374.85	-1751.85	  394.12
     97.3700	 1398.00	 1423.77	-1771.77	  393.89
     97.4700	 1517.00	 1454.53	-1683.53	  393.67
     97.5700	 1498.00	 1464.61	-1712.61	  393.45
     97.6700	 1479.00	 1453.44	-1720.44	  393.22
     97.7700	 1434.00	 1422.52	-1734.52	  393.00
     97.8700	 1360.00	 1374.99	-1760.99	  392.77
     97.9700	 1258.00	 1314.94	-1802.94	  392.54
     98.0700	 1233.00	 1246.83	-1759.83	  392.32
     98.1700	 1176.00	 1174.94	-1744.94	  392.09
     98.2700	 1095.00	 1103.29	-1754.29	  391.86
     98.3700	 1070.00	 1035.34	-1711.34	  391.63
     98.4700	  946.00	  974.03	-1774.03	  391.39
     98.5700	  941.00	  921.69	-1726.69	  391.16
     98.6700	  878.00	  880.14	-1748.14	  390.93
     98.7700	  782.00	  850.75	-1814.75	  390.69
     98.8700	  776.00	  834.46	-1804.46	  390.46
     98.9700	  780.00	  831.96	-1797.96	  390.22
     99.0700	  806.00	  843.61	-1783.61	  389.99
     99.1700	  843.00	  869.64	-1772.64	  389.75
     99.2700	  866.00	  910.04	-1790.04	  389.51
     99.3700	  941.00	  964.56	-1769.56	  389.27
     99.4700	 1074.00	 1032.65	-1704.65	  389.03
     99.5700	 1094.00	 1113.37	-1765.37	  388.79
     99.6700	 1197.00	 1205.32	-1754.32	  388.55
     99.7700	 1267.00	 1306.50	-1785.50	  388.31
     99.8700	 1382.00	 1414.23	-1778.23	  388.07
     99.9700	 1603.00	 1525.11	-1668.11	  387.82
    100.0700	 1671.00	 1635.10	-1710.10	  387.58
    100.1700	 1746.00	 1739.74	-1739.74	  387.34
    100.2700	 1859.00	 1834.49	-1721.49	  387.09
    100.3700	 1926.00	 1915.26	-1735.26	  386.85
    100.4700	 2013.00	 1978.83	-1711.83	  386.60
    100.5700	 2076.00	 2022.98	-1692.98	  386.35
    100.6700	 2056.00	 2046.33	-1736.33	  386.11
    100.7700	 2110.00	 2048.11	-1684.11	  385.86
    100.8700	 2064.00	 2028.21	-1710.21	  385.61
    100.9700	 1983.00	 1987.41	-1750.41	  385.36
    101.0700	 1962.00	 1927.70	-1711.70	  385.11
    101.1700	 1895.00	 1852.46	-1703.46	  384.86
    101.2700	 1825.00	 1766.16	-1687.16	  384.61
    101.3700	 1720.00	 1673.88	-1699.88	  384.36
    101.4700	 1534.00	 1580.65	-1792.65	  384.11
    101.5700	 1523.00	 1490.93	-1713.93	  383.86
    101.6700	 1458.00	 1408.27	-1696.27	  383.61
    101.7700	 1366.00	 1335.24	-1715.24	  383.36
    101.8700	 1250.00	 1273.32	-1769.32	  383.11
    101.9700	 1236.00	 1222.91	-1732.91	  382.86
    102.0700	 1159.00	 1183.45	-1770.45	  382.60
    102.1700	 1122.00	 1153.48	-1777.48	  382.35
    102.2700	 1169.00	 1130.86	-1707.86	  382.10
    102.3700	 1111.00	 1112.98	-1747.98	  381.85
    102.4700	 1163.00	 1097.06	-1680.06	  381.59
    102.5700	 1031.00	 1080.42	-1795.42	  381.34
    102.6700	 1065.00	 1060.90	-1741.90	  381.08
    102.7700	 1042.00	 1037.13	-1741.13	  380.83
    102.8700	  976.00	 1008.60	-1778.60	  380.58
    102.9700	  949.00	  975.61	-1772.61	  380.32
    103.0700	  917.00	  938.99	-1767.99	  380.07
    103.1700	  871.00	  899.93	-1774.93	  379.82
    103.2700	  851.00	  859.71	-1754.71	  379.56
    103.3700	  787.00	  819.60	-1778.60	  379.31
    103.4700	  824.00	  780.76	-1702.76	  379.05
    103.5700	  742.00	  744.15	-1748.15	  378.80
    103.6700	  732.00	  710.51	-1724.51	  378.55
    103.7700	  683.00	  680.37	-1743.37	  378.29
    103.8700	  659.00	  654.01	-1741.01	  378.04
    103.9700	  672.00	  631.52	-1705.52	  377.78
    104.0700	  593.00	  612.79	-1765.79	  377.53
    104.1700	  564.00	  597.59	-1779.59	  377.28
    104.2700	  584.00	  585.59	-1747.59	  377.02
    104.3700	  561.00	  576.42	-1761.42	  376.77
    104.4700	  564.00	  569.66	-1751.66	  376.52
    104.5700	  569.00	  564.94	-1741.94	  376.27
    104.6700	  600.00	  561.88	-1707.88	  376.01
    104.7700	  569.00	  560.16	-1737.16	  375.76
    104.8700	  574.00	  559.51	-1731.51	  375.51
    104.9700	  545.00	  559.68	-1760.68	  375.26
    105.0700	  532.00	  560.50	-1774.50	  375.01
    105.1700	  544.00	  561.82	-1763.82	  374.76
    105.2700	  543.00	  563.55	-1766.55	  374.51
    105.3700	  548.00	  565.62	-1763.62	  374.26
    105.4700	  530.00	  568.03	-1784.03	  374.01
    105.5700	  554.00	  570.80	-1762.80	  373.76
    105.6700	  529.00	  574.01	-1791.01	  373.52
    105.7700	  511.00	  577.77	-1812.77	  373.27
    105.8700	  584.00	  582.18	-1744.18	  373.02
    105.9700	  594.00	  587.37	-1739.37	  372.78
    106.0700	  571.00	  593.42	-1768.42	  372.53
    106.1700	  587.00	  600.38	-1759.38	  372.29
    106.2700	  580.00	  608.24	-1774.24	  372.04
    106.3700	  620.00	  616.90	-1742.90	  371.80
    106.4700	  623.00	  626.23	-1749.23	  371.56
    106.5700	  597.00	  636.00	-1785.00	  371.32
    106.6700	  592.00	  645.93	-1799.93	  371.08
    106.7700	  627.00	  655.69	-1774.69	  370.84
    106.8700	  664.00	  664.90	-1746.90	  370.60
    106.9700	  658.00	  673.17	-1761.17	  370.36
    107.0700	  660.00	  680.13	-1766.13	  370.12
    107.1700	  647.00	  685.49	-1784.49	  369.89
    107.2700	  679.00	  689.10	-1756.10	  369.65
    107.3700	  680.00	  690.95	-1756.95	  369.42
    107.4700	  665.00	  691.22	-1772.22	  369.18
    107.5700	  693.00	  690.22	-1743.22	  368.95
    107.6700	  712.00	  688.38	-1722.38	  368.72
    107.7700	  685.00	  686.14	-1747.14	  368.49
    107.8700	  654.00	  683.89	-1775.89	  368.26
    107.9700	  645.00	  681.98	-1782.98	  368.03
    108.0700	  695.00	  680.67	-1731.67	  367.81
    108.1700	  696.00	  680.08	-1730.08	  367.58
    108.2700	  678.00	  680.24	-1748.24	  367.36
    108.3700	  660.00	  681.04	-1767.04	  367.13
    108.4700	  696.00	  682.27	-1732.27	  366.91
    108.5700	  680.00	  683.63	-1749.63	  366.69
    108.6700	  655.00	  684.74	-1775.74	  366.48
    108.7700	  674.00	  685.20	-1757.20	  366.26
    108.8700	  646.00	  684.61	-1784.61	  366.04
    108.9700	  670.00	  682.65	-1758.65	  365.83
    109.0700	  692.00	  679.10	-1733.10	  365.62
    109.1700	  700.00	  673.90	-1719.90	  365.40
    109.2700	  680.00	  667.13	-1733.13	  365.20
    109.3700	  657.00	  658.99	-1747.99	  364.99
    109.4700	  682.00	  649.77	-1713.77	  364.78
    109.5700	  643.00	  639.80	-1742.80	  364.58
    109.6700	  672.00	  629.41	-1703.41	  364.37
    109.7700	  613.00	  618.94	-1751.94	  364.17
    109.8700	  611.00	  608.68	-1743.68	  363.97
    109.9700	  622.00	  598.91	-1722.91	  363.78
    110.0700	  599.00	  589.82	-1736.82	  363.58
    110.1700	  605.00	  581.58	-1722.58	  363.39
    110.2700	  589.00	  574.29	-1731.29	  363.19
    110.3700	  562.00	  568.02	-1752.02	  363.00
    110.4700	  525.00	  562.77	-1783.77	  362.82
    110.5700	  556.00	  558.53	-1748.53	  362.63
    110.6700	  514.00	  555.23	-1787.23	  362.45
    110.7700	  561.00	  552.81	-1737.81	  362.27
    110.8700	  514.00	  551.17	-1783.17	  362.09
    110.9700	  588.00	  550.22	-1708.22	  361.91
    111.0700	  587.00	  549.88	-1708.88	  361.73
    111.1700	  525.00	  550.05	-1771.05	  361.56
    111.2700	  544.00	  550.66	-1752.66	  361.39
    111.3700	  594.00	  551.64	-1703.64	  361.22
    111.4700	  530.00	  552.94	-1768.94	  361.05
    111.5700	  529.00	  554.51	-1771.51	  360.89
    111.6700	  527.00	  556.32	-1775.32	  360.73
    111.7700	  548.00	  558.34	-1756.34	  360.57
    111.8700	  528.00	  560.56	-1778.56	  360.41
    111.9700	  555.00	  562.98	-1753.98	  360.26
    112.0700	  573.00	  565.59	-1738.59	  360.11
    112.1700	  545.00	  568.42	-1769.42	  359.96
    112.2700	  594.00	  571.48	-1723.48	  359.81
    112.3700	  567.00	  574.80	-1753.80	  359.67
    112.4700	  661.00	  578.42	-1663.42	  359.53
    112.5700	  621.00	  582.40	-1707.40	  359.39
    112.6700	  616.00	  586.79	-1716.79	  359.26
    112.7700	  652.00	  591.70	-1685.70	  359.13
    112.8700	  629.00	  597.22	-1714.22	  359.00
    112.9700	  695.00	  603.50	-1654.50	  358.87
    113.0700	  712.00	  610.74	-1644.74	  358.75
    113.1700	  690.00	  619.16	-1675.16	  358.63
    113.2700	  688.00	  629.10	-1687.10	  358.51
    113.3700	  694.00	  640.95	-1692.95	  358.39
    113.4700	  769.00	  655.22	-1632.22	  358.28
    113.5700	  831.00	  672.53	-1587.53	  358.17
    113.6700	  814.00	  693.68	-1625.68	  358.07
    113.7700	  892.00	  719.62	-1573.62	  357.97
    113.8700	  923.00	  751.50	-1574.50	  357.87
    113.9700	  885.00	  790.67	-1651.67	  357.77
    114.0700	  962.00	  838.69	-1622.69	  357.68
    114.1700	 1052.00	  897.38	-1591.38	  357.59
    114.2700	 1156.00	  968.69	-1558.69	  357.51
    114.3700	 1235.00	 1054.81	-1565.81	  357.43
    114.4700	 1318.00	 1157.97	-1585.97	  357.35
    114.5700	 1458.00	 1280.54	-1568.54	  357.27
    114.6700	 1524.00	 1424.81	-1646.81	  357.20
    114.7700	 1785.00	 1592.90	-1553.90	  357.14
    114.8700	 1914.00	 1786.64	-1618.64	  357.07
    114.9700	 2133.00	 2007.39	-1620.39	  357.01
    115.0700	 2302.00	 2255.99	-1699.99	  356.96
    115.1700	 2592.00	 2532.52	-1686.52	  356.91
    115.2700	 2862.00	 2836.09	-1720.09	  356.86
    115.3700	 3135.00	 3164.82	-1775.82	  356.81
    115.4700	 3421.00	 3515.65	-1840.65	  356.77
    115.5700	 3706.00	 3884.43	-1924.43	  356.74
    115.6700	 3999.00	 4265.80	-2012.80	  356.70
    115.7700	 4482.00	 4653.04	-1917.04	  356.68
    115.8700	 4671.00	 5038.33	-2113.33	  356.65
    115.9700	 5181.00	 5412.72	-1977.72	  356.63
    116.0700	 5472.00	 5766.45	-2040.45	  356.62
    116.1700	 5986.00	 6089.09	-1849.09	  356.61
    116.2700	 6138.00	 6369.85	-1977.85	  356.60
    116.3700	 6522.00	 6598.33	-1822.33	  356.60
    116.4700	 6801.00	 6765.23	-1710.23	  356.60
    116.5700	 6896.00	 6863.34	-1713.34	  356.60
    116.6700	 6984.00	 6888.25	-1650.25	  356.62
    116.7700	 6958.00	 6838.94	-1626.94	  356.63
    116.8700	 6860.00	 6718.02	-1604.02	  356.65
    116.9700	 6679.00	 6531.31	-1598.31	  356.68
    117.0700	 6364.00	 6287.07	-1669.07	  356.71
    117.1700	 5984.00	 5995.10	-1757.10	  356.74
    117.2700	 5554.00	 5665.99	-1857.99	  356.78
    117.3700	 5171.00	 5310.34	-1885.34	  356.82
    117.4700	 5006.00	 4938.33	-1678.33	  356.87
    117.5700	 4586.00	 4559.20	-1719.20	  356.93
    117.6700	 4272.00	 4181.17	-1655.17	  356.98
    117.7700	 3920.00	 3811.46	-1637.46	  357.05
    117.8700	 3536.00	 3455.98	-1665.98	  357.12
    117.9700	 3305.00	 3119.51	-1560.51	  357.19
    118.0700	 2906.00	 2805.48	-1645.48	  357.27
    118.1700	 2639.00	 2516.24	-1623.24	  357.35
    118.2700	 2289.00	 2253.18	-1710.18	  357.44
    118.3700	 2070.00	 2016.73	-1692.73	  357.54
    118.4700	 1786.00	 1806.56	-1766.56	  357.64
    118.5700	 1532.00	 1621.68	-1835.68	  357.75
    118.6700	 1297.00	 1460.59	-1909.59	  357.86
    118.7700	 1214.00	 1321.53	-1853.53	  357.98
    118.8700	 1071.00	 1202.46	-1877.46	  358.10
    118.9700	 1060.00	 1101.27	-1787.27	  358.23
    119.0700	  975.00	 1015.82	-1786.82	  358.36
    119.1700	  872.00	  944.04	-1818.04	  358.50
    119.2700	  825.00	  884.02	-1805.02	  358.65
    119.3700	  758.00	  833.98	-1821.98	  358.80
    119.4700	  712.00	  792.38	-1826.38	  358.96
    119.5700	  733.00	  757.81	-1770.81	  359.12
    119.6700	  648.00	  729.10	-1827.10	  359.29
    119.7700	  660.00	  705.24	-1791.24	  359.47
    119.8700	  614.00	  685.39	-1817.39	  359.65
    119.9700	  618.00	  668.85	-1796.85	  359.84
    120.0700	  628.00	  655.06	-1773.06	  360.03
    120.1700	  612.00	  643.55	-1777.55	  360.23
    120.2700	  551.00	  633.94	-1828.94	  360.44
    120.3700	  564.00	  625.95	-1807.95	  360.65
    120.4700	  590.00	  619.33	-1775.33	  360.87
    120.5700	  631.00	  613.90	-1728.90	  361.10
    120.6700	  524.00	  609.52	-1831.52	  361.33
    120.7700	  608.00	  606.06	-1744.06	  361.57
    120.8700	  559.00	  603.45	-1790.45	  361.82
    120.9700	  615.00	  601.61	-1732.61	  362.07
    121.0700	  581.00	  600.50	-1765.50	  362.33
    121.1700	  582.00	  600.05	-1764.05	  362.60
    121.2700	  535.00	  600.22	-1811.22	  362.87
    121.3700	  617.00	  600.99	-1729.99	  363.15
    121.4700	  591.00	  602.29	-1757.29	  363.44
    121.5700	  602.00	  604.09	-1748.09	  363.74
    121.6700	  583.00	  606.33	-1769.33	  364.04
    121.7700	  590.00	  608.94	-1764.94	  364.35
    121.8700	  603.00	  611.84	-1754.84	  364.67
    121.9700	  602.00	  614.98	-1758.98	  364.99
    122.0700	  595.00	  618.26	-1769.26	  365.32
    122.1700	  591.00	  621.58	-1776.58	  365.66
    122.2700	  644.00	  624.85	-1726.85	  366.01
    122.3700	  608.00	  627.95	-1765.95	  366.36
    122.4700	  614.00	  630.78	-1762.78	  366.72
    122.5700	  624.00	  633.24	-1755.24	  367.09
    122.6700	  624.00	  635.23	-1757.23	  367.47
    122.7700	  653.00	  636.69	-1729.69	  367.86
    122.8700	  671.00	  637.55	-1712.55	  368.25
    122.9700	  659.00	  637.79	-1724.79	  368.65
    123.0700	  683.00	  637.39	-1700.39	  369.06
    123.1700	  681.00	  636.39	-1701.39	  369.48
    123.2700	  647.00	  634.81	-1733.81	  369.90
    123.3700	  633.00	  632.72	-1745.72	  370.34
    123.4700	  642.00	  630.19	-1734.19	  370.78
    123.5700	  632.00	  627.29	-1741.29	  371.23
    123.6700	  654.00	  624.09	-1716.09	  371.69
    123.7700	  640.00	  620.68	-1726.68	  372.16
    123.8700	  607.00	  617.12	-1756.12	  372.63
    123.9700	  612.00	  613.49	-1747.49	  373.12
    124.0700	  642.00	  609.86	-1713.86	  373.61
    124.1700	  623.00	  606.27	-1729.27	  374.11
    124.2700	  628.00	  602.78	-1720.78	  374.62
    124.3700	  621.00	  599.44	-1724.44	  375.14
    124.4700	  617.00	  596.27	-1725.27	  375.67
    124.5700	  643.00	  593.31	-1696.31	  376.21
    124.6700	  607.00	  590.57	-1729.57	  376.76
    124.7700	  595.00	  588.08	-1739.08	  377.31
    124.8700	  627.00	  585.84	-1704.84	  377.88
    124.9700	  633.00	  497.32	-1610.32	  378.45
    125.0700	  569.00	  497.90	-1746.00	  379.03
    125.1700	  602.00	  498.49	-1746.00	  379.63
    125.2700	  572.00	  499.09	-1746.00	  380.23
    125.3700	  578.00	  499.71	-1746.00	  380.84
    125.4700	  571.00	  500.33	-1746.00	  381.46
    125.5700	  566.00	  500.96	-1746.00	  382.09
    125.6700	  532.00	  501.60	-1746.00	  382.73
    125.7700	  574.00	  502.25	-1746.00	  383.39
    125.8700	  539.00	  502.91	-1746.00	  384.05
    125.9700	  585.00	  503.58	-1746.00	  384.72
    126.0700	  593.00	  504.26	-1746.00	  385.40
    126.1700	  553.00	  504.95	-1746.00	  386.09
    126.2700	  574.00	  505.66	-1746.00	  386.79
    126.3700	  547.00	  506.37	-1746.00	  387.50
    126.4700	  628.00	  507.09	-1746.00	  388.22
    126.5700	  589.00	  507.82	-1746.00	  388.95
    126.6700	  569.00	  508.56	-1746.00	  389.70
    126.7700	  590.00	  509.32	-1746.00	  390.45
    126.8700	  631.00	  510.08	-1746.00	  391.21
    126.9700	  649.00	  510.85	-1746.00	  391.99
    127.0700	  630.00	  511.64	-1746.00	  392.77
    127.1700	  632.00	  512.43	-1746.00	  393.57
    127.2700	  628.00	  513.24	-1746.00	  394.37
    127.3700	  645.00	  514.06	-1746.00	  395.19
    127.4700	  605.00	  514.89	-1746.00	  396.02
    127.5700	  672.00	  515.73	-1746.00	  396.86
    127.6700	  696.00	  516.58	-1746.00	  397.71
    127.7700	  763.00	  517.44	-1746.00	  398.57
    127.8700	  705.00	  518.31	-1746.00	  399.45
    127.9700	  737.00	  519.20	-1746.00	  400.33
    128.0700	  738.00	  520.09	-1746.00	  401.23
    128.1700	  718.00	  521.00	-1746.00	  402.14
    128.2700	  818.00	  521.92	-1746.00	  403.06
    128.3700	  869.00	  522.85	-1746.00	  403.99
    128.4700	  841.00	  523.80	-1746.00	  404.93
    128.5700	    0.00	  524.75	-1746.00	  405.89
    128.6700	    0.00	  525.72	-1746.00	  406.85
     12.2992	        	        	        	        	       0	(  0  0  2)	  0  1
     24.8798	        	        	        	        	       0	(  0  0  4)	  0  1
     28.3266	        	        	        	        	       0	(  1  0  0)	  0  1
     29.0235	        	        	        	        	       0	(  1  0  1)	  0  1
     31.0290	        	        	        	        	       0	(  1  0  2)	  0  1
     34.1363	        	        	        	        	       0	(  1  0  3)	  0  1
     37.7763	        	        	        	        	       0	(  0  0  6)	  0  1
     38.1120	        	        	        	        	       0	(  1  0  4)	  0  1
     42.7606	        	        	        	        	       0	(  1  0  5)	  0  1
     47.9431	        	        	        	        	       0	(  1  0  6)	  0  1
     50.2635	        	        	        	        	       0	(  1  1  0)	  0  1
     51.1946	        	        	        	        	       0	(  0  0  8)	  0  1
     51.9859	        	        	        	        	       0	(  1  1  2)	  0  1
     53.5718	        	        	        	        	       0	(  1  0  7)	  0  1
     56.9319	        	        	        	        	       0	(  1  1  4)	  0  1
     58.7605	        	        	        	        	       0	(  2  0  0)	  0  1
     59.1520	        	        	        	        	       0	(  2  0  1)	  0  1
     59.6003	        	        	        	        	       0	(  1  0  8)	  0  1
     60.3169	        	        	        	        	       0	(  2  0  2)	  0  1
     62.2294	        	        	        	        	       0	(  2  0  3)	  0  1
     64.6237	        	        	        	        	       0	(  1  1  6)	  0  1
     64.8524	        	        	        	        	       0	(  2  0  4)	  0  1
     65.4196	        	        	        	        	       0	(  0  0 10)	  0  1
     66.0145	        	        	        	        	       0	(  1  0  9)	  0  1
     68.1454	        	        	        	        	       0	(  2  0  5)	  0  1
     72.0714	        	        	        	        	       0	(  2  0  6)	  0  1
     72.8283	        	        	        	        	       0	(  1  0 10)	  0  1
     74.6577	        	        	        	        	       0	(  1  1  8)	  0  1
     76.6038	        	        	        	        	       0	(  2  0  7)	  0  1
     80.0832	        	        	        	        	       0	(  1  0 11)	  0  1
     80.8945	        	        	        	        	       0	(  0  0 12)	  0  1
     81.0018	        	        	        	        	       0	(  2  1  0)	  0  1
     81.3415	        	        	        	        	       0	(  2  1  1)	  0  1
     81.7320	        	        	        	        	       0	(  2  0  8)	  0  1
     82.3590	        	        	        	        	       0	(  2  1  2)	  0  1
     84.0496	        	        	        	        	       0	(  2  1  3)	  0  1
     86.4083	        	        	        	        	       0	(  2  1  4)	  0  1
     86.9242	        	        	        	        	       0	(  1  1 10)	  0  1
     87.4677	        	        	        	        	       0	(  2  0  9)	  0  1
     87.8543	        	        	        	        	       0	(  1  0 12)	  0  1
     89.4328	        	        	        	        	       0	(  2  1  5)	  0  1
     93.1287	        	        	        	        	       0	(  2  1  6)	  0  1
     93.8523	        	        	        	        	       0	(  2  0 10)	  0  1
     94.8907	        	        	        	        	       0	(  3  0  0)	  0  1
     95.2280	        	        	        	        	       0	(  3  0  1)	  0  1
     96.2408	        	        	        	        	       0	(  3  0  2)	  0  1
     96.2636	        	        	        	        	       0	(  1  0 13)	  0  1
     97.5153	        	        	        	        	       0	(  2  1  7)	  0  1
     97.9333	        	        	        	        	       0	(  3  0  3)	  0  1
     98.4259	        	        	        	        	       0	(  0  0 14)	  0  1
    100.3153	        	        	        	        	       0	(  3  0  4)	  0  1
    100.9708	        	        	        	        	       0	(  2  0 11)	  0  1
    101.7877	        	        	        	        	       0	(  1  1 12)	  0  1
    102.6355	        	        	        	        	       0	(  2  1  8)	  0  1
    103.4056	        	        	        	        	       0	(  3  0  5)	  0  1
    105.5113	        	        	        	        	       0	(  1  0 14)	  0  1
    107.2390	        	        	        	        	       0	(  3  0  6)	  0  1
    108.5694	        	        	        	        	       0	(  2  1  9)	  0  1
    108.9778	        	        	        	        	       0	(  2  0 12)	  0  1
    111.8771	        	        	        	        	       0	(  3  0  7)	  0  1
    115.4626	        	        	        	        	       0	(  2  1 10)	  0  1
    115.9480	        	        	        	        	       0	(  1  0 15)	  0  1
    116.6161	        	        	        	        	       0	(  2  2  0)	  0  1
    117.4277	        	        	        	        	       0	(  3  0  8)	  0  1
    118.1306	        	        	        	        	       0	(  2  2  2)	  0  1
    118.1565	        	        	        	        	       0	(  2  0 13)	  0  1
    119.9001	        	        	        	        	       0	(  0  0 16)	  0  1
    120.6202	        	        	        	        	       0	(  1  1 14)	  0  1
    122.8141	        	        	        	        	       0	(  2  2  4)	  0  1
    123.5848	        	        	        	        	       0	(  2  1 11)	  0  1
    124.0840	        	        	        	        	       0	(  3  0  9)	  0  1
    124.6816	        	        	        	        	       0	(  3  1  0)	  0  1
    125.0917	        	        	        	        	       0	(  3  1  1)	  0  1
    126.3346	        	        	        	        	       0	(  3  1  2)	  0  1
    128.2810	        	        	        	        	       0	(  1  0 16)	  0  1
    128.4519	        	        	        	        	       0	(  3  1  3)	  0  1
    129.0781	        	        	        	        	       0	(  2  0 14)	  0  1
    131.2499	        	        	        	        	       0	(  2  2  6)	  0  1
    131.5265	        	        	        	        	       0	(  3  1  4)	  0  1
    132.2197	        	        	        	        	       0	(  3  0 10)	  0  1
    133.4900	        	        	        	        	       0	(  2  1 12)	  0  1
    135.7116	        	        	        	        	       0	(  3  1  5)	  0  1
    141.3042	        	        	        	        	       0	(  3  1  6)	  0  1
    142.6904	        	        	        	        	       0	(  3  0 11)	  0  1
    143.2033	        	        	        	        	       0	(  2  0 15)	  0  1
    144.4304	        	        	        	        	       0	(  1  0 17)	  0  1
    145.4759	        	        	        	        	       0	(  2  2  8)	  0  1
    146.6330	        	        	        	        	       0	(  2  1 13)	  0  1
    148.9732	        	        	        	        	       0	(  3  1  7)	  0  1
    149.5236	        	        	        	        	       0	(  1  1 16)	  0  1
    153.9019	        	        	        	        	       0	(  0  0 18)	  0  1
    158.5499	        	        	        	        	       0	(  3  0 12)	  0  1
    158.8435	        	        	        	        	       0	(  4  0  0)	  0  1
    159.8004	        	        	        	        	       0	(  4  0  1)	  0  1
    160.9584	        	        	        	        	       0	(  3  1  8)	  0  1
    162.9796	        	        	        	        	       0	(  4  0  2)	  0  1
    169.5548	        	        	        	        	       0	(  2  0 16)	  0  1
    170.3311	        	        	        	        	       0	(  4  0  3)	  0  1
    173.9582	        	        	        	        	       0	(  2  1 14)	  0  1
