MSG Master    CELL:    5.91800   5.91800  23.27460   90.0000   90.0000  120.0000   SPGR: P 63/m m c             TEMP:   1046.85
  1   1280     2.52000     0.00000    -0.13126     0.00000     0.00000    0
    99     0     2
       0.00000      10.00000
     125.00000     130.00000
 2Theta	Yobs	Ycal	Yobs-Ycal	Backg	Posr	(hkl)	K
      0.7700	    0.00	  480.74	-1716.00	  365.69
      0.8700	    0.00	  482.26	-1716.00	  367.21
      0.9700	   47.00	  483.76	-1716.00	  368.71
      1.0700	   37.00	  485.24	-1716.00	  370.20
      1.1700	   50.00	  486.71	-1716.00	  371.66
      1.2700	   33.00	  488.16	-1716.00	  373.11
      1.3700	   53.00	  489.59	-1716.00	  374.55
      1.4700	   98.00	  491.01	-1716.00	  375.96
      1.5700	  268.00	  492.40	-1716.00	  377.36
      1.6700	  483.00	  493.79	-1716.00	  378.74
      1.7700	  548.00	  495.15	-1716.00	  380.10
      1.8700	  668.00	  496.50	-1716.00	  381.45
      1.9700	  689.00	  497.83	-1716.00	  382.78
      2.0700	  745.00	  499.14	-1716.00	  384.10
      2.1700	  780.00	  500.44	-1716.00	  385.40
      2.2700	  713.00	  501.72	-1716.00	  386.68
      2.3700	  749.00	  502.99	-1716.00	  387.95
      2.4700	  722.00	  504.24	-1716.00	  389.20
      2.5700	  687.00	  505.47	-1716.00	  390.43
      2.6700	  662.00	  506.69	-1716.00	  391.65
      2.7700	  677.00	  507.90	-1716.00	  392.85
      2.8700	  628.00	  509.08	-1716.00	  394.04
      2.9700	  642.00	  510.25	-1716.00	  395.21
      3.0700	  622.00	  511.41	-1716.00	  396.36
      3.1700	  602.00	  512.55	-1716.00	  397.50
      3.2700	  640.00	  513.68	-1716.00	  398.63
      3.3700	  656.00	  514.79	-1716.00	  399.74
      3.4700	  804.00	  515.88	-1716.00	  400.83
      3.5700	  783.00	  516.96	-1716.00	  401.92
      3.6700	  919.00	  518.03	-1716.00	  402.98
      3.7700	  965.00	  519.08	-1716.00	  404.03
      3.8700	 1047.00	  520.11	-1716.00	  405.07
      3.9700	 1061.00	  521.13	-1716.00	  406.09
      4.0700	 1079.00	  522.14	-1716.00	  407.10
      4.1700	 1060.00	  523.13	-1716.00	  408.09
      4.2700	 1166.00	  524.11	-1716.00	  409.07
      4.3700	 1117.00	  525.08	-1716.00	  410.03
      4.4700	 1085.00	  526.03	-1716.00	  410.98
      4.5700	 1036.00	  526.97	-1716.00	  411.92
      4.6700	 1050.00	  527.89	-1716.00	  412.84
      4.7700	 1022.00	  528.80	-1716.00	  413.75
      4.8700	  983.00	  529.69	-1716.00	  414.65
      4.9700	  965.00	  530.57	-1716.00	  415.53
      5.0700	  916.00	  531.44	-1716.00	  416.40
      5.1700	  934.00	  532.30	-1716.00	  417.25
      5.2700	  922.00	  533.14	-1716.00	  418.09
      5.3700	  930.00	  533.97	-1716.00	  418.92
      5.4700	  918.00	  534.78	-1716.00	  419.74
      5.5700	  855.00	  535.59	-1716.00	  420.54
      5.6700	  918.00	  536.38	-1716.00	  421.33
      5.7700	  789.00	  537.15	-1716.00	  422.11
      5.8700	  856.00	  537.92	-1716.00	  422.87
      5.9700	  816.00	  538.67	-1716.00	  423.62
      6.0700	  791.00	  539.41	-1716.00	  424.36
      6.1700	  807.00	  540.14	-1716.00	  425.09
      6.2700	  772.00	  540.85	-1716.00	  425.81
      6.3700	  771.00	  541.55	-1716.00	  426.51
      6.4700	  763.00	  542.24	-1716.00	  427.20
      6.5700	  744.00	  542.92	-1716.00	  427.88
      6.6700	  782.00	  543.59	-1716.00	  428.54
      6.7700	  773.00	  544.24	-1716.00	  429.20
      6.8700	  692.00	  544.89	-1716.00	  429.84
      6.9700	  661.00	  545.52	-1716.00	  430.47
      7.0700	  703.00	  546.14	-1716.00	  431.09
      7.1700	  692.00	  546.74	-1716.00	  431.70
      7.2700	  714.00	  547.34	-1716.00	  432.29
      7.3700	  701.00	  547.92	-1716.00	  432.88
      7.4700	  684.00	  548.50	-1716.00	  433.45
      7.5700	  685.00	  549.06	-1716.00	  434.02
      7.6700	  706.00	  549.61	-1716.00	  434.57
      7.7700	  638.00	  550.15	-1716.00	  435.11
      7.8700	  694.00	  550.68	-1716.00	  435.64
      7.9700	  651.00	  551.20	-1716.00	  436.16
      8.0700	  641.00	  551.71	-1716.00	  436.66
      8.1700	  631.00	  552.21	-1716.00	  437.16
      8.2700	  580.00	  552.69	-1716.00	  437.65
      8.3700	  640.00	  553.17	-1716.00	  438.12
      8.4700	  649.00	  553.64	-1716.00	  438.59
      8.5700	  648.00	  554.09	-1716.00	  439.05
      8.6700	  653.00	  554.54	-1716.00	  439.49
      8.7700	  620.00	  554.97	-1716.00	  439.93
      8.8700	  653.00	  555.40	-1716.00	  440.35
      8.9700	  611.00	  555.81	-1716.00	  440.77
      9.0700	  610.00	  556.22	-1716.00	  441.17
      9.1700	  650.00	  556.61	-1716.00	  441.57
      9.2700	  621.00	  557.00	-1716.00	  441.95
      9.3700	  593.00	  557.38	-1716.00	  442.33
      9.4700	  611.00	  557.74	-1716.00	  442.70
      9.5700	  605.00	  558.10	-1716.00	  443.05
      9.6700	  581.00	  558.45	-1716.00	  443.40
      9.7700	  583.00	  558.79	-1716.00	  443.74
      9.8700	  545.00	  559.12	-1716.00	  444.07
      9.9700	  556.00	  559.44	-1716.00	  444.39
     10.0700	  592.00	  560.93	-1684.94	  444.70
     10.1700	  608.00	  561.37	-1669.37	  445.00
     10.2700	  583.00	  561.83	-1694.83	  445.30
     10.3700	  595.00	  562.33	-1683.33	  445.58
     10.4700	  594.00	  562.90	-1684.90	  445.85
     10.5700	  598.00	  563.62	-1681.62	  446.12
     10.6700	  552.00	  564.57	-1728.57	  446.38
     10.7700	  560.00	  565.85	-1721.85	  446.63
     10.8700	  573.00	  567.54	-1710.54	  446.87
     10.9700	  605.00	  569.62	-1680.62	  447.10
     11.0700	  565.00	  572.08	-1723.08	  447.33
     11.1700	  590.00	  574.93	-1700.93	  447.54
     11.2700	  527.00	  578.21	-1767.21	  447.75
     11.3700	  559.00	  582.01	-1739.01	  447.95
     11.4700	  600.00	  586.48	-1702.48	  448.14
     11.5700	  606.00	  591.84	-1701.84	  448.32
     11.6700	  568.00	  598.48	-1746.48	  448.50
     11.7700	  606.00	  606.99	-1716.99	  448.67
     11.8700	  663.00	  617.99	-1670.99	  448.83
     11.9700	  642.00	  631.42	-1705.42	  448.98
     12.0700	  715.00	  645.06	-1646.06	  449.12
     12.1700	  682.00	  653.38	-1687.38	  449.26
     12.2700	  678.00	  648.73	-1686.73	  449.39
     12.3700	  655.00	  629.86	-1690.86	  449.51
     12.4700	  616.00	  607.30	-1707.30	  449.63
     12.5700	  600.00	  589.96	-1705.96	  449.74
     12.6700	  579.00	  579.49	-1716.49	  449.84
     12.7700	  555.00	  574.06	-1735.06	  449.93
     12.8700	  560.00	  571.38	-1727.38	  450.02
     12.9700	  589.00	  569.95	-1696.95	  450.10
     13.0700	  588.00	  569.07	-1697.07	  450.17
     13.1700	  589.00	  568.47	-1695.47	  450.23
     13.2700	  546.00	  568.03	-1738.03	  450.29
     13.3700	  562.00	  567.70	-1721.70	  450.34
     13.4700	  518.00	  567.44	-1765.44	  450.39
     13.5700	  569.00	  567.24	-1714.24	  450.43
     13.6700	  566.00	  567.07	-1717.07	  450.46
     13.7700	  577.00	  566.94	-1705.94	  450.49
     13.8700	  553.00	  566.82	-1729.82	  450.51
     13.9700	  525.00	  566.72	-1757.72	  450.52
     14.0700	  547.00	  566.63	-1735.63	  450.53
     14.1700	  538.00	  566.55	-1744.55	  450.53
     14.2700	  549.00	  566.47	-1733.47	  450.52
     14.3700	  552.00	  566.40	-1730.40	  450.51
     14.4700	  551.00	  566.33	-1731.33	  450.50
     14.5700	  581.00	  566.25	-1701.25	  450.47
     14.6700	  531.00	  566.18	-1751.18	  450.44
     14.7700	  528.00	  566.11	-1754.11	  450.41
     14.8700	  494.00	  566.03	-1788.03	  450.37
     14.9700	  537.00	  565.96	-1744.96	  450.32
     15.0700	  551.00	  565.88	-1730.88	  450.27
     15.1700	  558.00	  565.83	-1723.83	  450.21
     15.2700	  586.00	  565.74	-1695.74	  450.15
     15.3700	  524.00	  565.65	-1757.65	  450.08
     15.4700	  548.00	  565.56	-1733.56	  450.01
     15.5700	  557.00	  565.47	-1724.47	  449.93
     15.6700	  551.00	  565.37	-1730.37	  449.85
     15.7700	  584.00	  565.26	-1697.26	  449.76
     15.8700	  541.00	  565.16	-1740.16	  449.66
     15.9700	  554.00	  565.05	-1727.05	  449.56
     16.0700	  594.00	  564.93	-1686.93	  449.46
     16.1700	  582.00	  564.81	-1698.81	  449.35
     16.2700	  552.00	  564.69	-1728.69	  449.24
     16.3700	  536.00	  564.56	-1744.56	  449.12
     16.4700	  558.00	  564.43	-1722.43	  448.99
     16.5700	  566.00	  564.30	-1714.30	  448.86
     16.6700	  560.00	  564.16	-1720.16	  448.73
     16.7700	  576.00	  564.01	-1704.01	  448.59
     16.8700	  546.00	  563.87	-1733.87	  448.45
     16.9700	  562.00	  563.72	-1717.72	  448.30
     17.0700	  599.00	  563.56	-1680.56	  448.15
     17.1700	  558.00	  563.40	-1721.40	  448.00
     17.2700	  593.00	  563.24	-1686.24	  447.84
     17.3700	  571.00	  563.07	-1708.07	  447.67
     17.4700	  592.00	  562.90	-1686.90	  447.51
     17.5700	  543.00	  562.72	-1735.72	  447.33
     17.6700	  529.00	  562.54	-1749.54	  447.16
     17.7700	  605.00	  562.36	-1673.36	  446.98
     17.8700	  570.00	  562.17	-1708.17	  446.79
     17.9700	  582.00	  562.10	-1696.10	  446.60
     18.0700	  570.00	  561.91	-1707.91	  446.41
     18.1700	  553.00	  561.71	-1724.71	  446.22
     18.2700	  513.00	  561.51	-1764.51	  446.02
     18.3700	  555.00	  561.31	-1722.31	  445.81
     18.4700	  540.00	  561.11	-1737.11	  445.60
     18.5700	  598.00	  560.90	-1678.90	  445.39
     18.6700	  549.00	  560.77	-1727.77	  445.18
     18.7700	  540.00	  560.55	-1736.55	  444.96
     18.8700	  553.00	  560.34	-1723.34	  444.74
     18.9700	  584.00	  560.12	-1692.12	  444.52
     19.0700	  567.00	  559.89	-1708.89	  444.29
     19.1700	  518.00	  559.67	-1757.67	  444.06
     19.2700	  568.00	  559.44	-1707.44	  443.82
     19.3700	  492.00	  559.21	-1783.21	  443.58
     19.4700	  550.00	  558.98	-1724.98	  443.34
     19.5700	  552.00	  558.74	-1722.74	  443.10
     19.6700	  546.00	  558.50	-1728.50	  442.85
     19.7700	  526.00	  558.26	-1748.26	  442.60
     19.8700	  574.00	  558.02	-1700.02	  442.35
     19.9700	  494.00	  557.77	-1779.77	  442.09
     20.0700	  556.00	  557.52	-1717.52	  441.83
     20.1700	  564.00	  557.27	-1709.27	  441.57
     20.2700	  540.00	  557.02	-1733.02	  441.31
     20.3700	  598.00	  556.76	-1674.76	  441.04
     20.4700	  580.00	  556.54	-1692.54	  440.77
     20.5700	  541.00	  556.28	-1731.28	  440.50
     20.6700	  544.00	  556.02	-1728.02	  440.22
     20.7700	  543.00	  555.76	-1728.76	  439.94
     20.8700	  540.00	  555.50	-1731.50	  439.66
     20.9700	  532.00	  555.24	-1739.24	  439.38
     21.0700	  525.00	  554.97	-1745.97	  439.10
     21.1700	  570.00	  554.71	-1700.71	  438.81
     21.2700	  545.00	  554.44	-1725.44	  438.52
     21.3700	  547.00	  554.17	-1723.17	  438.23
     21.4700	  555.00	  553.90	-1714.90	  437.93
     21.5700	  545.00	  553.59	-1724.59	  437.64
     21.6700	  570.00	  553.33	-1699.33	  437.34
     21.7700	  544.00	  553.06	-1725.06	  437.04
     21.8700	  538.00	  552.79	-1730.79	  436.73
     21.9700	  529.00	  552.53	-1739.53	  436.43
     22.0700	  527.00	  552.26	-1741.26	  436.12
     22.1700	  551.00	  552.00	-1717.00	  435.82
     22.2700	  522.00	  551.74	-1745.74	  435.50
     22.3700	  584.00	  551.48	-1683.48	  435.19
     22.4700	  563.00	  551.23	-1704.23	  434.88
     22.5700	  544.00	  550.98	-1722.98	  434.56
     22.6700	  546.00	  550.74	-1720.74	  434.25
     22.7700	  563.00	  550.51	-1703.51	  433.93
     22.8700	  570.00	  550.28	-1696.28	  433.61
     22.9700	  508.00	  550.07	-1758.07	  433.28
     23.0700	  543.00	  549.88	-1722.88	  432.96
     23.1700	  554.00	  549.84	-1711.84	  432.63
     23.2700	  574.00	  549.69	-1691.69	  432.31
     23.3700	  597.00	  549.58	-1668.58	  431.98
     23.4700	  547.00	  549.51	-1718.51	  431.65
     23.5700	  541.00	  549.50	-1724.50	  431.32
     23.6700	  594.00	  549.59	-1671.59	  430.99
     23.7700	  547.00	  549.82	-1718.82	  430.65
     23.8700	  565.00	  550.33	-1701.33	  430.32
     23.9700	  563.00	  551.35	-1704.35	  429.98
     24.0700	  580.00	  553.26	-1689.26	  429.64
     24.1700	  523.00	  556.65	-1749.65	  429.30
     24.2700	  573.00	  562.25	-1705.25	  428.97
     24.3700	  623.00	  570.80	-1663.80	  428.62
     24.4700	  586.00	  582.77	-1712.77	  428.28
     24.5700	  606.00	  597.65	-1707.65	  427.94
     24.6700	  592.00	  612.63	-1736.63	  427.60
     24.7700	  690.00	  621.77	-1647.77	  427.25
     24.8700	  649.00	  617.96	-1684.96	  426.91
     24.9700	  656.00	  601.31	-1661.31	  426.56
     25.0700	  611.00	  581.50	-1686.50	  426.21
     25.1700	  574.00	  565.91	-1707.91	  425.87
     25.2700	  564.00	  556.12	-1708.12	  425.52
     25.3700	  582.00	  550.78	-1684.78	  425.17
     25.4700	  525.00	  548.00	-1739.00	  424.82
     25.5700	  571.00	  546.45	-1691.45	  424.47
     25.6700	  579.00	  545.45	-1682.45	  424.12
     25.7700	  547.00	  544.74	-1713.74	  423.76
     25.8700	  560.00	  544.19	-1700.19	  423.41
     25.9700	  518.00	  543.78	-1741.78	  423.06
     26.0700	  568.00	  543.47	-1691.47	  422.71
     26.1700	  537.00	  543.25	-1722.25	  422.35
     26.2700	  528.00	  543.12	-1731.12	  422.00
     26.3700	  569.00	  543.09	-1690.09	  421.64
     26.4700	  593.00	  543.14	-1666.14	  421.29
     26.5700	  542.00	  543.30	-1717.30	  420.93
     26.6700	  587.00	  543.58	-1672.58	  420.58
     26.7700	  550.00	  544.02	-1710.02	  420.22
     26.8700	  568.00	  544.64	-1692.64	  419.87
     26.9700	  540.00	  545.51	-1721.51	  419.51
     27.0700	  499.00	  546.71	-1763.71	  419.15
     27.1700	  534.00	  548.38	-1730.38	  418.80
     27.2700	  582.00	  550.79	-1684.79	  418.44
     27.3700	  552.00	  554.51	-1718.51	  418.09
     27.4700	  565.00	  560.58	-1711.58	  417.73
     27.5700	  580.00	  570.91	-1706.91	  417.37
     27.6700	  546.00	  588.46	-1758.46	  417.02
     27.7700	  585.00	  617.07	-1748.07	  416.66
     27.8700	  617.00	  659.99	-1758.99	  416.30
     27.9700	  691.00	  717.27	-1742.27	  415.95
     28.0700	  757.00	  782.29	-1741.29	  415.59
     28.1700	  903.00	  838.72	-1651.72	  415.23
     28.2700	 1007.00	  862.04	-1571.04	  414.88
     28.3700	  894.00	  837.49	-1659.49	  414.52
     28.4700	  764.00	  787.26	-1739.26	  414.17
     28.5700	  740.00	  748.59	-1724.59	  413.81
     28.6700	  750.00	  738.60	-1704.60	  413.46
     28.7700	  747.00	  753.27	-1722.27	  413.10
     28.8700	  761.00	  774.30	-1729.30	  412.75
     28.9700	  803.00	  776.34	-1689.34	  412.39
     29.0700	  701.00	  743.25	-1758.25	  412.04
     29.1700	  709.00	  687.77	-1694.77	  411.69
     29.2700	  621.00	  634.35	-1729.35	  411.34
     29.3700	  591.00	  595.03	-1720.03	  410.98
     29.4700	  577.00	  570.54	-1709.54	  410.63
     29.5700	  593.00	  556.82	-1679.82	  410.28
     29.6700	  580.00	  549.35	-1685.35	  409.93
     29.7700	  626.00	  545.05	-1635.05	  409.58
     29.8700	  565.00	  542.38	-1693.38	  409.23
     29.9700	  562.00	  540.69	-1694.69	  408.88
     30.0700	  599.00	  539.83	-1656.83	  408.53
     30.1700	  549.00	  539.97	-1706.97	  408.19
     30.2700	  533.00	  541.61	-1724.61	  407.84
     30.3700	  555.00	  545.72	-1706.72	  407.49
     30.4700	  509.00	  553.60	-1760.60	  407.15
     30.5700	  623.00	  566.59	-1659.59	  406.80
     30.6700	  602.00	  584.82	-1698.82	  406.46
     30.7700	  562.00	  605.89	-1759.89	  406.12
     30.8700	  633.00	  623.88	-1706.88	  405.77
     30.9700	  605.00	  630.03	-1741.03	  405.43
     31.0700	  611.00	  618.42	-1723.42	  405.09
     31.1700	  576.00	  594.89	-1734.89	  404.75
     31.2700	  543.00	  570.86	-1743.86	  404.41
     31.3700	  547.00	  552.55	-1721.55	  404.07
     31.4700	  591.00	  540.89	-1665.89	  403.74
     31.5700	  541.00	  534.29	-1709.29	  403.40
     31.6700	  527.00	  530.73	-1719.73	  403.07
     31.7700	  528.00	  528.71	-1716.71	  402.73
     31.8700	  572.00	  527.44	-1671.44	  402.40
     31.9700	  543.00	  526.57	-1699.57	  402.07
     32.0700	  551.00	  525.96	-1690.96	  401.74
     32.1700	  521.00	  525.56	-1720.56	  401.41
     32.2700	  587.00	  525.34	-1654.34	  401.08
     32.3700	  556.00	  525.28	-1685.28	  400.75
     32.4700	  565.00	  525.41	-1676.41	  400.42
     32.5700	  585.00	  525.74	-1656.74	  400.10
     32.6700	  554.00	  526.30	-1688.30	  399.78
     32.7700	  494.00	  527.15	-1749.15	  399.45
     32.8700	  519.00	  528.38	-1725.38	  399.13
     32.9700	  532.00	  530.12	-1714.12	  398.81
     33.0700	  568.00	  532.65	-1680.65	  398.49
     33.1700	  586.00	  536.53	-1666.53	  398.17
     33.2700	  512.00	  542.97	-1746.97	  397.86
     33.3700	  561.00	  554.38	-1709.38	  397.54
     33.4700	  572.00	  575.08	-1719.08	  397.23
     33.5700	  568.00	  611.37	-1759.37	  396.91
     33.6700	  646.00	  669.70	-1739.70	  396.60
     33.7700	  820.00	  751.76	-1647.76	  396.29
     33.8700	  865.00	  847.86	-1698.86	  395.98
     33.9700	  983.00	  932.89	-1665.89	  395.68
     34.0700	 1063.00	  969.49	-1622.49	  395.37
     34.1700	  964.00	  930.70	-1682.70	  395.07
     34.2700	  846.00	  835.79	-1705.79	  394.76
     34.3700	  726.00	  731.80	-1721.80	  394.46
     34.4700	  644.00	  648.48	-1720.48	  394.16
     34.5700	  556.00	  593.09	-1753.09	  393.86
     34.6700	  556.00	  560.91	-1720.91	  393.57
     34.7700	  578.00	  543.54	-1681.54	  393.27
     34.8700	  550.00	  534.05	-1700.05	  392.98
     34.9700	  551.00	  528.33	-1693.33	  392.68
     35.0700	  523.00	  524.42	-1717.42	  392.39
     35.1700	  564.00	  521.49	-1673.49	  392.10
     35.2700	  532.00	  519.17	-1703.17	  391.82
     35.3700	  526.00	  517.29	-1707.29	  391.53
     35.4700	  506.00	  515.72	-1725.72	  391.24
     35.5700	  512.00	  514.39	-1718.39	  390.96
     35.6700	  519.00	  513.25	-1710.25	  390.68
     35.7700	  498.00	  512.26	-1730.26	  390.40
     35.8700	  526.00	  511.39	-1701.39	  390.12
     35.9700	  538.00	  511.07	-1689.07	  389.85
     36.0700	  509.00	  510.38	-1717.38	  389.57
     36.1700	  524.00	  509.75	-1701.75	  389.30
     36.2700	  489.00	  509.18	-1736.18	  389.03
     36.3700	  492.00	  508.67	-1732.67	  388.76
     36.4700	  490.00	  508.20	-1734.20	  388.49
     36.5700	  508.00	  507.79	-1715.79	  388.22
     36.6700	  468.00	  507.42	-1755.42	  387.96
     36.7700	  501.00	  507.11	-1722.11	  387.70
     36.8700	  513.00	  506.89	-1709.89	  387.44
     36.9700	  521.00	  506.84	-1701.84	  387.18
     37.0700	  497.00	  507.05	-1726.05	  386.92
     37.1700	  558.00	  507.75	-1665.75	  386.66
     37.2700	  491.00	  509.18	-1734.18	  386.41
     37.3700	  528.00	  511.50	-1699.50	  386.16
     37.4700	  500.00	  514.60	-1730.60	  385.91
     37.5700	  511.00	  517.83	-1722.83	  385.66
     37.6700	  486.00	  520.07	-1750.07	  385.41
     37.7700	  495.00	  520.14	-1741.14	  385.17
     37.8700	  523.00	  517.93	-1710.93	  384.92
     37.9700	  532.00	  514.59	-1698.59	  384.68
     38.0700	  566.00	  511.20	-1661.20	  384.44
     38.1700	  474.00	  508.21	-1750.21	  384.21
     38.2700	  494.00	  505.83	-1727.83	  383.97
     38.3700	  483.00	  504.08	-1737.08	  383.74
     38.4700	  474.00	  502.86	-1744.86	  383.51
     38.5700	  522.00	  502.01	-1696.01	  383.28
     38.6700	  522.00	  501.42	-1695.42	  383.05
     38.7700	  532.00	  501.01	-1685.01	  382.82
     38.8700	  511.00	  500.65	-1705.65	  382.60
     38.9700	  461.00	  500.34	-1755.34	  382.38
     39.0700	  520.00	  500.05	-1696.05	  382.16
     39.1700	  471.00	  499.79	-1744.79	  381.94
     39.2700	  466.00	  499.54	-1749.54	  381.73
     39.3700	  468.00	  499.31	-1747.31	  381.51
     39.4700	  499.00	  499.02	-1716.02	  381.30
     39.5700	  505.00	  498.81	-1709.81	  381.09
     39.6700	  490.00	  498.61	-1724.61	  380.88
     39.7700	  481.00	  498.43	-1733.43	  380.67
     39.8700	  478.00	  498.25	-1736.25	  380.47
     39.9700	  487.00	  498.09	-1727.09	  380.27
     40.0700	  493.00	  497.93	-1720.93	  380.07
     40.1700	  493.00	  497.79	-1720.79	  379.87
     40.2700	  487.00	  497.66	-1726.66	  379.67
     40.3700	  519.00	  497.54	-1694.54	  379.48
     40.4700	  479.00	  497.44	-1734.44	  379.29
     40.5700	  524.00	  497.35	-1689.35	  379.10
     40.6700	  450.00	  497.28	-1763.28	  378.91
     40.7700	  503.00	  497.23	-1710.23	  378.73
     40.8700	  498.00	  497.20	-1715.20	  378.54
     40.9700	  513.00	  497.21	-1700.21	  378.36
     41.0700	  465.00	  497.71	-1748.71	  378.18
     41.1700	  473.00	  497.80	-1740.80	  378.00
     41.2700	  499.00	  497.95	-1714.95	  377.83
     41.3700	  477.00	  498.16	-1737.16	  377.65
     41.4700	  516.00	  498.46	-1698.46	  377.48
     41.5700	  481.00	  498.89	-1733.89	  377.31
     41.6700	  455.00	  499.48	-1760.48	  377.14
     41.7700	  475.00	  500.44	-1741.44	  376.98
     41.8700	  493.00	  502.07	-1725.07	  376.82
     41.9700	  512.00	  504.98	-1708.98	  376.66
     42.0700	  515.00	  510.26	-1711.26	  376.50
     42.1700	  511.00	  519.45	-1724.45	  376.34
     42.2700	  538.00	  534.13	-1712.13	  376.18
     42.3700	  550.00	  554.78	-1720.78	  376.03
     42.4700	  523.00	  579.66	-1772.66	  375.88
     42.5700	  516.00	  603.61	-1803.61	  375.73
     42.6700	  606.00	  618.10	-1728.10	  375.59
     42.7700	  615.00	  615.82	-1716.82	  375.44
     42.8700	  559.00	  597.42	-1754.42	  375.30
     42.9700	  539.00	  571.64	-1748.64	  375.16
     43.0700	  512.00	  546.98	-1750.98	  375.02
     43.1700	  468.00	  527.78	-1775.78	  374.88
     43.2700	  522.00	  514.78	-1708.78	  374.75
     43.3700	  533.00	  506.94	-1689.94	  374.62
     43.4700	  514.00	  502.72	-1704.72	  374.49
     43.5700	  511.00	  500.27	-1705.27	  374.36
     43.6700	  496.00	  498.82	-1718.82	  374.24
     43.7700	  459.00	  497.86	-1754.86	  374.11
     43.8700	  475.00	  497.18	-1738.18	  373.99
     43.9700	  461.00	  496.66	-1751.66	  373.87
     44.0700	  519.00	  496.25	-1693.25	  373.75
     44.1700	  521.00	  495.93	-1690.93	  373.64
     44.2700	  539.00	  495.67	-1672.67	  373.53
     44.3700	  513.00	  495.47	-1698.47	  373.41
     44.4700	  481.00	  495.31	-1730.31	  373.31
     44.5700	  547.00	  495.20	-1664.20	  373.20
     44.6700	  474.00	  495.11	-1737.11	  373.09
     44.7700	  536.00	  495.06	-1675.06	  372.99
     44.8700	  524.00	  495.23	-1687.23	  372.89
     44.9700	  460.00	  495.24	-1751.24	  372.79
     45.0700	  536.00	  495.27	-1675.27	  372.70
     45.1700	  472.00	  495.18	-1739.18	  372.60
     45.2700	  510.00	  495.26	-1701.26	  372.51
     45.3700	  525.00	  495.37	-1686.37	  372.42
     45.4700	  508.00	  495.51	-1703.51	  372.33
     45.5700	  475.00	  495.67	-1736.67	  372.25
     45.6700	  518.00	  495.86	-1693.86	  372.16
     45.7700	  543.00	  496.08	-1669.08	  372.08
     45.8700	  503.00	  496.33	-1709.33	  372.00
     45.9700	  469.00	  496.63	-1743.63	  371.92
     46.0700	  500.00	  496.96	-1712.96	  371.85
     46.1700	  496.00	  497.35	-1717.35	  371.77
     46.2700	  474.00	  497.79	-1739.79	  371.70
     46.3700	  507.00	  498.29	-1707.29	  371.63
     46.4700	  543.00	  498.88	-1671.88	  371.57
     46.5700	  474.00	  499.56	-1741.56	  371.50
     46.6700	  503.00	  500.47	-1713.47	  371.44
     46.7700	  482.00	  501.47	-1735.47	  371.38
     46.8700	  483.00	  502.71	-1735.71	  371.32
     46.9700	  493.00	  504.42	-1727.42	  371.26
     47.0700	  554.00	  506.98	-1668.98	  371.20
     47.1700	  481.00	  511.09	-1746.09	  371.15
     47.2700	  485.00	  517.78	-1748.78	  371.10
     47.3700	  562.00	  528.27	-1682.27	  371.05
     47.4700	  575.00	  543.49	-1684.49	  371.00
     47.5700	  549.00	  563.29	-1730.29	  370.96
     47.6700	  610.00	  585.60	-1691.60	  370.92
     47.7700	  651.00	  605.85	-1670.85	  370.87
     47.8700	  604.00	  617.59	-1729.59	  370.84
     47.9700	  603.00	  615.99	-1728.99	  370.80
     48.0700	  636.00	  602.42	-1682.42	  370.76
     48.1700	  593.00	  583.33	-1706.33	  370.73
     48.2700	  531.00	  564.88	-1749.88	  370.70
     48.3700	  514.00	  550.58	-1752.58	  370.67
     48.4700	  522.00	  541.56	-1735.56	  370.64
     48.5700	  518.00	  537.41	-1735.41	  370.62
     48.6700	  515.00	  537.10	-1738.10	  370.59
     48.7700	  504.00	  539.62	-1751.62	  370.57
     48.8700	  570.00	  544.35	-1690.35	  370.55
     48.9700	  548.00	  551.57	-1719.57	  370.53
     49.0700	  576.00	  561.10	-1701.10	  370.52
     49.1700	  545.00	  574.82	-1745.82	  370.51
     49.2700	  540.00	  595.96	-1771.96	  370.49
     49.3700	  626.00	  630.74	-1720.74	  370.48
     49.4700	  637.00	  689.63	-1768.63	  370.48
     49.5700	  727.00	  787.61	-1776.61	  370.47
     49.6700	  875.00	  941.91	-1782.91	  370.46
     49.7700	 1084.00	 1165.56	-1797.56	  370.46
     49.8700	 1468.00	 1457.64	-1705.64	  370.46
     49.9700	 1801.00	 1792.13	-1707.13	  370.46
     50.0700	 2125.00	 2108.96	-1699.96	  370.47
     50.1700	 2430.00	 2317.37	-1603.37	  370.47
     50.2700	 2285.00	 2333.26	-1764.26	  370.48
     50.3700	 2224.00	 2147.47	-1639.47	  370.49
     50.4700	 1894.00	 1838.49	-1660.49	  370.50
     50.5700	 1477.00	 1503.81	-1742.81	  370.51
     50.6700	 1041.00	 1209.19	-1884.19	  370.52
     50.7700	  852.00	  984.24	-1848.24	  370.54
     50.8700	  761.00	  831.46	-1786.46	  370.56
     50.9700	  684.00	  737.26	-1769.26	  370.58
     51.0700	  646.00	  682.09	-1752.09	  370.60
     51.1700	  630.00	  647.97	-1733.97	  370.62
     51.2700	  648.00	  623.04	-1691.04	  370.65
     51.3700	  634.00	  602.21	-1684.21	  370.67
     51.4700	  589.00	  584.45	-1711.45	  370.70
     51.5700	  590.00	  569.92	-1695.92	  370.73
     51.6700	  545.00	  559.01	-1730.01	  370.76
     51.7700	  547.00	  550.97	-1719.97	  370.80
     51.8700	  571.00	  545.52	-1690.52	  370.83
     51.9700	  549.00	  542.05	-1709.05	  370.87
     52.0700	  562.00	  540.05	-1694.05	  370.91
     52.1700	  547.00	  539.23	-1708.23	  370.95
     52.2700	  541.00	  539.54	-1714.54	  370.99
     52.3700	  528.00	  541.20	-1729.20	  371.03
     52.4700	  544.00	  544.82	-1716.82	  371.08
     52.5700	  575.00	  551.72	-1692.72	  371.13
     52.6700	  620.00	  564.35	-1660.35	  371.17
     52.7700	  608.00	  586.71	-1694.71	  371.22
     52.8700	  656.00	  624.32	-1684.32	  371.28
     52.9700	  708.00	  683.13	-1691.13	  371.33
     53.0700	  839.00	  767.25	-1644.25	  371.38
     53.1700	  938.00	  875.49	-1653.49	  371.44
     53.2700	  988.00	  997.98	-1725.98	  371.50
     53.3700	 1118.00	 1113.58	-1711.58	  371.56
     53.4700	 1175.00	 1191.34	-1732.34	  371.62
     53.5700	 1151.00	 1202.34	-1767.34	  371.68
     53.6700	 1143.00	 1141.42	-1714.42	  371.75
     53.7700	 1012.00	 1032.76	-1736.76	  371.81
     53.8700	  908.00	  909.45	-1717.45	  371.88
     53.9700	  729.00	  796.03	-1783.03	  371.95
     54.0700	  727.00	  705.26	-1694.26	  372.02
     54.1700	  598.00	  640.33	-1758.33	  372.09
     54.2700	  617.00	  598.15	-1697.15	  372.17
     54.3700	  595.00	  572.89	-1693.89	  372.24
     54.4700	  574.00	  558.71	-1700.71	  372.32
     54.5700	  539.00	  551.14	-1728.14	  372.40
     54.6700	  522.00	  547.26	-1741.26	  372.48
     54.7700	  533.00	  545.53	-1728.53	  372.56
     54.8700	  544.00	  545.16	-1717.16	  372.64
     54.9700	  587.00	  545.82	-1674.82	  372.72
     55.0700	  560.00	  547.39	-1703.39	  372.81
     55.1700	  561.00	  549.84	-1704.84	  372.89
     55.2700	  587.00	  553.20	-1682.20	  372.98
     55.3700	  593.00	  557.68	-1680.69	  373.07
     55.4700	  626.00	  563.50	-1653.50	  373.16
     55.5700	  553.00	  571.11	-1734.11	  373.25
     55.6700	  572.00	  581.44	-1725.44	  373.35
     55.7700	  583.00	  596.31	-1729.31	  373.44
     55.8700	  590.00	  619.22	-1745.22	  373.54
     55.9700	  688.00	  656.40	-1684.40	  373.63
     56.0700	  714.00	  717.74	-1719.74	  373.73
     56.1700	  804.00	  816.90	-1728.90	  373.83
     56.2700	  916.00	  969.51	-1769.51	  373.93
     56.3700	 1089.00	 1188.36	-1815.36	  374.04
     56.4700	 1425.00	 1476.33	-1767.33	  374.14
     56.5700	 1762.00	 1818.38	-1772.38	  374.24
     56.6700	 2084.00	 2174.58	-1806.58	  374.35
     56.7700	 2336.00	 2477.47	-1857.47	  374.46
     56.8700	 2628.00	 2642.80	-1730.80	  374.57
     56.9700	 2599.00	 2610.75	-1727.75	  374.67
     57.0700	 2333.00	 2393.47	-1776.47	  374.79
     57.1700	 2152.00	 2065.49	-1629.49	  374.90
     57.2700	 1721.00	 1709.65	-1704.65	  375.01
     57.3700	 1418.00	 1384.96	-1682.96	  375.12
     57.4700	 1038.00	 1122.52	-1800.52	  375.24
     57.5700	  965.00	  930.78	-1681.78	  375.36
     57.6700	  808.00	  803.08	-1711.08	  375.47
     57.7700	  741.00	  725.64	-1700.64	  375.59
     57.8700	  677.00	  684.27	-1723.27	  375.71
     57.9700	  704.00	  668.22	-1680.22	  375.83
     58.0700	  692.00	  671.16	-1695.16	  375.95
     58.1700	  727.00	  690.49	-1679.49	  376.08
     58.2700	  735.00	  725.71	-1706.71	  376.20
     58.3700	  785.00	  776.73	-1707.73	  376.32
     58.4700	  859.00	  842.30	-1699.30	  376.45
     58.5700	  996.00	  918.46	-1638.46	  376.58
     58.6700	 1103.00	  997.99	-1610.99	  376.70
     58.7700	 1205.00	 1072.20	-1583.20	  376.83
     58.8700	 1294.00	 1134.89	-1556.89	  376.96
     58.9700	 1302.00	 1182.83	-1596.83	  377.09
     59.0700	 1369.00	 1211.83	-1558.83	  377.22
     59.1700	 1358.00	 1217.61	-1575.61	  377.36
     59.2700	 1372.00	 1202.53	-1546.53	  377.49
     59.3700	 1321.00	 1177.02	-1572.02	  377.62
     59.4700	 1251.00	 1152.58	-1617.58	  377.76
     59.5700	 1151.00	 1137.39	-1702.39	  377.89
     59.6700	 1173.00	 1138.69	-1681.69	  378.03
     59.7700	 1200.00	 1164.92	-1680.92	  378.17
     59.8700	 1307.00	 1221.51	-1630.51	  378.31
     59.9700	 1339.00	 1305.00	-1682.00	  378.45
     60.0700	 1461.00	 1400.10	-1655.10	  378.59
     60.1700	 1514.00	 1480.12	-1682.12	  378.73
     60.2700	 1608.00	 1513.03	-1621.03	  378.87
     60.3700	 1524.00	 1477.33	-1669.33	  379.01
     60.4700	 1411.00	 1377.45	-1682.45	  379.15
     60.5700	 1336.00	 1238.86	-1618.86	  379.30
     60.6700	 1117.00	 1090.37	-1689.37	  379.44
     60.7700	  932.00	  953.45	-1737.45	  379.59
     60.8700	  835.00	  840.65	-1721.65	  379.73
     60.9700	  710.00	  756.87	-1762.87	  379.88
     61.0700	  678.00	  701.83	-1739.83	  380.02
     61.1700	  632.00	  672.74	-1756.74	  380.17
     61.2700	  643.00	  667.02	-1740.02	  380.32
     61.3700	  627.00	  683.88	-1772.88	  380.47
     61.4700	  736.00	  724.64	-1704.64	  380.62
     61.5700	  766.00	  791.74	-1741.74	  380.77
     61.6700	  890.00	  886.55	-1712.55	  380.92
     61.7700	  957.00	 1006.78	-1765.78	  381.07
     61.8700	 1097.00	 1144.10	-1763.10	  381.22
     61.9700	 1283.00	 1282.37	-1715.37	  381.37
     62.0700	 1311.00	 1397.19	-1802.19	  381.53
     62.1700	 1310.00	 1460.13	-1866.13	  381.68
     62.2700	 1381.00	 1451.09	-1786.09	  381.83
     62.3700	 1368.00	 1372.52	-1720.52	  381.99
     62.4700	 1133.00	 1247.51	-1830.51	  382.14
     62.5700	 1053.00	 1104.51	-1767.51	  382.30
     62.6700	  885.00	  966.16	-1797.16	  382.45
     62.7700	  778.00	  846.61	-1784.61	  382.61
     62.8700	  641.00	  752.25	-1827.25	  382.77
     62.9700	  700.00	  683.42	-1699.42	  382.92
     63.0700	  590.00	  636.65	-1762.65	  383.08
     63.1700	  587.00	  606.84	-1735.84	  383.24
     63.2700	  602.00	  589.03	-1703.03	  383.40
     63.3700	  608.00	  579.39	-1687.39	  383.55
     63.4700	  611.00	  575.55	-1680.55	  383.71
     63.5700	  628.00	  576.59	-1664.59	  383.87
     63.6700	  572.00	  582.82	-1726.82	  384.03
     63.7700	  550.00	  595.54	-1761.54	  384.19
     63.8700	  597.00	  616.61	-1735.61	  384.35
     63.9700	  653.00	  647.91	-1710.91	  384.51
     64.0700	  755.00	  690.66	-1651.66	  384.67
     64.1700	  764.00	  744.52	-1696.52	  384.83
     64.2700	  856.00	  806.76	-1666.76	  384.99
     64.3700	  909.00	  871.64	-1678.64	  385.15
     64.4700	  997.00	  930.18	-1649.18	  385.31
     64.5700	  992.00	  971.71	-1695.71	  385.47
     64.6700	 1094.00	  987.02	-1609.02	  385.64
     64.7700	 1040.00	  974.81	-1650.81	  385.80
     64.8700	  961.00	  939.14	-1694.14	  385.96
     64.9700	  927.00	  888.45	-1677.45	  386.12
     65.0700	  865.00	  832.02	-1683.02	  386.28
     65.1700	  788.00	  777.47	-1705.47	  386.44
     65.2700	  762.00	  729.34	-1683.34	  386.61
     65.3700	  665.00	  689.12	-1740.12	  386.77
     65.4700	  603.00	  656.44	-1769.44	  386.93
     65.5700	  606.00	  630.36	-1740.36	  387.09
     65.6700	  622.00	  610.00	-1704.00	  387.26
     65.7700	  574.00	  594.55	-1736.55	  387.42
     65.8700	  561.00	  583.22	-1738.22	  387.58
     65.9700	  567.00	  575.47	-1724.47	  387.74
     66.0700	  604.00	  570.50	-1682.50	  387.90
     66.1700	  571.00	  567.94	-1712.94	  388.07
     66.2700	  507.00	  567.40	-1776.40	  388.23
     66.3700	  570.00	  568.59	-1714.59	  388.39
     66.4700	  534.00	  571.39	-1753.39	  388.55
     66.5700	  576.00	  575.89	-1715.89	  388.71
     66.6700	  539.00	  582.51	-1759.51	  388.88
     66.7700	  559.00	  592.26	-1749.26	  389.04
     66.8700	  621.00	  606.99	-1701.99	  389.20
     66.9700	  606.00	  629.80	-1739.80	  389.36
     67.0700	  659.00	  665.51	-1722.51	  389.52
     67.1700	  697.00	  720.47	-1739.47	  389.68
     67.2700	  758.00	  802.81	-1760.81	  389.84
     67.3700	  915.00	  920.87	-1721.87	  390.00
     67.4700	 1084.00	 1081.28	-1713.28	  390.16
     67.5700	 1342.00	 1286.19	-1660.19	  390.32
     67.6700	 1583.00	 1529.89	-1662.89	  390.48
     67.7700	 1793.00	 1797.08	-1720.08	  390.64
     67.8700	 2049.00	 2060.71	-1727.71	  390.80
     67.9700	 2373.00	 2282.48	-1625.48	  390.96
     68.0700	 2349.00	 2418.36	-1785.36	  391.12
     68.1700	 2443.00	 2434.40	-1707.40	  391.27
     68.2700	 2325.00	 2326.02	-1717.02	  391.43
     68.3700	 1988.00	 2121.57	-1849.57	  391.59
     68.4700	 1971.00	 1864.47	-1609.47	  391.75
     68.5700	 1594.00	 1595.63	-1717.63	  391.90
     68.6700	 1365.00	 1344.78	-1695.78	  392.06
     68.7700	 1126.00	 1130.08	-1720.08	  392.22
     68.8700	  861.00	  959.28	-1814.28	  392.37
     68.9700	  826.00	  831.89	-1721.89	  392.53
     69.0700	  793.00	  742.14	-1665.14	  392.68
     69.1700	  693.00	  681.83	-1704.83	  392.83
     69.2700	  611.00	  642.71	-1747.71	  392.99
     69.3700	  580.00	  617.83	-1753.83	  393.14
     69.4700	  548.00	  602.01	-1770.01	  393.29
     69.5700	  595.00	  591.74	-1712.74	  393.45
     69.6700	  575.00	  584.89	-1725.89	  393.60
     69.7700	  587.00	  580.17	-1709.17	  393.75
     69.8700	  543.00	  576.92	-1749.92	  393.90
     69.9700	  585.00	  574.76	-1705.76	  394.05
     70.0700	  597.00	  573.53	-1692.53	  394.20
     70.1700	  547.00	  573.15	-1742.15	  394.35
     70.2700	  563.00	  573.65	-1726.65	  394.49
     70.3700	  566.00	  575.17	-1725.17	  394.64
     70.4700	  541.00	  577.95	-1752.95	  394.79
     70.5700	  563.00	  582.53	-1735.53	  394.93
     70.6700	  599.00	  589.89	-1706.89	  395.08
     70.7700	  638.00	  601.53	-1679.53	  395.22
     70.8700	  585.00	  619.89	-1750.89	  395.37
     70.9700	  643.00	  648.39	-1721.39	  395.51
     71.0700	  677.00	  691.49	-1730.49	  395.65
     71.1700	  724.00	  754.30	-1746.30	  395.80
     71.2700	  813.00	  841.77	-1744.77	  395.94
     71.3700	  938.00	  958.33	-1736.33	  396.08
     71.4700	 1101.00	 1102.88	-1717.88	  396.22
     71.5700	 1246.00	 1272.32	-1742.32	  396.36
     71.6700	 1417.00	 1456.75	-1755.75	  396.49
     71.7700	 1605.00	 1639.79	-1750.79	  396.63
     71.8700	 1747.00	 1798.74	-1767.74	  396.77
     71.9700	 1879.00	 1907.02	-1744.02	  396.90
     72.0700	 1997.00	 1941.71	-1660.71	  397.04
     72.1700	 1925.00	 1894.48	-1685.48	  397.17
     72.2700	 1726.00	 1776.64	-1766.64	  397.31
     72.3700	 1550.00	 1612.40	-1778.40	  397.44
     72.4700	 1490.00	 1428.09	-1654.09	  397.57
     72.5700	 1259.00	 1245.36	-1702.36	  397.70
     72.6700	 1115.00	 1079.46	-1680.46	  397.83
     72.7700	 1074.00	  939.10	-1581.10	  397.96
     72.8700	  864.00	  826.88	-1678.88	  398.08
     72.9700	  825.00	  742.57	-1633.57	  398.21
     73.0700	  758.00	  681.85	-1639.85	  398.34
     73.1700	  697.00	  639.77	-1658.77	  398.46
     73.2700	  645.00	  611.38	-1682.38	  398.58
     73.3700	  686.00	  592.45	-1622.45	  398.71
     73.4700	  644.00	  579.80	-1651.80	  398.83
     73.5700	  605.00	  571.18	-1682.18	  398.95
     73.6700	  622.00	  565.16	-1659.16	  399.07
     73.7700	  571.00	  560.86	-1705.86	  399.19
     73.8700	  590.00	  557.76	-1683.76	  399.31
     73.9700	  609.00	  555.55	-1662.55	  399.42
     74.0700	  571.00	  554.03	-1699.03	  399.54
     74.1700	  577.00	  553.04	-1692.04	  399.65
     74.2700	  600.00	  552.44	-1668.44	  399.76
     74.3700	  598.00	  552.07	-1670.07	  399.88
     74.4700	  628.00	  551.76	-1639.76	  399.99
     74.5700	  644.00	  551.32	-1623.32	  400.10
     74.6700	  611.00	  550.62	-1655.62	  400.20
     74.7700	  641.00	  549.64	-1624.64	  400.31
     74.8700	  593.00	  548.45	-1671.45	  400.42
     74.9700	  624.00	  547.25	-1639.25	  400.52
     75.0700	  585.00	  546.24	-1677.24	  400.63
     75.1700	  606.00	  545.69	-1655.69	  400.73
     75.2700	  553.00	  545.89	-1708.89	  400.83
     75.3700	  596.00	  547.13	-1667.13	  400.93
     75.4700	  556.00	  549.92	-1709.92	  401.03
     75.5700	  567.00	  554.67	-1703.67	  401.13
     75.6700	  550.00	  561.87	-1727.87	  401.22
     75.7700	  553.00	  571.85	-1734.85	  401.32
     75.8700	  633.00	  585.04	-1668.04	  401.41
     75.9700	  609.00	  601.30	-1708.30	  401.51
     76.0700	  667.00	  620.09	-1669.09	  401.60
     76.1700	  653.00	  640.50	-1703.50	  401.69
     76.2700	  647.00	  660.90	-1729.90	  401.77
     76.3700	  730.00	  679.12	-1665.12	  401.86
     76.4700	  700.00	  692.65	-1708.65	  401.95
     76.5700	  734.00	  699.09	-1681.09	  402.03
     76.6700	  740.00	  697.13	-1673.13	  402.12
     76.7700	  675.00	  687.14	-1728.14	  402.20
     76.8700	  661.00	  671.00	-1726.00	  402.28
     76.9700	  617.00	  651.24	-1750.24	  402.36
     77.0700	  613.00	  630.28	-1733.28	  402.43
     77.1700	  596.00	  610.00	-1730.00	  402.51
     77.2700	  556.00	  591.56	-1751.56	  402.58
     77.3700	  538.00	  576.09	-1754.09	  402.66
     77.4700	  538.00	  563.67	-1741.67	  402.73
     77.5700	  517.00	  554.17	-1753.17	  402.80
     77.6700	  531.00	  547.20	-1732.20	  402.87
     77.7700	  517.00	  542.30	-1741.30	  402.94
     77.8700	  530.00	  538.94	-1724.94	  403.00
     77.9700	  524.00	  536.70	-1728.70	  403.07
     78.0700	  525.00	  535.22	-1726.22	  403.13
     78.1700	  518.00	  534.25	-1732.25	  403.19
     78.2700	  501.00	  533.61	-1748.60	  403.25
     78.3700	  514.00	  533.18	-1735.18	  403.31
     78.4700	  508.00	  532.92	-1740.92	  403.37
     78.5700	  514.00	  532.78	-1734.78	  403.42
     78.6700	  486.00	  532.75	-1762.75	  403.48
     78.7700	  475.00	  532.84	-1773.84	  403.53
     78.8700	  514.00	  533.06	-1735.06	  403.58
     78.9700	  531.00	  533.43	-1718.43	  403.63
     79.0700	  544.00	  533.99	-1705.99	  403.68
     79.1700	  534.00	  534.77	-1716.77	  403.72
     79.2700	  500.00	  535.82	-1751.82	  403.77
     79.3700	  489.00	  537.16	-1764.16	  403.81
     79.4700	  555.00	  538.85	-1699.85	  403.85
     79.5700	  499.00	  540.93	-1757.93	  403.89
     79.6700	  566.00	  543.27	-1693.27	  403.93
     79.7700	  528.00	  546.32	-1734.32	  403.96
     79.8700	  547.00	  550.00	-1719.00	  404.00
     79.9700	  543.00	  554.45	-1727.45	  404.03
     80.0700	  567.00	  559.86	-1708.86	  404.06
     80.1700	  579.00	  566.50	-1703.50	  404.09
     80.2700	  582.00	  574.70	-1708.70	  404.12
     80.3700	  503.00	  584.78	-1797.78	  404.14
     80.4700	  597.00	  596.92	-1715.92	  404.17
     80.5700	  614.00	  611.13	-1713.13	  404.19
     80.6700	  625.00	  627.13	-1718.13	  404.21
     80.7700	  643.00	  644.31	-1717.31	  404.23
     80.8700	  667.00	  661.73	-1710.73	  404.25
     80.9700	  685.00	  678.21	-1709.21	  404.27
     81.0700	  721.00	  692.54	-1687.54	  404.28
     81.1700	  664.00	  703.64	-1755.64	  404.29
     81.2700	  773.00	  710.69	-1653.69	  404.30
     81.3700	  729.00	  713.14	-1700.14	  404.31
     81.4700	  729.00	  710.89	-1697.89	  404.32
     81.5700	  736.00	  704.23	-1684.23	  404.33
     81.6700	  698.00	  693.77	-1711.77	  404.33
     81.7700	  725.00	  680.29	-1671.29	  404.33
     81.8700	  684.00	  664.74	-1696.74	  404.33
     81.9700	  655.00	  648.21	-1709.21	  404.33
     82.0700	  639.00	  631.73	-1708.73	  404.33
     82.1700	  684.00	  616.14	-1648.14	  404.32
     82.2700	  596.00	  601.95	-1721.95	  404.31
     82.3700	  647.00	  589.44	-1658.44	  404.31
     82.4700	  571.00	  578.73	-1723.73	  404.29
     82.5700	  597.00	  569.83	-1688.83	  404.28
     82.6700	  596.00	  562.65	-1682.65	  404.27
     82.7700	  580.00	  557.28	-1693.28	  404.25
     82.8700	  546.00	  553.56	-1723.56	  404.23
     82.9700	  555.00	  551.40	-1712.40	  404.21
     83.0700	  562.00	  550.70	-1704.70	  404.19
     83.1700	  564.00	  551.41	-1703.41	  404.17
     83.2700	  536.00	  553.39	-1733.39	  404.14
     83.3700	  546.00	  556.48	-1726.48	  404.12
     83.4700	  541.00	  560.44	-1735.44	  404.09
     83.5700	  570.00	  564.96	-1710.96	  404.06
     83.6700	  537.00	  569.66	-1748.66	  404.02
     83.7700	  544.00	  574.07	-1746.07	  403.99
     83.8700	  563.00	  577.65	-1730.65	  403.95
     83.9700	  553.00	  579.87	-1742.87	  403.92
     84.0700	  532.00	  580.33	-1764.33	  403.88
     84.1700	  591.00	  578.91	-1703.91	  403.83
     84.2700	  514.00	  575.78	-1777.78	  403.79
     84.3700	  547.00	  571.38	-1740.38	  403.74
     84.4700	  504.00	  566.19	-1778.19	  403.70
     84.5700	  514.00	  560.70	-1762.70	  403.65
     84.6700	  545.00	  555.31	-1726.31	  403.60
     84.7700	  534.00	  550.32	-1732.32	  403.54
     84.8700	  532.00	  545.92	-1729.92	  403.49
     84.9700	  529.00	  542.22	-1729.22	  403.43
     85.0700	  550.00	  539.24	-1705.24	  403.37
     85.1700	  586.00	  536.96	-1666.96	  403.31
     85.2700	  516.00	  535.30	-1735.30	  403.25
     85.3700	  532.00	  534.18	-1718.18	  403.18
     85.4700	  538.00	  533.50	-1711.50	  403.12
     85.5700	  545.00	  533.22	-1704.22	  403.05
     85.6700	  543.00	  533.28	-1706.28	  402.98
     85.7700	  511.00	  533.67	-1738.67	  402.91
     85.8700	  547.00	  534.43	-1703.43	  402.83
     85.9700	  527.00	  535.63	-1724.63	  402.75
     86.0700	  533.00	  537.36	-1720.36	  402.68
     86.1700	  560.00	  539.76	-1695.76	  402.60
     86.2700	  482.00	  542.99	-1776.99	  402.52
     86.3700	  562.00	  547.23	-1701.23	  402.43
     86.4700	  547.00	  552.60	-1721.60	  402.35
     86.5700	  508.00	  559.23	-1767.23	  402.26
     86.6700	  550.00	  567.13	-1733.13	  402.17
     86.7700	  597.00	  576.21	-1695.21	  402.08
     86.8700	  621.00	  586.22	-1681.22	  401.98
     86.9700	  617.00	  596.74	-1695.74	  401.89
     87.0700	  610.00	  607.19	-1713.19	  401.79
     87.1700	  623.00	  616.82	-1709.82	  401.69
     87.2700	  617.00	  624.78	-1723.78	  401.59
     87.3700	  649.00	  629.84	-1696.84	  401.49
     87.4700	  657.00	  632.04	-1691.04	  401.38
     87.5700	  644.00	  630.74	-1702.74	  401.28
     87.6700	  606.00	  626.17	-1736.17	  401.17
     87.7700	  594.00	  619.02	-1741.02	  401.06
     87.8700	  598.00	  610.18	-1728.18	  400.95
     87.9700	  634.00	  600.59	-1682.59	  400.83
     88.0700	  591.00	  591.11	-1716.11	  400.72
     88.1700	  604.00	  582.45	-1694.45	  400.60
     88.2700	  597.00	  575.15	-1694.15	  400.48
     88.3700	  565.00	  569.60	-1720.60	  400.36
     88.4700	  598.00	  565.99	-1683.99	  400.23
     88.5700	  593.00	  564.34	-1687.34	  400.11
     88.6700	  597.00	  564.55	-1683.55	  399.98
     88.7700	  546.00	  566.37	-1736.37	  399.85
     88.8700	  596.00	  569.43	-1689.43	  399.72
     88.9700	  590.00	  573.32	-1699.32	  399.59
     89.0700	  592.00	  577.52	-1701.52	  399.45
     89.1700	  572.00	  581.49	-1725.49	  399.31
     89.2700	  634.00	  584.68	-1666.68	  399.17
     89.3700	  633.00	  586.58	-1669.58	  399.03
     89.4700	  581.00	  586.85	-1721.85	  398.89
     89.5700	  577.00	  585.37	-1724.37	  398.75
     89.6700	  548.00	  582.29	-1750.29	  398.60
     89.7700	  567.00	  577.94	-1726.94	  398.45
     89.8700	  529.00	  572.74	-1759.74	  398.30
     89.9700	  575.00	  567.14	-1708.14	  398.15
     90.0700	  566.00	  561.49	-1711.49	  398.00
     90.1700	  540.00	  556.12	-1732.12	  397.84
     90.2700	  518.00	  551.23	-1749.23	  397.69
     90.3700	  556.00	  546.97	-1706.97	  397.53
     90.4700	  534.00	  543.42	-1725.42	  397.37
     90.5700	  541.00	  540.57	-1715.57	  397.20
     90.6700	  528.00	  538.41	-1726.41	  397.04
     90.7700	  496.00	  536.87	-1756.87	  396.87
     90.8700	  525.00	  535.87	-1726.87	  396.71
     90.9700	  522.00	  535.36	-1729.36	  396.54
     91.0700	  460.00	  535.28	-1791.28	  396.36
     91.1700	  520.00	  535.62	-1731.62	  396.19
     91.2700	  548.00	  536.38	-1704.38	  396.02
     91.3700	  544.00	  537.61	-1709.61	  395.84
     91.4700	  521.00	  539.42	-1734.42	  395.66
     91.5700	  541.00	  541.92	-1716.92	  395.48
     91.6700	  519.00	  545.29	-1742.29	  395.30
     91.7700	  537.00	  549.73	-1728.73	  395.12
     91.8700	  540.00	  555.45	-1731.45	  394.93
     91.9700	  536.00	  562.66	-1742.66	  394.74
     92.0700	  583.00	  571.56	-1704.56	  394.55
     92.1700	  571.00	  582.29	-1727.29	  394.36
     92.2700	  577.00	  594.90	-1733.90	  394.17
     92.3700	  567.00	  609.36	-1758.36	  393.98
     92.4700	  628.00	  625.49	-1713.49	  393.78
     92.5700	  619.00	  642.74	-1739.74	  393.59
     92.6700	  642.00	  661.15	-1735.15	  393.39
     92.7700	  636.00	  679.85	-1759.85	  393.19
     92.8700	  689.00	  698.12	-1725.12	  392.98
     92.9700	  701.00	  715.17	-1730.17	  392.78
     93.0700	  718.00	  730.31	-1728.31	  392.58
     93.1700	  779.00	  743.09	-1680.09	  392.37
     93.2700	  786.00	  753.47	-1683.47	  392.16
     93.3700	  792.00	  761.81	-1685.81	  391.95
     93.4700	  751.00	  768.69	-1733.69	  391.74
     93.5700	  764.00	  774.75	-1726.75	  391.53
     93.6700	  818.00	  780.58	-1678.58	  391.31
     93.7700	  798.00	  786.69	-1704.69	  391.09
     93.8700	  846.00	  793.57	-1663.57	  390.88
     93.9700	  861.00	  801.72	-1656.72	  390.66
     94.0700	  854.00	  811.59	-1673.59	  390.44
     94.1700	  849.00	  823.46	-1690.46	  390.21
     94.2700	  868.00	  837.27	-1685.27	  389.99
     94.3700	  921.00	  852.54	-1647.54	  389.76
     94.4700	  901.00	  868.34	-1683.34	  389.54
     94.5700	  886.00	  883.30	-1713.30	  389.31
     94.6700	  858.00	  895.74	-1753.74	  389.08
     94.7700	  934.00	  903.84	-1685.84	  388.85
     94.8700	  875.00	  906.01	-1747.01	  388.62
     94.9700	  892.00	  901.21	-1725.21	  388.38
     95.0700	  896.00	  889.31	-1709.31	  388.15
     95.1700	  919.00	  871.10	-1668.10	  387.91
     95.2700	  850.00	  848.10	-1714.10	  387.67
     95.3700	  825.00	  822.18	-1713.18	  387.43
     95.4700	  822.00	  795.34	-1689.34	  387.19
     95.5700	  780.00	  769.48	-1705.48	  386.95
     95.6700	  738.00	  746.38	-1724.38	  386.71
     95.7700	  708.00	  727.65	-1735.65	  386.46
     95.8700	  718.00	  714.71	-1712.71	  386.22
     95.9700	  740.00	  708.81	-1684.81	  385.97
     96.0700	  695.00	  711.05	-1732.05	  385.72
     96.1700	  682.00	  722.30	-1756.30	  385.47
     96.2700	  787.00	  743.25	-1672.25	  385.22
     96.3700	  744.00	  774.31	-1746.31	  384.97
     96.4700	  825.00	  815.58	-1706.58	  384.72
     96.5700	  838.00	  866.75	-1744.75	  384.46
     96.6700	  909.00	  927.03	-1734.03	  384.21
     96.7700	  982.00	  995.02	-1729.02	  383.95
     96.8700	 1085.00	 1068.73	-1699.73	  383.69
     96.9700	 1118.00	 1145.47	-1743.47	  383.44
     97.0700	 1260.00	 1221.93	-1677.93	  383.18
     97.1700	 1253.00	 1294.17	-1757.17	  382.92
     97.2700	 1399.00	 1357.82	-1674.82	  382.65
     97.3700	 1406.00	 1408.44	-1718.44	  382.39
     97.4700	 1429.00	 1442.03	-1729.03	  382.13
     97.5700	 1399.00	 1455.85	-1772.85	  381.86
     97.6700	 1393.00	 1448.98	-1771.98	  381.60
     97.7700	 1409.00	 1422.56	-1729.56	  381.33
     97.8700	 1379.00	 1379.44	-1716.44	  381.06
     97.9700	 1264.00	 1323.47	-1775.47	  380.79
     98.0700	 1261.00	 1258.90	-1713.90	  380.52
     98.1700	 1171.00	 1189.92	-1734.92	  380.25
     98.2700	 1156.00	 1120.38	-1680.38	  379.98
     98.3700	 1018.00	 1053.67	-1751.67	  379.71
     98.4700	 1025.00	  992.71	-1683.71	  379.44
     98.5700	  948.00	  939.86	-1707.86	  379.16
     98.6700	  841.00	  897.02	-1772.02	  378.89
     98.7700	  835.00	  865.72	-1746.72	  378.61
     98.8700	  826.00	  847.02	-1737.02	  378.34
     98.9700	  840.00	  841.73	-1717.73	  378.06
     99.0700	  840.00	  850.33	-1726.33	  377.78
     99.1700	  883.00	  873.13	-1706.13	  377.50
     99.2700	  908.00	  910.16	-1718.16	  377.22
     99.3700	  940.00	  961.24	-1737.24	  376.95
     99.4700	 1021.00	 1025.87	-1720.87	  376.67
     99.5700	 1135.00	 1103.18	-1684.18	  376.38
     99.6700	 1134.00	 1191.83	-1773.83	  376.10
     99.7700	 1285.00	 1289.91	-1720.91	  375.82
     99.8700	 1435.00	 1394.90	-1675.90	  375.54
     99.9700	 1424.00	 1503.58	-1795.58	  375.26
    100.0700	 1577.00	 1612.08	-1751.08	  374.97
    100.1700	 1732.00	 1716.08	-1700.08	  374.69
    100.2700	 1818.00	 1811.15	-1709.15	  374.40
    100.3700	 1967.00	 1893.21	-1642.21	  374.12
    100.4700	 1936.00	 1958.98	-1738.98	  373.84
    100.5700	 2093.00	 2006.11	-1629.11	  373.55
    100.6700	 2050.00	 2033.15	-1699.15	  373.26
    100.7700	 2039.00	 2039.27	-1716.27	  372.98
    100.8700	 2040.00	 2024.21	-1700.21	  372.69
    100.9700	 2028.00	 1988.58	-1676.58	  372.41
    101.0700	 1956.00	 1934.10	-1694.10	  372.12
    101.1700	 1886.00	 1863.87	-1693.87	  371.83
    101.2700	 1801.00	 1782.17	-1697.17	  371.54
    101.3700	 1696.00	 1693.88	-1713.88	  371.26
    101.4700	 1573.00	 1603.92	-1746.92	  370.97
    101.5700	 1469.00	 1516.66	-1763.66	  370.68
    101.6700	 1483.00	 1435.67	-1668.67	  370.39
    101.7700	 1311.00	 1363.49	-1768.49	  370.11
    101.8700	 1328.00	 1301.64	-1689.64	  369.82
    101.9700	 1253.00	 1250.67	-1713.67	  369.53
    102.0700	 1184.00	 1210.15	-1742.15	  369.24
    102.1700	 1155.00	 1178.84	-1739.84	  368.96
    102.2700	 1194.00	 1154.80	-1676.80	  368.67
    102.3700	 1143.00	 1135.61	-1708.61	  368.38
    102.4700	 1082.00	 1118.60	-1752.60	  368.09
    102.5700	 1107.00	 1101.15	-1710.15	  367.81
    102.6700	 1035.00	 1081.08	-1762.08	  367.52
    102.7700	 1080.00	 1056.92	-1692.92	  367.23
    102.8700	 1013.00	 1028.05	-1731.05	  366.95
    102.9700	 1004.00	  994.66	-1706.66	  366.66
    103.0700	  978.00	  957.54	-1695.54	  366.37
    103.1700	  903.00	  917.81	-1730.81	  366.09
    103.2700	  903.00	  876.72	-1689.72	  365.80
    103.3700	  856.00	  835.51	-1695.51	  365.52
    103.4700	  799.00	  795.30	-1712.30	  365.23
    103.5700	  785.00	  757.08	-1688.08	  364.95
    103.6700	  720.00	  721.61	-1717.61	  364.67
    103.7700	  660.00	  689.43	-1745.43	  364.38
    103.8700	  630.00	  660.90	-1746.90	  364.10
    103.9700	  618.00	  636.16	-1734.16	  363.82
    104.0700	  665.00	  615.17	-1666.17	  363.54
    104.1700	  620.00	  597.76	-1693.76	  363.26
    104.2700	  573.00	  583.64	-1726.64	  362.98
    104.3700	  586.00	  572.47	-1702.47	  362.70
    104.4700	  551.00	  563.87	-1728.87	  362.42
    104.5700	  589.00	  557.47	-1684.47	  362.14
    104.6700	  585.00	  552.90	-1683.90	  361.87
    104.7700	  533.00	  549.84	-1732.84	  361.59
    104.8700	  573.00	  548.00	-1691.00	  361.32
    104.9700	  554.00	  547.16	-1709.16	  361.04
    105.0700	  544.00	  547.11	-1719.11	  360.77
    105.1700	  543.00	  547.73	-1720.73	  360.50
    105.2700	  545.00	  548.91	-1719.91	  360.23
    105.3700	  527.00	  550.60	-1739.60	  359.96
    105.4700	  526.00	  552.76	-1742.76	  359.69
    105.5700	  559.00	  555.46	-1712.46	  359.42
    105.6700	  624.00	  558.73	-1650.73	  359.15
    105.7700	  584.00	  562.65	-1694.65	  358.89
    105.8700	  579.00	  567.37	-1704.37	  358.62
    105.9700	  576.00	  572.95	-1712.95	  358.36
    106.0700	  611.00	  579.48	-1684.48	  358.10
    106.1700	  532.00	  586.97	-1770.97	  357.84
    106.2700	  578.00	  595.42	-1733.42	  357.58
    106.3700	  600.00	  604.73	-1720.73	  357.32
    106.4700	  568.00	  614.75	-1762.75	  357.07
    106.5700	  621.00	  625.27	-1720.27	  356.81
    106.6700	  681.00	  636.01	-1671.01	  356.56
    106.7700	  635.00	  646.63	-1727.63	  356.31
    106.8700	  688.00	  656.77	-1684.77	  356.06
    106.9700	  647.00	  666.02	-1735.02	  355.81
    107.0700	  687.00	  674.00	-1703.00	  355.56
    107.1700	  684.00	  680.39	-1712.39	  355.32
    107.2700	  681.00	  684.99	-1719.99	  355.08
    107.3700	  638.00	  687.74	-1765.74	  354.83
    107.4700	  678.00	  688.78	-1726.78	  354.59
    107.5700	  690.00	  688.40	-1714.40	  354.36
    107.6700	  675.00	  687.00	-1728.00	  354.12
    107.7700	  665.00	  685.01	-1736.01	  353.89
    107.8700	  668.00	  682.86	-1730.86	  353.66
    107.9700	  664.00	  680.91	-1732.91	  353.43
    108.0700	  673.00	  679.43	-1722.43	  353.20
    108.1700	  685.00	  678.58	-1709.58	  352.98
    108.2700	  643.00	  678.40	-1751.40	  352.75
    108.3700	  646.00	  678.83	-1748.83	  352.53
    108.4700	  667.00	  679.68	-1728.68	  352.31
    108.5700	  655.00	  680.68	-1741.68	  352.10
    108.6700	  725.00	  681.46	-1672.46	  351.88
    108.7700	  691.00	  681.64	-1706.64	  351.67
    108.8700	  689.00	  680.81	-1707.81	  351.46
    108.9700	  698.00	  678.63	-1696.63	  351.26
    109.0700	  672.00	  674.88	-1718.88	  351.05
    109.1700	  684.00	  669.46	-1701.46	  350.85
    109.2700	  692.00	  662.45	-1686.45	  350.65
    109.3700	  671.00	  654.05	-1699.05	  350.46
    109.4700	  652.00	  644.54	-1708.54	  350.26
    109.5700	  630.00	  634.24	-1720.24	  350.07
    109.6700	  623.00	  623.50	-1716.50	  349.88
    109.7700	  595.00	  612.64	-1733.64	  349.70
    109.8700	  635.00	  601.95	-1682.95	  349.52
    109.9700	  605.00	  591.70	-1702.70	  349.34
    110.0700	  618.00	  582.09	-1680.09	  349.16
    110.1700	  586.00	  573.30	-1703.30	  348.99
    110.2700	  604.00	  565.44	-1677.44	  348.82
    110.3700	  583.00	  558.58	-1691.58	  348.65
    110.4700	  548.00	  552.75	-1720.75	  348.49
    110.5700	  552.00	  547.94	-1711.94	  348.33
    110.6700	  565.00	  544.09	-1695.09	  348.17
    110.7700	  536.00	  541.17	-1721.17	  348.02
    110.8700	  536.00	  539.07	-1719.07	  347.87
    110.9700	  495.00	  537.72	-1758.72	  347.72
    111.0700	  536.00	  537.03	-1717.03	  347.58
    111.1700	  538.00	  536.90	-1714.90	  347.44
    111.2700	  592.00	  537.27	-1661.27	  347.30
    111.3700	  537.00	  538.06	-1717.06	  347.17
    111.4700	  512.00	  539.20	-1743.20	  347.04
    111.5700	  525.00	  540.65	-1731.65	  346.91
    111.6700	  570.00	  542.37	-1688.37	  346.79
    111.7700	  529.00	  544.32	-1731.32	  346.67
    111.8700	  526.00	  546.48	-1736.48	  346.56
    111.9700	  559.00	  548.84	-1705.84	  346.45
    112.0700	  559.00	  551.41	-1708.41	  346.35
    112.1700	  576.00	  554.19	-1694.19	  346.24
    112.2700	  576.00	  557.21	-1697.21	  346.15
    112.3700	  558.00	  560.48	-1718.48	  346.05
    112.4700	  551.00	  564.04	-1729.04	  345.96
    112.5700	  570.00	  567.96	-1713.96	  345.88
    112.6700	  583.00	  572.27	-1705.27	  345.80
    112.7700	  557.00	  577.08	-1736.08	  345.72
    112.8700	  585.00	  582.48	-1713.48	  345.65
    112.9700	  584.00	  588.61	-1720.61	  345.58
    113.0700	  617.00	  595.64	-1694.64	  345.52
    113.1700	  638.00	  603.80	-1681.80	  345.46
    113.2700	  643.00	  613.37	-1686.37	  345.41
    113.3700	  681.00	  624.74	-1659.74	  345.36
    113.4700	  691.00	  638.36	-1663.36	  345.31
    113.5700	  644.00	  654.83	-1726.83	  345.27
    113.6700	  669.00	  674.88	-1721.88	  345.24
    113.7700	  710.00	  699.40	-1705.40	  345.21
    113.8700	  746.00	  729.47	-1699.47	  345.18
    113.9700	  836.00	  766.35	-1646.35	  345.17
    114.0700	  845.00	  811.55	-1682.55	  345.15
    114.1700	  916.00	  866.75	-1666.75	  345.14
    114.2700	  985.00	  933.87	-1664.87	  345.14
    114.3700	 1094.00	 1014.97	-1636.97	  345.14
    114.4700	 1160.00	 1112.27	-1668.27	  345.15
    114.5700	 1289.00	 1228.03	-1655.03	  345.16
    114.6700	 1447.00	 1364.53	-1633.53	  345.17
    114.7700	 1605.00	 1523.94	-1634.94	  345.20
    114.8700	 1816.00	 1708.15	-1608.15	  345.23
    114.9700	 2057.00	 1918.66	-1577.66	  345.26
    115.0700	 2341.00	 2156.43	-1531.43	  345.30
    115.1700	 2467.00	 2421.75	-1670.75	  345.35
    115.2700	 2816.00	 2714.14	-1614.14	  345.40
    115.3700	 2968.00	 3032.02	-1780.02	  345.46
    115.4700	 3420.00	 3372.81	-1668.81	  345.52
    115.5700	 3597.00	 3732.70	-1851.70	  345.59
    115.6700	 4075.00	 4106.81	-1747.81	  345.66
    115.7700	 4356.00	 4489.04	-1849.04	  345.75
    115.8700	 4850.00	 4872.02	-1738.02	  345.83
    115.9700	 5080.00	 5247.33	-1883.33	  345.93
    116.0700	 5490.00	 5605.53	-1831.53	  346.03
    116.1700	 5765.00	 5936.53	-1887.53	  346.14
    116.2700	 6244.00	 6229.84	-1701.84	  346.25
    116.3700	 6490.00	 6474.97	-1700.97	  346.37
    116.4700	 6421.00	 6662.29	-1957.29	  346.50
    116.5700	 6697.00	 6783.86	-1802.86	  346.63
    116.6700	 6864.00	 6834.31	-1686.31	  346.77
    116.7700	 6745.00	 6811.50	-1782.50	  346.92
    116.8700	 6670.00	 6716.79	-1762.79	  347.07
    116.9700	 6623.00	 6554.89	-1647.89	  347.23
    117.0700	 6297.00	 6333.27	-1752.27	  347.40
    117.1700	 6188.00	 6061.17	-1589.17	  347.57
    117.2700	 5617.00	 5748.79	-1847.79	  347.76
    117.3700	 5279.00	 5406.64	-1843.64	  347.94
    117.4700	 4965.00	 5044.87	-1795.87	  348.14
    117.5700	 4803.00	 4672.96	-1585.96	  348.35
    117.6700	 4327.00	 4299.33	-1688.33	  348.56
    117.7700	 4056.00	 3931.32	-1591.32	  348.78
    117.8700	 3706.00	 3575.19	-1585.19	  349.00
    117.9700	 3378.00	 3235.96	-1573.96	  349.24
    118.0700	 2969.00	 2917.52	-1664.52	  349.48
    118.1700	 2600.00	 2622.53	-1738.53	  349.73
    118.2700	 2344.00	 2352.61	-1724.61	  349.98
    118.3700	 2183.00	 2108.58	-1641.58	  350.25
    118.4700	 1903.00	 1890.39	-1703.39	  350.52
    118.5700	 1701.00	 1697.35	-1712.35	  350.80
    118.6700	 1556.00	 1528.20	-1688.20	  351.09
    118.7700	 1341.00	 1381.32	-1756.32	  351.39
    118.8700	 1225.00	 1254.83	-1745.83	  351.70
    118.9700	 1111.00	 1146.72	-1751.72	  352.01
    119.0700	 1021.00	 1054.93	-1749.93	  352.33
    119.1700	 1003.00	  977.41	-1690.41	  352.66
    119.2700	  867.00	  912.23	-1761.23	  353.00
    119.3700	  802.00	  857.61	-1771.61	  353.35
    119.4700	  748.00	  811.95	-1779.95	  353.71
    119.5700	  723.00	  773.83	-1766.83	  354.08
    119.6700	  767.00	  742.01	-1691.01	  354.45
    119.7700	  665.00	  715.45	-1766.45	  354.83
    119.8700	  673.00	  693.25	-1736.25	  355.23
    119.9700	  615.00	  674.67	-1775.67	  355.63
    120.0700	  617.00	  659.12	-1758.12	  356.04
    120.1700	  606.00	  646.08	-1756.08	  356.46
    120.2700	  606.00	  635.17	-1745.17	  356.89
    120.3700	  594.00	  626.04	-1748.04	  357.33
    120.4700	  588.00	  618.45	-1746.45	  357.78
    120.5700	  559.00	  612.18	-1769.18	  358.24
    120.6700	  603.00	  607.07	-1720.07	  358.71
    120.7700	  547.00	  602.99	-1771.99	  359.18
    120.8700	  599.00	  599.83	-1716.83	  359.67
    120.9700	  571.00	  597.50	-1742.50	  360.17
    121.0700	  565.00	  595.94	-1746.94	  360.68
    121.1700	  597.00	  595.08	-1714.08	  361.19
    121.2700	  560.00	  594.88	-1750.88	  361.72
    121.3700	  559.00	  595.27	-1752.27	  362.26
    121.4700	  560.00	  596.21	-1752.21	  362.81
    121.5700	  584.00	  597.65	-1729.65	  363.37
    121.6700	  550.00	  599.53	-1765.53	  363.94
    121.7700	  578.00	  601.80	-1739.80	  364.52
    121.8700	  571.00	  604.38	-1749.38	  365.11
    121.9700	  634.00	  607.21	-1689.21	  365.71
    122.0700	  582.00	  610.20	-1744.20	  366.32
    122.1700	  580.00	  613.28	-1749.28	  366.94
    122.2700	  648.00	  616.35	-1684.35	  367.58
    122.3700	  686.00	  619.32	-1649.32	  368.22
    122.4700	  598.00	  622.07	-1740.07	  368.88
    122.5700	  689.00	  624.56	-1651.56	  369.54
    122.6700	  645.00	  626.68	-1697.68	  370.22
    122.7700	  672.00	  628.36	-1672.36	  370.91
    122.8700	  653.00	  629.54	-1692.54	  371.61
    122.9700	  634.00	  630.20	-1712.20	  372.33
    123.0700	  660.00	  630.32	-1686.32	  373.05
    123.1700	  648.00	  629.91	-1697.91	  373.79
    123.2700	  694.00	  629.02	-1651.02	  374.54
    123.3700	  661.00	  627.66	-1682.66	  375.30
    123.4700	  612.00	  625.95	-1729.95	  376.07
    123.5700	  636.00	  623.91	-1703.91	  376.86
    123.6700	  590.00	  621.63	-1747.63	  377.65
    123.7700	  632.00	  619.16	-1703.16	  378.46
    123.8700	  617.00	  616.57	-1715.57	  379.28
    123.9700	  654.00	  613.93	-1675.93	  380.12
    124.0700	  648.00	  611.28	-1679.28	  380.96
    124.1700	  675.00	  608.68	-1649.68	  381.82
    124.2700	  585.00	  606.16	-1737.16	  382.69
    124.3700	  603.00	  603.77	-1716.77	  383.58
    124.4700	  603.00	  601.52	-1714.52	  384.48
    124.5700	  651.00	  599.45	-1664.45	  385.39
    124.6700	  581.00	  597.57	-1732.56	  386.31
    124.7700	  577.00	  595.88	-1734.88	  387.25
    124.8700	  624.00	  594.42	-1686.42	  388.20
    124.9700	  604.00	  504.21	-1616.21	  389.16
    125.0700	  555.00	  505.19	-1716.00	  390.14
    125.1700	  578.00	  506.18	-1716.00	  391.13
    125.2700	  546.00	  507.18	-1716.00	  392.14
    125.3700	  581.00	  508.20	-1716.00	  393.16
    125.4700	  546.00	  509.23	-1716.00	  394.19
    125.5700	  564.00	  510.28	-1716.00	  395.23
    125.6700	  567.00	  511.34	-1716.00	  396.29
    125.7700	  559.00	  512.42	-1716.00	  397.37
    125.8700	  559.00	  513.50	-1716.00	  398.46
    125.9700	  565.00	  514.61	-1716.00	  399.56
    126.0700	  529.00	  515.73	-1716.00	  400.68
    126.1700	  620.00	  516.86	-1716.00	  401.81
    126.2700	  561.00	  518.01	-1716.00	  402.96
    126.3700	  581.00	  519.17	-1716.00	  404.12
    126.4700	  612.00	  520.34	-1716.00	  405.30
    126.5700	  570.00	  521.54	-1716.00	  406.49
    126.6700	  608.00	  522.74	-1716.00	  407.70
    126.7700	  607.00	  523.96	-1716.00	  408.92
    126.8700	  584.00	  525.20	-1716.00	  410.16
    126.9700	  610.00	  526.45	-1716.00	  411.41
    127.0700	  641.00	  527.72	-1716.00	  412.68
    127.1700	  640.00	  529.01	-1716.00	  413.96
    127.2700	  632.00	  530.31	-1716.00	  415.26
    127.3700	  632.00	  531.62	-1716.00	  416.58
    127.4700	  653.00	  532.95	-1716.00	  417.91
    127.5700	  674.00	  534.30	-1716.00	  419.25
    127.6700	  689.00	  535.66	-1716.00	  420.62
    127.7700	  657.00	  537.04	-1716.00	  422.00
    127.8700	  735.00	  538.44	-1716.00	  423.39
    127.9700	  754.00	  539.85	-1716.00	  424.81
    128.0700	  776.00	  541.28	-1716.00	  426.23
    128.1700	  754.00	  542.73	-1716.00	  427.68
    128.2700	  774.00	  544.19	-1716.00	  429.14
    128.3700	  785.00	  545.67	-1716.00	  430.62
    128.4700	  771.00	  547.16	-1716.00	  432.12
    128.5700	    0.00	  548.68	-1716.00	  433.63
    128.6700	    0.00	  550.21	-1716.00	  435.16
     12.3003	        	        	        	        	       0	(  0  0  2)	  0  1
     24.8812	        	        	        	        	       0	(  0  0  4)	  0  1
     28.3326	        	        	        	        	       0	(  1  0  0)	  0  1
     29.0294	        	        	        	        	       0	(  1  0  1)	  0  1
     31.0347	        	        	        	        	       0	(  1  0  2)	  0  1
     34.1416	        	        	        	        	       0	(  1  0  3)	  0  1
     37.7779	        	        	        	        	       0	(  0  0  6)	  0  1
     38.1171	        	        	        	        	       0	(  1  0  4)	  0  1
     42.7655	        	        	        	        	       0	(  1  0  5)	  0  1
     47.9478	        	        	        	        	       0	(  1  0  6)	  0  1
     50.2739	        	        	        	        	       0	(  1  1  0)	  0  1
     51.1965	        	        	        	        	       0	(  0  0  8)	  0  1
     51.9961	        	        	        	        	       0	(  1  1  2)	  0  1
     53.5764	        	        	        	        	       0	(  1  0  7)	  0  1
     56.9417	        	        	        	        	       0	(  1  1  4)	  0  1
     58.7728	        	        	        	        	       0	(  2  0  0)	  0  1
     59.1642	        	        	        	        	       0	(  2  0  1)	  0  1
     59.6049	        	        	        	        	       0	(  1  0  8)	  0  1
     60.3290	        	        	        	        	       0	(  2  0  2)	  0  1
     62.2414	        	        	        	        	       0	(  2  0  3)	  0  1
     64.6332	        	        	        	        	       0	(  1  1  6)	  0  1
     64.8643	        	        	        	        	       0	(  2  0  4)	  0  1
     65.4218	        	        	        	        	       0	(  0  0 10)	  0  1
     66.0191	        	        	        	        	       0	(  1  0  9)	  0  1
     68.1571	        	        	        	        	       0	(  2  0  5)	  0  1
     72.0830	        	        	        	        	       0	(  2  0  6)	  0  1
     72.8330	        	        	        	        	       0	(  1  0 10)	  0  1
     74.6670	        	        	        	        	       0	(  1  1  8)	  0  1
     76.6153	        	        	        	        	       0	(  2  0  7)	  0  1
     80.0880	        	        	        	        	       0	(  1  0 11)	  0  1
     80.8971	        	        	        	        	       0	(  0  0 12)	  0  1
     81.0200	        	        	        	        	       0	(  2  1  0)	  0  1
     81.3597	        	        	        	        	       0	(  2  1  1)	  0  1
     81.7435	        	        	        	        	       0	(  2  0  8)	  0  1
     82.3771	        	        	        	        	       0	(  2  1  2)	  0  1
     84.0677	        	        	        	        	       0	(  2  1  3)	  0  1
     86.4265	        	        	        	        	       0	(  2  1  4)	  0  1
     86.9336	        	        	        	        	       0	(  1  1 10)	  0  1
     87.4793	        	        	        	        	       0	(  2  0  9)	  0  1
     87.8593	        	        	        	        	       0	(  1  0 12)	  0  1
     89.4511	        	        	        	        	       0	(  2  1  5)	  0  1
     93.1471	        	        	        	        	       0	(  2  1  6)	  0  1
     93.8642	        	        	        	        	       0	(  2  0 10)	  0  1
     94.9137	        	        	        	        	       0	(  3  0  0)	  0  1
     95.2509	        	        	        	        	       0	(  3  0  1)	  0  1
     96.2638	        	        	        	        	       0	(  3  0  2)	  0  1
     96.2690	        	        	        	        	       0	(  1  0 13)	  0  1
     97.5340	        	        	        	        	       0	(  2  1  7)	  0  1
     97.9565	        	        	        	        	       0	(  3  0  3)	  0  1
     98.4292	        	        	        	        	       0	(  0  0 14)	  0  1
    100.3387	        	        	        	        	       0	(  3  0  4)	  0  1
    100.9831	        	        	        	        	       0	(  2  0 11)	  0  1
    101.7978	        	        	        	        	       0	(  1  1 12)	  0  1
    102.6546	        	        	        	        	       0	(  2  1  8)	  0  1
    103.4294	        	        	        	        	       0	(  3  0  5)	  0  1
    105.5172	        	        	        	        	       0	(  1  0 14)	  0  1
    107.2633	        	        	        	        	       0	(  3  0  6)	  0  1
    108.5894	        	        	        	        	       0	(  2  1  9)	  0  1
    108.9908	        	        	        	        	       0	(  2  0 12)	  0  1
    111.9023	        	        	        	        	       0	(  3  0  7)	  0  1
    115.4838	        	        	        	        	       0	(  2  1 10)	  0  1
    115.9546	        	        	        	        	       0	(  1  0 15)	  0  1
    116.6498	        	        	        	        	       0	(  2  2  0)	  0  1
    117.4543	        	        	        	        	       0	(  3  0  8)	  0  1
    118.1648	        	        	        	        	       0	(  2  2  2)	  0  1
    118.1708	        	        	        	        	       0	(  2  0 13)	  0  1
    119.9046	        	        	        	        	       0	(  0  0 16)	  0  1
    120.6324	        	        	        	        	       0	(  1  1 14)	  0  1
    122.8501	        	        	        	        	       0	(  2  2  4)	  0  1
    123.6079	        	        	        	        	       0	(  2  1 11)	  0  1
    124.1127	        	        	        	        	       0	(  3  0  9)	  0  1
    124.7211	        	        	        	        	       0	(  3  1  0)	  0  1
    125.1314	        	        	        	        	       0	(  3  1  1)	  0  1
    126.3750	        	        	        	        	       0	(  3  1  2)	  0  1
    128.2889	        	        	        	        	       0	(  1  0 16)	  0  1
    128.4935	        	        	        	        	       0	(  3  1  3)	  0  1
    129.0947	        	        	        	        	       0	(  2  0 14)	  0  1
    131.2905	        	        	        	        	       0	(  2  2  6)	  0  1
    131.5701	        	        	        	        	       0	(  3  1  4)	  0  1
    132.2520	        	        	        	        	       0	(  3  0 10)	  0  1
    133.5169	        	        	        	        	       0	(  2  1 12)	  0  1
    135.7585	        	        	        	        	       0	(  3  1  5)	  0  1
    141.3568	        	        	        	        	       0	(  3  1  6)	  0  1
    142.7301	        	        	        	        	       0	(  3  0 11)	  0  1
    143.2251	        	        	        	        	       0	(  2  0 15)	  0  1
    144.4416	        	        	        	        	       0	(  1  0 17)	  0  1
    145.5301	        	        	        	        	       0	(  2  2  8)	  0  1
    146.6689	        	        	        	        	       0	(  2  1 13)	  0  1
    149.0371	        	        	        	        	       0	(  3  1  7)	  0  1
    149.5452	        	        	        	        	       0	(  1  1 16)	  0  1
    153.9118	        	        	        	        	       0	(  0  0 18)	  0  1
    158.6162	        	        	        	        	       0	(  3  0 12)	  0  1
    158.9536	        	        	        	        	       0	(  4  0  0)	  0  1
    159.9155	        	        	        	        	       0	(  4  0  1)	  0  1
    161.0600	        	        	        	        	       0	(  3  1  8)	  0  1
    163.1157	        	        	        	        	       0	(  4  0  2)	  0  1
    169.6281	        	        	        	        	       0	(  2  0 16)	  0  1
    170.5714	        	        	        	        	       0	(  4  0  3)	  0  1
    174.1515	        	        	        	        	       0	(  2  1 14)	  0  1
