MSG Master    CELL:    5.91921   5.91921  23.27305   90.0000   90.0000  120.0000   SPGR: P 63/m m c             TEMP:   1074.85
  1   1280     2.52000     0.00000    -0.12491     0.00000     0.00000    0
    99     0     2
       0.00000      10.00000
     125.00000     130.00000
 2Theta	Yobs	Ycal	Yobs-Ycal	Backg	Posr	(hkl)	K
      0.7700	    0.00	  550.04	-1781.50	  432.19
      0.8700	    0.00	  550.75	-1781.50	  432.90
      0.9700	   41.00	  551.44	-1781.50	  433.60
      1.0700	   45.00	  552.13	-1781.50	  434.28
      1.1700	   43.00	  552.80	-1781.50	  434.96
      1.2700	   44.00	  553.47	-1781.50	  435.62
      1.3700	   53.00	  554.12	-1781.50	  436.27
      1.4700	  111.00	  554.76	-1781.50	  436.91
      1.5700	  278.00	  555.39	-1781.50	  437.54
      1.6700	  484.00	  556.01	-1781.50	  438.16
      1.7700	  576.00	  556.62	-1781.50	  438.77
      1.8700	  685.00	  557.22	-1781.50	  439.37
      1.9700	  721.00	  557.81	-1781.50	  439.96
      2.0700	  733.00	  558.39	-1781.50	  440.54
      2.1700	  785.00	  558.96	-1781.50	  441.11
      2.2700	  770.00	  559.52	-1781.50	  441.67
      2.3700	  760.00	  560.06	-1781.50	  442.22
      2.4700	  708.00	  560.60	-1781.50	  442.76
      2.5700	  725.00	  561.13	-1781.50	  443.28
      2.6700	  665.00	  561.65	-1781.50	  443.80
      2.7700	  663.00	  562.16	-1781.50	  444.31
      2.8700	  651.00	  562.66	-1781.50	  444.81
      2.9700	  607.00	  563.15	-1781.50	  445.30
      3.0700	  644.00	  563.63	-1781.50	  445.78
      3.1700	  620.00	  564.10	-1781.50	  446.25
      3.2700	  610.00	  564.56	-1781.50	  446.71
      3.3700	  666.00	  565.01	-1781.50	  447.17
      3.4700	  762.00	  565.46	-1781.50	  447.61
      3.5700	  789.00	  565.89	-1781.50	  448.04
      3.6700	  834.00	  566.32	-1781.50	  448.47
      3.7700	  911.00	  566.73	-1781.50	  448.88
      3.8700	  968.00	  567.14	-1781.50	  449.29
      3.9700	 1067.00	  567.54	-1781.50	  449.69
      4.0700	 1003.00	  567.92	-1781.50	  450.08
      4.1700	 1024.00	  568.30	-1781.50	  450.46
      4.2700	 1100.00	  568.68	-1781.50	  450.83
      4.3700	 1091.00	  569.04	-1781.50	  451.19
      4.4700	 1050.00	  569.39	-1781.50	  451.54
      4.5700	 1060.00	  569.74	-1781.50	  451.89
      4.6700	 1034.00	  570.07	-1781.50	  452.23
      4.7700	  919.00	  570.40	-1781.50	  452.56
      4.8700	  973.00	  570.72	-1781.50	  452.88
      4.9700	  913.00	  571.04	-1781.50	  453.19
      5.0700	  906.00	  571.34	-1781.50	  453.49
      5.1700	  917.00	  571.64	-1781.50	  453.79
      5.2700	  908.00	  571.92	-1781.50	  454.08
      5.3700	  892.00	  572.20	-1781.50	  454.36
      5.4700	  892.00	  572.48	-1781.50	  454.63
      5.5700	  875.00	  572.74	-1781.50	  454.89
      5.6700	  811.00	  573.00	-1781.50	  455.15
      5.7700	  833.00	  573.24	-1781.50	  455.40
      5.8700	  827.00	  573.49	-1781.50	  455.64
      5.9700	  837.00	  573.72	-1781.50	  455.87
      6.0700	  813.00	  573.94	-1781.50	  456.10
      6.1700	  784.00	  574.16	-1781.50	  456.31
      6.2700	  779.00	  574.37	-1781.50	  456.53
      6.3700	  753.00	  574.58	-1781.50	  456.73
      6.4700	  808.00	  574.77	-1781.50	  456.93
      6.5700	  769.00	  574.96	-1781.50	  457.11
      6.6700	  720.00	  575.14	-1781.50	  457.30
      6.7700	  757.00	  575.32	-1781.50	  457.47
      6.8700	  724.00	  575.49	-1781.50	  457.64
      6.9700	  724.00	  575.65	-1781.50	  457.80
      7.0700	  718.00	  575.80	-1781.50	  457.95
      7.1700	  693.00	  575.95	-1781.50	  458.10
      7.2700	  700.00	  576.09	-1781.50	  458.24
      7.3700	  642.00	  576.22	-1781.50	  458.37
      7.4700	  637.00	  576.35	-1781.50	  458.50
      7.5700	  682.00	  576.47	-1781.50	  458.62
      7.6700	  624.00	  576.58	-1781.50	  458.73
      7.7700	  662.00	  576.68	-1781.50	  458.84
      7.8700	  633.00	  576.79	-1781.50	  458.94
      7.9700	  702.00	  576.88	-1781.50	  459.03
      8.0700	  680.00	  576.97	-1781.50	  459.12
      8.1700	  648.00	  577.05	-1781.50	  459.20
      8.2700	  636.00	  577.12	-1781.50	  459.28
      8.3700	  614.00	  577.19	-1781.50	  459.34
      8.4700	  632.00	  577.25	-1781.50	  459.41
      8.5700	  640.00	  577.31	-1781.50	  459.46
      8.6700	  634.00	  577.36	-1781.50	  459.51
      8.7700	  611.00	  577.41	-1781.50	  459.56
      8.8700	  627.00	  577.44	-1781.50	  459.60
      8.9700	  649.00	  577.48	-1781.50	  459.63
      9.0700	  624.00	  577.50	-1781.50	  459.66
      9.1700	  587.00	  577.53	-1781.50	  459.68
      9.2700	  650.00	  577.54	-1781.50	  459.69
      9.3700	  617.00	  577.55	-1781.50	  459.70
      9.4700	  635.00	  577.56	-1781.50	  459.71
      9.5700	  592.00	  577.56	-1781.50	  459.71
      9.6700	  602.00	  577.55	-1781.50	  459.70
      9.7700	  558.00	  577.54	-1781.50	  459.69
      9.8700	  633.00	  577.52	-1781.50	  459.67
      9.9700	  607.00	  577.50	-1781.50	  459.65
     10.0700	  567.00	  578.25	-1792.75	  459.62
     10.1700	  640.00	  578.30	-1719.80	  459.59
     10.2700	  616.00	  578.36	-1743.86	  459.55
     10.3700	  604.00	  578.45	-1755.95	  459.51
     10.4700	  641.00	  578.59	-1719.09	  459.46
     10.5700	  602.00	  578.84	-1758.34	  459.41
     10.6700	  586.00	  579.29	-1774.79	  459.35
     10.7700	  601.00	  580.04	-1760.54	  459.28
     10.8700	  603.00	  581.18	-1759.68	  459.22
     10.9700	  588.00	  582.69	-1776.19	  459.14
     11.0700	  575.00	  584.53	-1791.03	  459.07
     11.1700	  554.00	  586.71	-1814.21	  458.98
     11.2700	  550.00	  589.26	-1820.76	  458.90
     11.3700	  586.00	  592.24	-1787.74	  458.81
     11.4700	  548.00	  595.80	-1829.30	  458.71
     11.5700	  600.00	  600.12	-1781.62	  458.61
     11.6700	  598.00	  605.55	-1789.05	  458.51
     11.7700	  623.00	  612.68	-1771.18	  458.40
     11.8700	  653.00	  622.43	-1750.93	  458.28
     11.9700	  680.00	  635.45	-1736.95	  458.17
     12.0700	  734.00	  650.26	-1697.76	  458.04
     12.1700	  677.00	  660.84	-1765.34	  457.92
     12.2700	  655.00	  657.61	-1784.11	  457.79
     12.3700	  670.00	  637.56	-1749.06	  457.65
     12.4700	  637.00	  612.98	-1757.48	  457.51
     12.5700	  607.00	  595.01	-1769.51	  457.37
     12.6700	  573.00	  585.26	-1793.76	  457.22
     12.7700	  579.00	  580.84	-1783.34	  457.07
     12.8700	  568.00	  578.84	-1792.34	  456.92
     12.9700	  557.00	  577.72	-1802.22	  456.76
     13.0700	  550.00	  576.95	-1808.45	  456.60
     13.1700	  569.00	  576.36	-1788.86	  456.43
     13.2700	  541.00	  575.87	-1816.37	  456.27
     13.3700	  561.00	  575.45	-1795.95	  456.09
     13.4700	  552.00	  575.08	-1804.58	  455.92
     13.5700	  615.00	  574.74	-1741.24	  455.74
     13.6700	  564.00	  574.43	-1791.93	  455.55
     13.7700	  565.00	  574.14	-1790.64	  455.37
     13.8700	  595.00	  573.87	-1760.37	  455.18
     13.9700	  527.00	  573.60	-1828.10	  454.98
     14.0700	  572.00	  573.34	-1782.84	  454.78
     14.1700	  600.00	  573.09	-1754.59	  454.58
     14.2700	  531.00	  572.84	-1823.34	  454.38
     14.3700	  556.00	  572.59	-1798.09	  454.17
     14.4700	  521.00	  572.35	-1832.85	  453.96
     14.5700	  533.00	  572.11	-1820.61	  453.75
     14.6700	  631.00	  571.86	-1722.36	  453.53
     14.7700	  567.00	  571.62	-1786.12	  453.32
     14.8700	  559.00	  571.38	-1793.88	  453.09
     14.9700	  560.00	  571.13	-1792.63	  452.87
     15.0700	  592.00	  570.89	-1760.39	  452.64
     15.1700	  579.00	  570.64	-1773.14	  452.41
     15.2700	  565.00	  570.39	-1786.89	  452.18
     15.3700	  578.00	  570.14	-1773.64	  451.94
     15.4700	  549.00	  569.89	-1802.39	  451.70
     15.5700	  555.00	  569.64	-1796.14	  451.46
     15.6700	  588.00	  569.39	-1762.89	  451.21
     15.7700	  520.00	  569.13	-1830.63	  450.97
     15.8700	  520.00	  568.87	-1830.37	  450.72
     15.9700	  560.00	  568.61	-1790.11	  450.46
     16.0700	  526.00	  568.35	-1823.85	  450.21
     16.1700	  564.00	  568.11	-1785.61	  449.95
     16.2700	  559.00	  567.85	-1790.35	  449.69
     16.3700	  530.00	  567.58	-1819.08	  449.43
     16.4700	  571.00	  567.31	-1777.81	  449.17
     16.5700	  612.00	  567.04	-1736.54	  448.90
     16.6700	  559.00	  566.77	-1789.27	  448.63
     16.7700	  568.00	  566.49	-1779.99	  448.36
     16.8700	  591.00	  566.22	-1756.72	  448.09
     16.9700	  572.00	  565.94	-1775.44	  447.81
     17.0700	  543.00	  565.66	-1804.16	  447.53
     17.1700	  546.00	  565.38	-1800.88	  447.25
     17.2700	  582.00	  565.09	-1764.59	  446.97
     17.3700	  532.00	  564.81	-1814.31	  446.69
     17.4700	  553.00	  564.52	-1793.02	  446.40
     17.5700	  529.00	  564.23	-1816.73	  446.11
     17.6700	  556.00	  563.94	-1789.44	  445.82
     17.7700	  540.00	  563.65	-1805.15	  445.53
     17.8700	  570.00	  563.35	-1774.85	  445.24
     17.9700	  576.00	  563.06	-1768.56	  444.94
     18.0700	  569.00	  562.87	-1775.37	  444.65
     18.1700	  564.00	  562.57	-1780.07	  444.35
     18.2700	  578.00	  562.27	-1765.77	  444.05
     18.3700	  575.00	  561.98	-1768.48	  443.75
     18.4700	  550.00	  561.67	-1793.17	  443.44
     18.5700	  575.00	  561.37	-1767.87	  443.14
     18.6700	  568.00	  561.07	-1774.57	  442.83
     18.7700	  526.00	  560.76	-1816.26	  442.52
     18.8700	  578.00	  560.46	-1763.96	  442.21
     18.9700	  552.00	  560.23	-1789.73	  441.90
     19.0700	  571.00	  559.92	-1770.42	  441.59
     19.1700	  564.00	  559.62	-1777.12	  441.28
     19.2700	  501.00	  559.31	-1839.81	  440.96
     19.3700	  602.00	  559.00	-1738.50	  440.64
     19.4700	  550.00	  558.69	-1790.19	  440.33
     19.5700	  566.00	  558.37	-1773.87	  440.01
     19.6700	  549.00	  558.06	-1790.56	  439.69
     19.7700	  569.00	  557.75	-1770.25	  439.37
     19.8700	  553.00	  557.43	-1785.93	  439.04
     19.9700	  592.00	  557.12	-1746.62	  438.72
     20.0700	  544.00	  556.80	-1794.30	  438.39
     20.1700	  503.00	  556.49	-1834.99	  438.07
     20.2700	  591.00	  556.17	-1746.67	  437.74
     20.3700	  528.00	  555.85	-1809.35	  437.41
     20.4700	  536.00	  555.54	-1801.04	  437.09
     20.5700	  549.00	  555.22	-1787.72	  436.76
     20.6700	  531.00	  554.87	-1805.37	  436.42
     20.7700	  546.00	  554.55	-1790.05	  436.09
     20.8700	  565.00	  554.27	-1770.77	  435.76
     20.9700	  552.00	  553.96	-1783.46	  435.43
     21.0700	  526.00	  553.64	-1809.14	  435.09
     21.1700	  573.00	  553.32	-1761.82	  434.76
     21.2700	  529.00	  553.01	-1805.51	  434.42
     21.3700	  567.00	  552.69	-1767.19	  434.09
     21.4700	  560.00	  552.38	-1773.88	  433.75
     21.5700	  540.00	  552.07	-1793.57	  433.41
     21.6700	  527.00	  551.75	-1806.25	  433.07
     21.7700	  543.00	  551.44	-1789.94	  432.73
     21.8700	  523.00	  551.13	-1809.63	  432.40
     21.9700	  561.00	  550.82	-1771.32	  432.06
     22.0700	  547.00	  550.52	-1785.02	  431.71
     22.1700	  551.00	  550.22	-1780.72	  431.37
     22.2700	  573.00	  549.92	-1758.42	  431.03
     22.3700	  563.00	  549.62	-1768.12	  430.69
     22.4700	  565.00	  549.33	-1765.83	  430.35
     22.5700	  519.00	  549.04	-1811.54	  430.01
     22.6700	  552.00	  548.76	-1778.26	  429.66
     22.7700	  564.00	  548.48	-1765.98	  429.32
     22.8700	  542.00	  548.21	-1787.71	  428.98
     22.9700	  548.00	  547.96	-1781.46	  428.63
     23.0700	  573.00	  547.71	-1756.21	  428.29
     23.1700	  577.00	  547.49	-1751.99	  427.94
     23.2700	  520.00	  547.28	-1808.78	  427.60
     23.3700	  571.00	  547.10	-1757.60	  427.26
     23.4700	  563.00	  546.95	-1765.45	  426.91
     23.5700	  548.00	  546.85	-1780.35	  426.57
     23.6700	  532.00	  546.82	-1796.32	  426.22
     23.7700	  575.00	  547.02	-1753.52	  425.88
     23.8700	  520.00	  547.32	-1808.82	  425.53
     23.9700	  543.00	  548.05	-1786.55	  425.19
     24.0700	  577.00	  549.64	-1754.14	  424.84
     24.1700	  574.00	  552.77	-1760.27	  424.50
     24.2700	  613.00	  558.27	-1726.77	  424.15
     24.3700	  600.00	  567.13	-1748.63	  423.81
     24.4700	  615.00	  580.37	-1746.87	  423.46
     24.5700	  607.00	  598.28	-1772.78	  423.12
     24.6700	  591.00	  618.09	-1808.59	  422.77
     24.7700	  641.00	  631.88	-1772.38	  422.43
     24.8700	  621.00	  628.94	-1789.44	  422.08
     24.9700	  600.00	  607.83	-1789.33	  421.74
     25.0700	  555.00	  582.12	-1808.62	  421.39
     25.1700	  555.00	  562.87	-1789.37	  421.05
     25.2700	  585.00	  552.01	-1748.51	  420.71
     25.3700	  548.00	  546.91	-1780.41	  420.36
     25.4700	  569.00	  544.59	-1757.09	  420.02
     25.5700	  521.00	  543.36	-1803.86	  419.68
     25.6700	  552.00	  542.56	-1772.06	  419.34
     25.7700	  586.00	  541.97	-1737.47	  419.00
     25.8700	  554.00	  541.53	-1769.03	  418.66
     25.9700	  560.00	  541.19	-1762.69	  418.31
     26.0700	  568.00	  540.93	-1754.44	  417.97
     26.1700	  591.00	  540.76	-1731.26	  417.63
     26.2700	  512.00	  540.67	-1810.17	  417.29
     26.3700	  553.00	  540.66	-1769.16	  416.96
     26.4700	  535.00	  540.73	-1787.23	  416.62
     26.5700	  534.00	  540.90	-1788.40	  416.28
     26.6700	  549.00	  541.19	-1773.69	  415.94
     26.7700	  523.00	  541.62	-1800.12	  415.61
     26.8700	  545.00	  542.23	-1778.73	  415.27
     26.9700	  567.00	  543.08	-1757.58	  414.93
     27.0700	  571.00	  544.24	-1754.74	  414.60
     27.1700	  539.00	  545.85	-1788.35	  414.27
     27.2700	  578.00	  548.18	-1751.68	  413.93
     27.3700	  563.00	  551.77	-1770.27	  413.60
     27.4700	  556.00	  557.62	-1783.12	  413.27
     27.5700	  540.00	  567.61	-1809.11	  412.94
     27.6700	  630.00	  584.69	-1736.19	  412.61
     27.7700	  601.00	  612.67	-1793.17	  412.28
     27.8700	  585.00	  654.89	-1851.39	  411.95
     27.9700	  731.00	  711.54	-1762.04	  411.62
     28.0700	  816.00	  776.15	-1741.65	  411.29
     28.1700	  889.00	  832.48	-1724.98	  410.97
     28.2700	 1000.00	  855.94	-1637.44	  410.64
     28.3700	  950.00	  831.70	-1663.20	  410.32
     28.4700	  769.00	  782.24	-1794.74	  409.99
     28.5700	  687.00	  745.42	-1839.92	  409.67
     28.6700	  645.00	  738.80	-1875.30	  409.35
     28.7700	  746.00	  758.08	-1793.58	  409.02
     28.8700	  797.00	  783.59	-1768.09	  408.70
     28.9700	  827.00	  787.60	-1742.10	  408.39
     29.0700	  721.00	  752.26	-1812.76	  408.07
     29.1700	  708.00	  692.05	-1765.55	  407.75
     29.2700	  636.00	  634.53	-1780.03	  407.43
     29.3700	  617.00	  593.00	-1757.50	  407.12
     29.4700	  574.00	  567.88	-1775.38	  406.80
     29.5700	  593.00	  554.30	-1742.80	  406.49
     29.6700	  567.00	  547.12	-1761.62	  406.18
     29.7700	  646.00	  543.04	-1678.54	  405.87
     29.8700	  640.00	  540.50	-1682.00	  405.56
     29.9700	  556.00	  538.89	-1764.39	  405.25
     30.0700	  568.00	  538.08	-1751.58	  404.94
     30.1700	  562.00	  538.23	-1757.73	  404.64
     30.2700	  552.00	  539.89	-1769.39	  404.33
     30.3700	  552.00	  544.14	-1773.64	  404.03
     30.4700	  543.00	  552.61	-1791.11	  403.72
     30.5700	  533.00	  567.03	-1815.53	  403.42
     30.6700	  557.00	  587.94	-1812.44	  403.12
     30.7700	  567.00	  612.77	-1827.27	  402.82
     30.8700	  628.00	  634.53	-1788.03	  402.52
     30.9700	  637.00	  642.41	-1786.91	  402.23
     31.0700	  609.00	  628.97	-1801.47	  401.93
     31.1700	  613.00	  601.14	-1769.64	  401.64
     31.2700	  592.00	  573.09	-1762.59	  401.35
     31.3700	  556.00	  552.34	-1777.84	  401.05
     31.4700	  488.00	  539.72	-1833.22	  400.76
     31.5700	  510.00	  532.97	-1804.47	  400.47
     31.6700	  488.00	  529.51	-1823.01	  400.19
     31.7700	  550.00	  527.59	-1759.09	  399.90
     31.8700	  547.00	  526.37	-1760.87	  399.62
     31.9700	  518.00	  525.53	-1789.03	  399.33
     32.0700	  595.00	  524.91	-1711.42	  399.05
     32.1700	  547.00	  524.49	-1758.99	  398.77
     32.2700	  559.00	  524.22	-1746.72	  398.49
     32.3700	  554.00	  524.10	-1751.60	  398.21
     32.4700	  559.00	  524.13	-1746.63	  397.93
     32.5700	  545.00	  524.33	-1760.83	  397.66
     32.6700	  572.00	  524.73	-1734.23	  397.39
     32.7700	  504.00	  525.35	-1802.85	  397.11
     32.8700	  566.00	  526.28	-1741.78	  396.84
     32.9700	  507.00	  527.61	-1802.11	  396.57
     33.0700	  548.00	  529.56	-1763.06	  396.31
     33.1700	  522.00	  532.57	-1792.07	  396.04
     33.2700	  547.00	  537.63	-1772.13	  395.77
     33.3700	  527.00	  546.93	-1801.43	  395.51
     33.4700	  575.00	  564.70	-1771.20	  395.25
     33.5700	  599.00	  597.69	-1780.19	  394.99
     33.6700	  673.00	  653.70	-1762.20	  394.73
     33.7700	  707.00	  736.44	-1810.94	  394.47
     33.8700	  895.00	  837.14	-1723.64	  394.22
     33.9700	  997.00	  928.99	-1713.49	  393.96
     34.0700	 1012.00	  970.50	-1740.00	  393.71
     34.1700	 1010.00	  930.51	-1702.01	  393.46
     34.2700	  906.00	  829.49	-1704.99	  393.21
     34.3700	  746.00	  720.03	-1755.53	  392.96
     34.4700	  615.00	  635.02	-1801.52	  392.72
     34.5700	  569.00	  581.47	-1793.97	  392.47
     34.6700	  557.00	  552.48	-1776.98	  392.23
     34.7700	  567.00	  537.94	-1752.44	  391.99
     34.8700	  511.00	  530.38	-1800.88	  391.75
     34.9700	  485.00	  525.88	-1822.38	  391.51
     35.0700	  522.00	  522.77	-1782.27	  391.28
     35.1700	  477.00	  520.43	-1824.93	  391.04
     35.2700	  471.00	  518.60	-1829.10	  390.81
     35.3700	  523.00	  517.09	-1775.59	  390.58
     35.4700	  502.00	  515.84	-1795.34	  390.35
     35.5700	  475.00	  514.78	-1821.28	  390.12
     35.6700	  501.00	  513.87	-1794.37	  389.89
     35.7700	  523.00	  513.08	-1771.58	  389.67
     35.8700	  555.00	  512.38	-1738.88	  389.45
     35.9700	  513.00	  511.77	-1780.27	  389.23
     36.0700	  524.00	  511.69	-1769.19	  389.01
     36.1700	  491.00	  511.20	-1801.70	  388.79
     36.2700	  526.00	  510.76	-1766.26	  388.57
     36.3700	  569.00	  510.36	-1722.86	  388.36
     36.4700	  515.00	  510.00	-1776.50	  388.15
     36.5700	  510.00	  509.69	-1781.19	  387.94
     36.6700	  555.00	  509.41	-1735.91	  387.73
     36.7700	  530.00	  509.19	-1760.69	  387.52
     36.8700	  496.00	  509.04	-1794.54	  387.32
     36.9700	  504.00	  509.04	-1786.54	  387.11
     37.0700	  515.00	  509.33	-1775.83	  386.91
     37.1700	  527.00	  510.21	-1764.71	  386.71
     37.2700	  520.00	  512.10	-1773.60	  386.51
     37.3700	  507.00	  515.44	-1789.94	  386.32
     37.4700	  530.00	  520.25	-1771.75	  386.12
     37.5700	  508.00	  525.74	-1799.24	  385.93
     37.6700	  549.00	  530.20	-1762.70	  385.74
     37.7700	  525.00	  531.64	-1788.14	  385.55
     37.8700	  491.00	  529.53	-1820.03	  385.36
     37.9700	  536.00	  525.44	-1770.94	  385.18
     38.0700	  521.00	  520.86	-1781.36	  384.99
     38.1700	  508.00	  516.38	-1789.88	  384.81
     38.2700	  517.00	  512.45	-1776.95	  384.63
     38.3700	  508.00	  509.43	-1782.93	  384.45
     38.4700	  529.00	  507.35	-1759.85	  384.27
     38.5700	  480.00	  506.02	-1807.52	  384.10
     38.6700	  493.00	  505.09	-1793.59	  383.93
     38.7700	  524.00	  504.57	-1762.07	  383.76
     38.8700	  543.00	  504.20	-1742.70	  383.59
     38.9700	  480.00	  503.91	-1805.41	  383.42
     39.0700	  540.00	  503.67	-1745.17	  383.25
     39.1700	  491.00	  503.45	-1793.95	  383.09
     39.2700	  513.00	  503.17	-1771.67	  382.93
     39.3700	  543.00	  502.98	-1741.48	  382.77
     39.4700	  458.00	  502.81	-1826.31	  382.61
     39.5700	  509.00	  502.78	-1775.28	  382.45
     39.6700	  503.00	  502.63	-1781.13	  382.30
     39.7700	  531.00	  502.50	-1753.00	  382.15
     39.8700	  526.00	  502.38	-1757.88	  382.00
     39.9700	  485.00	  502.26	-1798.76	  381.85
     40.0700	  523.00	  502.16	-1760.66	  381.70
     40.1700	  525.00	  502.07	-1758.57	  381.56
     40.2700	  503.00	  501.99	-1780.49	  381.41
     40.3700	  512.00	  501.92	-1771.42	  381.27
     40.4700	  480.00	  501.86	-1803.36	  381.13
     40.5700	  485.00	  501.82	-1798.32	  380.99
     40.6700	  497.00	  501.80	-1786.30	  380.86
     40.7700	  512.00	  501.80	-1771.30	  380.73
     40.8700	  500.00	  501.82	-1783.32	  380.59
     40.9700	  479.00	  501.87	-1804.37	  380.46
     41.0700	  479.00	  501.95	-1804.45	  380.33
     41.1700	  488.00	  502.07	-1795.57	  380.21
     41.2700	  484.00	  502.21	-1799.71	  380.08
     41.3700	  485.00	  502.45	-1798.95	  379.96
     41.4700	  511.00	  502.78	-1773.28	  379.84
     41.5700	  464.00	  503.65	-1821.15	  379.72
     41.6700	  519.00	  504.28	-1766.78	  379.60
     41.7700	  519.00	  505.22	-1767.72	  379.49
     41.8700	  498.00	  506.79	-1790.29	  379.38
     41.9700	  513.00	  509.70	-1778.20	  379.26
     42.0700	  516.00	  515.34	-1780.84	  379.16
     42.1700	  492.00	  525.93	-1815.43	  379.05
     42.2700	  537.00	  544.10	-1788.60	  378.94
     42.3700	  526.00	  571.44	-1826.94	  378.84
     42.4700	  598.00	  605.90	-1789.40	  378.74
     42.5700	  625.00	  640.11	-1796.61	  378.64
     42.6700	  585.00	  661.78	-1858.28	  378.54
     42.7700	  609.00	  659.71	-1832.21	  378.44
     42.8700	  565.00	  634.07	-1850.57	  378.35
     42.9700	  615.00	  597.79	-1764.29	  378.25
     43.0700	  549.00	  563.65	-1796.15	  378.16
     43.1700	  529.00	  538.03	-1790.53	  378.07
     43.2700	  525.00	  521.76	-1778.26	  377.99
     43.3700	  501.00	  512.71	-1793.21	  377.90
     43.4700	  535.00	  508.06	-1754.56	  377.82
     43.5700	  479.00	  505.66	-1808.16	  377.74
     43.6700	  503.00	  504.30	-1782.80	  377.66
     43.7700	  494.00	  503.61	-1791.11	  377.58
     43.8700	  525.00	  502.98	-1759.48	  377.50
     43.9700	  524.00	  502.51	-1760.01	  377.43
     44.0700	  502.00	  502.19	-1781.69	  377.35
     44.1700	  545.00	  501.91	-1738.41	  377.28
     44.2700	  512.00	  501.70	-1771.20	  377.21
     44.3700	  515.00	  501.54	-1768.04	  377.15
     44.4700	  488.00	  501.42	-1794.92	  377.08
     44.5700	  481.00	  501.34	-1801.84	  377.02
     44.6700	  500.00	  501.18	-1782.68	  376.96
     44.7700	  479.00	  501.16	-1803.66	  376.90
     44.8700	  458.00	  501.17	-1824.67	  376.84
     44.9700	  512.00	  501.21	-1770.71	  376.78
     45.0700	  500.00	  501.26	-1782.76	  376.73
     45.1700	  539.00	  501.35	-1743.85	  376.68
     45.2700	  480.00	  501.63	-1803.13	  376.63
     45.3700	  481.00	  501.76	-1802.26	  376.58
     45.4700	  522.00	  501.91	-1761.41	  376.53
     45.5700	  545.00	  502.09	-1738.59	  376.48
     45.6700	  487.00	  502.29	-1796.79	  376.44
     45.7700	  469.00	  502.52	-1815.02	  376.40
     45.8700	  551.00	  502.77	-1733.27	  376.36
     45.9700	  530.00	  503.06	-1754.56	  376.32
     46.0700	  498.00	  503.39	-1786.89	  376.28
     46.1700	  485.00	  503.76	-1800.26	  376.25
     46.2700	  494.00	  504.17	-1791.67	  376.22
     46.3700	  489.00	  504.63	-1797.13	  376.19
     46.4700	  490.00	  505.16	-1796.66	  376.16
     46.5700	  497.00	  505.76	-1790.26	  376.13
     46.6700	  511.00	  506.45	-1776.95	  376.10
     46.7700	  534.00	  507.26	-1754.76	  376.08
     46.8700	  508.00	  508.26	-1781.76	  376.06
     46.9700	  500.00	  509.57	-1791.07	  376.03
     47.0700	  500.00	  511.50	-1793.00	  376.02
     47.1700	  511.00	  514.65	-1785.15	  376.00
     47.2700	  478.00	  520.04	-1823.54	  375.98
     47.3700	  513.00	  528.95	-1797.45	  375.97
     47.4700	  550.00	  542.70	-1774.20	  375.96
     47.5700	  584.00	  561.53	-1759.03	  375.95
     47.6700	  585.00	  583.57	-1780.07	  375.94
     47.7700	  591.00	  604.18	-1794.68	  375.93
     47.8700	  600.00	  616.65	-1798.15	  375.92
     47.9700	  620.00	  615.74	-1777.24	  375.92
     48.0700	  617.00	  602.51	-1767.01	  375.92
     48.1700	  537.00	  583.66	-1828.16	  375.92
     48.2700	  556.00	  565.64	-1791.14	  375.92
     48.3700	  576.00	  552.25	-1757.75	  375.92
     48.4700	  511.00	  544.48	-1814.98	  375.93
     48.5700	  553.00	  541.66	-1770.16	  375.93
     48.6700	  498.00	  542.51	-1826.01	  375.94
     48.7700	  568.00	  545.93	-1759.43	  375.95
     48.8700	  521.00	  551.36	-1811.86	  375.96
     48.9700	  493.00	  558.80	-1847.30	  375.97
     49.0700	  579.00	  568.90	-1771.40	  375.99
     49.1700	  587.00	  583.31	-1777.81	  376.00
     49.2700	  605.00	  605.53	-1782.03	  376.02
     49.3700	  615.00	  642.20	-1808.70	  376.04
     49.4700	  722.00	  704.61	-1764.11	  376.06
     49.5700	  737.00	  809.25	-1853.75	  376.08
     49.6700	  879.00	  974.01	-1876.51	  376.10
     49.7700	 1097.00	 1213.10	-1897.60	  376.13
     49.8700	 1512.00	 1524.87	-1794.37	  376.16
     49.9700	 1869.00	 1880.33	-1792.83	  376.18
     50.0700	 2331.00	 2213.60	-1664.10	  376.21
     50.1700	 2510.00	 2426.82	-1698.32	  376.24
     50.2700	 2539.00	 2432.36	-1674.86	  376.28
     50.3700	 2253.00	 2225.48	-1753.98	  376.31
     50.4700	 1850.00	 1892.85	-1824.35	  376.35
     50.5700	 1487.00	 1537.60	-1832.10	  376.39
     50.6700	 1051.00	 1228.02	-1958.52	  376.42
     50.7700	  832.00	  993.90	-1943.40	  376.46
     50.8700	  713.00	  836.72	-1905.22	  376.51
     50.9700	  669.00	  741.10	-1853.60	  376.55
     51.0700	  660.00	  685.98	-1807.48	  376.59
     51.1700	  572.00	  652.33	-1861.83	  376.64
     51.2700	  669.00	  627.63	-1740.13	  376.69
     51.3700	  556.00	  606.61	-1832.11	  376.74
     51.4700	  596.00	  588.44	-1773.94	  376.79
     51.5700	  551.00	  573.58	-1804.08	  376.84
     51.6700	  569.00	  562.28	-1774.78	  376.89
     51.7700	  501.00	  554.27	-1834.77	  376.95
     51.8700	  514.00	  548.86	-1816.36	  377.00
     51.9700	  509.00	  545.28	-1817.78	  377.06
     52.0700	  521.00	  542.96	-1803.46	  377.12
     52.1700	  554.00	  541.59	-1769.09	  377.18
     52.2700	  512.00	  541.31	-1810.81	  377.24
     52.3700	  541.00	  541.82	-1782.32	  377.30
     52.4700	  558.00	  543.75	-1767.25	  377.37
     52.5700	  556.00	  548.09	-1773.59	  377.43
     52.6700	  587.00	  556.94	-1751.44	  377.50
     52.7700	  622.00	  574.20	-1733.70	  377.57
     52.8700	  633.00	  605.88	-1754.38	  377.64
     52.9700	  724.00	  659.46	-1716.96	  377.71
     53.0700	  814.00	  741.25	-1708.75	  377.78
     53.1700	  889.00	  852.05	-1744.55	  377.86
     53.2700	 1005.00	  982.22	-1758.72	  377.93
     53.3700	 1172.00	 1108.67	-1718.17	  378.01
     53.4700	 1181.00	 1196.75	-1797.25	  378.08
     53.5700	 1114.00	 1213.19	-1880.69	  378.16
     53.6700	 1099.00	 1150.25	-1832.75	  378.24
     53.7700	  972.00	 1033.81	-1843.31	  378.32
     53.8700	  837.00	  901.24	-1845.74	  378.41
     53.9700	  743.00	  781.10	-1819.60	  378.49
     54.0700	  694.00	  688.01	-1775.51	  378.57
     54.1700	  637.00	  624.59	-1769.09	  378.66
     54.2700	  641.00	  585.96	-1726.46	  378.75
     54.3700	  560.00	  564.54	-1786.04	  378.84
     54.4700	  573.00	  553.49	-1761.99	  378.92
     54.5700	  557.00	  548.05	-1772.55	  379.02
     54.6700	  573.00	  545.58	-1754.08	  379.11
     54.7700	  521.00	  544.70	-1805.20	  379.20
     54.8700	  581.00	  544.83	-1745.33	  379.29
     54.9700	  569.00	  545.74	-1758.24	  379.39
     55.0700	  529.00	  547.37	-1799.87	  379.49
     55.1700	  556.00	  549.72	-1775.22	  379.58
     55.2700	  532.00	  552.88	-1802.38	  379.68
     55.3700	  578.00	  556.93	-1760.43	  379.78
     55.4700	  574.00	  562.09	-1769.59	  379.88
     55.5700	  568.00	  568.75	-1782.25	  379.98
     55.6700	  604.00	  577.70	-1755.20	  380.09
     55.7700	  588.00	  590.54	-1784.04	  380.19
     55.8700	  589.00	  610.52	-1803.02	  380.29
     55.9700	  619.00	  643.75	-1806.25	  380.40
     56.0700	  670.00	  700.49	-1811.99	  380.51
     56.1700	  774.00	  795.73	-1803.23	  380.61
     56.2700	  843.00	  947.45	-1885.95	  380.72
     56.3700	 1088.00	 1171.49	-1864.99	  380.83
     56.4700	 1357.00	 1472.86	-1897.36	  380.94
     56.5700	 1719.00	 1835.88	-1898.38	  381.06
     56.6700	 2156.00	 2216.29	-1841.79	  381.17
     56.7700	 2563.00	 2538.91	-1757.41	  381.28
     56.8700	 2604.00	 2711.42	-1888.92	  381.40
     56.9700	 2646.00	 2670.00	-1805.50	  381.51
     57.0700	 2327.00	 2430.68	-1885.18	  381.63
     57.1700	 2021.00	 2076.27	-1836.77	  381.75
     57.2700	 1753.00	 1697.21	-1725.71	  381.86
     57.3700	 1328.00	 1357.33	-1810.83	  381.98
     57.4700	 1053.00	 1089.18	-1817.68	  382.10
     57.5700	  873.00	  899.35	-1807.85	  382.22
     57.6700	  749.00	  777.80	-1810.30	  382.35
     57.7700	  694.00	  707.74	-1795.24	  382.47
     57.8700	  687.00	  673.20	-1767.70	  382.59
     57.9700	  708.00	  662.99	-1736.49	  382.71
     58.0700	  697.00	  671.15	-1755.65	  382.84
     58.1700	  708.00	  695.73	-1769.23	  382.97
     58.2700	  773.00	  736.85	-1745.35	  383.09
     58.3700	  844.00	  794.76	-1732.26	  383.22
     58.4700	  953.00	  868.19	-1696.69	  383.35
     58.5700	 1120.00	  952.70	-1614.20	  383.48
     58.6700	 1241.00	 1040.14	-1580.64	  383.61
     58.7700	 1366.00	 1120.93	-1536.43	  383.74
     58.8700	 1487.00	 1188.38	-1482.88	  383.87
     58.9700	 1450.00	 1238.87	-1570.37	  384.00
     59.0700	 1628.00	 1267.56	-1421.06	  384.13
     59.1700	 1486.00	 1269.82	-1565.32	  384.26
     59.2700	 1484.00	 1249.01	-1546.51	  384.40
     59.3700	 1353.00	 1217.01	-1645.51	  384.53
     59.4700	 1340.00	 1186.04	-1627.54	  384.67
     59.5700	 1171.00	 1164.20	-1774.70	  384.80
     59.6700	 1079.00	 1158.42	-1860.92	  384.94
     59.7700	 1189.00	 1177.35	-1769.85	  385.08
     59.8700	 1301.00	 1227.21	-1707.71	  385.21
     59.9700	 1342.00	 1304.99	-1744.49	  385.35
     60.0700	 1432.00	 1395.16	-1744.66	  385.49
     60.1700	 1534.00	 1470.21	-1717.71	  385.63
     60.2700	 1502.00	 1497.47	-1776.97	  385.77
     60.3700	 1494.00	 1456.15	-1743.65	  385.91
     60.4700	 1423.00	 1352.13	-1710.63	  386.05
     60.5700	 1278.00	 1211.76	-1715.26	  386.19
     60.6700	 1093.00	 1063.70	-1752.20	  386.33
     60.7700	  916.00	  929.08	-1794.58	  386.48
     60.8700	  767.00	  819.87	-1834.37	  386.62
     60.9700	  721.00	  740.24	-1800.74	  386.76
     61.0700	  664.00	  689.11	-1806.61	  386.91
     61.1700	  626.00	  663.22	-1818.72	  387.05
     61.2700	  590.00	  659.91	-1851.41	  387.20
     61.3700	  656.00	  678.76	-1804.26	  387.34
     61.4700	  665.00	  721.90	-1838.40	  387.49
     61.5700	  709.00	  792.66	-1865.16	  387.63
     61.6700	  845.00	  893.14	-1829.64	  387.78
     61.7700	  884.00	 1021.21	-1918.71	  387.93
     61.8700	 1057.00	 1167.67	-1892.17	  388.08
     61.9700	 1181.00	 1314.53	-1915.03	  388.22
     62.0700	 1372.00	 1434.94	-1844.44	  388.37
     62.1700	 1474.00	 1498.20	-1805.70	  388.52
     62.2700	 1388.00	 1483.78	-1877.28	  388.67
     62.3700	 1310.00	 1395.97	-1867.47	  388.82
     62.4700	 1190.00	 1260.59	-1852.09	  388.97
     62.5700	 1056.00	 1108.26	-1833.76	  389.12
     62.6700	  946.00	  963.00	-1798.50	  389.27
     62.7700	  831.00	  839.52	-1790.02	  389.42
     62.8700	  666.00	  743.96	-1859.46	  389.57
     62.9700	  638.00	  675.80	-1819.30	  389.72
     63.0700	  601.00	  630.58	-1811.08	  389.87
     63.1700	  607.00	  602.41	-1776.91	  390.02
     63.2700	  600.00	  585.82	-1767.32	  390.17
     63.3700	  597.00	  576.76	-1761.26	  390.32
     63.4700	  573.00	  572.80	-1781.30	  390.48
     63.5700	  597.00	  573.00	-1757.50	  390.63
     63.6700	  609.00	  577.68	-1750.18	  390.78
     63.7700	  580.00	  588.15	-1789.65	  390.93
     63.8700	  652.00	  606.39	-1735.89	  391.09
     63.9700	  681.00	  634.54	-1735.04	  391.24
     64.0700	  736.00	  674.09	-1719.59	  391.39
     64.1700	  755.00	  724.92	-1751.42	  391.55
     64.2700	  813.00	  784.42	-1752.92	  391.70
     64.3700	  947.00	  846.79	-1681.29	  391.85
     64.4700	  998.00	  903.08	-1686.58	  392.00
     64.5700	  936.00	  942.06	-1787.56	  392.16
     64.6700	 1025.00	  956.24	-1712.74	  392.31
     64.7700	 1001.00	  942.98	-1723.48	  392.47
     64.8700	  993.00	  907.00	-1695.50	  392.62
     64.9700	  888.00	  856.91	-1750.41	  392.77
     65.0700	  848.00	  802.12	-1735.62	  392.93
     65.1700	  813.00	  750.23	-1718.73	  393.08
     65.2700	  686.00	  705.55	-1801.05	  393.23
     65.3700	  708.00	  669.20	-1742.70	  393.39
     65.4700	  626.00	  640.41	-1795.91	  393.54
     65.5700	  583.00	  617.82	-1816.32	  393.69
     65.6700	  583.00	  600.30	-1798.80	  393.85
     65.7700	  581.00	  586.99	-1787.49	  394.00
     65.8700	  528.00	  577.21	-1830.71	  394.15
     65.9700	  540.00	  570.43	-1811.93	  394.31
     66.0700	  553.00	  566.19	-1794.69	  394.46
     66.1700	  590.00	  564.07	-1755.57	  394.61
     66.2700	  551.00	  563.70	-1794.20	  394.77
     66.3700	  572.00	  564.79	-1774.29	  394.92
     66.4700	  584.00	  567.17	-1764.67	  395.07
     66.5700	  551.00	  570.89	-1801.39	  395.22
     66.6700	  575.00	  576.42	-1782.92	  395.38
     66.7700	  578.00	  584.39	-1787.89	  395.53
     66.8700	  594.00	  596.56	-1784.06	  395.68
     66.9700	  576.00	  615.83	-1821.33	  395.83
     67.0700	  612.00	  646.79	-1816.29	  395.98
     67.1700	  643.00	  696.08	-1834.58	  396.14
     67.2700	  758.00	  772.11	-1795.61	  396.29
     67.3700	  895.00	  884.06	-1770.56	  396.44
     67.4700	 1100.00	 1039.56	-1721.06	  396.59
     67.5700	 1251.00	 1241.67	-1772.17	  396.74
     67.6700	 1487.00	 1484.83	-1779.33	  396.89
     67.7700	 1750.00	 1753.15	-1784.65	  397.04
     67.8700	 2010.00	 2017.98	-1789.48	  397.19
     67.9700	 2323.00	 2239.21	-1697.71	  397.34
     68.0700	 2425.00	 2371.74	-1728.24	  397.49
     68.1700	 2456.00	 2381.70	-1707.20	  397.63
     68.2700	 2222.00	 2266.34	-1825.84	  397.78
     68.3700	 2010.00	 2055.82	-1827.32	  397.93
     68.4700	 1805.00	 1795.07	-1771.57	  398.08
     68.5700	 1603.00	 1525.59	-1704.09	  398.22
     68.6700	 1196.00	 1277.66	-1863.16	  398.37
     68.7700	 1025.00	 1069.40	-1825.90	  398.52
     68.8700	  836.00	  907.53	-1853.03	  398.66
     68.9700	  788.00	  790.02	-1783.52	  398.81
     69.0700	  758.00	  709.73	-1733.23	  398.95
     69.1700	  663.00	  657.57	-1776.07	  399.10
     69.2700	  616.00	  624.89	-1790.39	  399.24
     69.3700	  619.00	  604.76	-1767.26	  399.39
     69.4700	  623.00	  592.28	-1750.78	  399.53
     69.5700	  567.00	  584.32	-1798.82	  399.67
     69.6700	  622.00	  579.04	-1738.54	  399.81
     69.7700	  581.00	  575.42	-1775.92	  399.95
     69.8700	  555.00	  572.93	-1799.43	  400.10
     69.9700	  566.00	  571.31	-1786.81	  400.24
     70.0700	  581.00	  570.42	-1770.92	  400.38
     70.1700	  627.00	  570.21	-1724.71	  400.52
     70.2700	  547.00	  570.73	-1805.23	  400.65
     70.3700	  605.00	  572.03	-1748.53	  400.79
     70.4700	  534.00	  574.37	-1821.87	  400.93
     70.5700	  568.00	  578.21	-1791.71	  401.07
     70.6700	  565.00	  584.40	-1800.90	  401.20
     70.7700	  575.00	  594.42	-1800.92	  401.34
     70.8700	  585.00	  610.68	-1807.18	  401.47
     70.9700	  601.00	  636.70	-1817.20	  401.61
     71.0700	  635.00	  677.30	-1823.80	  401.74
     71.1700	  722.00	  738.23	-1797.73	  401.88
     71.2700	  784.00	  825.34	-1822.84	  402.01
     71.3700	  938.00	  943.17	-1786.67	  402.14
     71.4700	 1069.00	 1092.95	-1805.45	  402.27
     71.5700	 1260.00	 1271.51	-1793.01	  402.40
     71.6700	 1411.00	 1466.42	-1836.92	  402.53
     71.7700	 1608.00	 1660.28	-1833.78	  402.66
     71.8700	 1830.00	 1828.10	-1779.60	  402.79
     71.9700	 1914.00	 1941.10	-1808.60	  402.92
     72.0700	 1993.00	 1975.10	-1763.60	  403.04
     72.1700	 1794.00	 1921.99	-1909.49	  403.17
     72.2700	 1901.00	 1794.71	-1675.21	  403.30
     72.3700	 1618.00	 1619.15	-1782.65	  403.42
     72.4700	 1464.00	 1424.53	-1742.03	  403.54
     72.5700	 1336.00	 1233.76	-1679.26	  403.67
     72.6700	 1195.00	 1063.04	-1649.54	  403.79
     72.7700	 1058.00	  921.20	-1644.70	  403.91
     72.8700	  929.00	  810.58	-1663.08	  404.03
     72.9700	  907.00	  729.01	-1603.51	  404.15
     73.0700	  786.00	  671.60	-1667.10	  404.27
     73.1700	  814.00	  632.68	-1600.18	  404.39
     73.2700	  678.00	  606.91	-1710.41	  404.50
     73.3700	  641.00	  589.97	-1730.47	  404.62
     73.4700	  628.00	  578.75	-1732.25	  404.73
     73.5700	  628.00	  571.19	-1724.69	  404.85
     73.6700	  628.00	  566.00	-1719.50	  404.96
     73.7700	  570.00	  562.43	-1773.93	  405.07
     73.8700	  598.00	  560.04	-1743.54	  405.19
     73.9700	  606.00	  558.57	-1734.07	  405.30
     74.0700	  625.00	  557.83	-1714.33	  405.41
     74.1700	  575.00	  557.67	-1764.17	  405.51
     74.2700	  603.00	  557.89	-1736.39	  405.62
     74.3700	  628.00	  558.29	-1711.79	  405.73
     74.4700	  615.00	  558.63	-1725.13	  405.83
     74.5700	  660.00	  558.65	-1680.15	  405.94
     74.6700	  673.00	  558.17	-1666.67	  406.04
     74.7700	  651.00	  557.13	-1687.63	  406.15
     74.8700	  674.00	  555.65	-1663.15	  406.25
     74.9700	  622.00	  553.98	-1713.48	  406.35
     75.0700	  617.00	  552.40	-1716.90	  406.45
     75.1700	  577.00	  551.20	-1755.70	  406.55
     75.2700	  551.00	  550.63	-1781.13	  406.64
     75.3700	  593.00	  551.21	-1739.71	  406.74
     75.4700	  561.00	  553.28	-1773.78	  406.84
     75.5700	  580.00	  557.31	-1758.81	  406.93
     75.6700	  624.00	  563.70	-1721.20	  407.02
     75.7700	  569.00	  573.12	-1785.62	  407.11
     75.8700	  570.00	  585.78	-1797.28	  407.21
     75.9700	  600.00	  601.67	-1783.17	  407.30
     76.0700	  634.00	  620.33	-1767.83	  407.38
     76.1700	  625.00	  640.70	-1797.20	  407.47
     76.2700	  659.00	  661.12	-1783.62	  407.56
     76.3700	  681.00	  679.35	-1779.85	  407.64
     76.4700	  694.00	  692.79	-1780.29	  407.73
     76.5700	  683.00	  699.07	-1797.57	  407.81
     76.6700	  701.00	  696.87	-1777.37	  407.89
     76.7700	  614.00	  686.63	-1854.13	  407.97
     76.8700	  690.00	  670.31	-1761.81	  408.05
     76.9700	  598.00	  650.30	-1833.80	  408.13
     77.0700	  635.00	  629.41	-1775.91	  408.21
     77.1700	  597.00	  609.43	-1793.93	  408.28
     77.2700	  583.00	  591.71	-1790.21	  408.36
     77.3700	  565.00	  576.96	-1793.46	  408.43
     77.4700	  582.00	  565.39	-1764.89	  408.50
     77.5700	  535.00	  556.78	-1803.28	  408.57
     77.6700	  515.00	  550.66	-1817.16	  408.64
     77.7700	  558.00	  546.50	-1770.00	  408.71
     77.8700	  540.00	  543.77	-1785.27	  408.78
     77.9700	  542.00	  542.02	-1781.52	  408.84
     78.0700	  554.00	  540.91	-1768.41	  408.91
     78.1700	  518.00	  540.22	-1803.72	  408.97
     78.2700	  443.00	  539.80	-1878.30	  409.03
     78.3700	  546.00	  539.54	-1775.04	  409.09
     78.4700	  548.00	  539.41	-1772.91	  409.15
     78.5700	  510.00	  539.37	-1810.87	  409.21
     78.6700	  521.00	  539.43	-1799.93	  409.26
     78.7700	  531.00	  539.59	-1790.09	  409.32
     78.8700	  518.00	  539.86	-1803.36	  409.37
     78.9700	  501.00	  540.29	-1820.79	  409.42
     79.0700	  506.00	  540.92	-1816.42	  409.48
     79.1700	  533.00	  541.78	-1790.28	  409.53
     79.2700	  542.00	  542.75	-1782.25	  409.57
     79.3700	  514.00	  544.26	-1811.76	  409.62
     79.4700	  510.00	  546.18	-1817.68	  409.67
     79.5700	  562.00	  548.58	-1768.08	  409.71
     79.6700	  536.00	  551.54	-1797.04	  409.75
     79.7700	  541.00	  555.16	-1795.66	  409.79
     79.8700	  506.00	  559.57	-1835.07	  409.83
     79.9700	  542.00	  564.95	-1804.45	  409.87
     80.0700	  578.00	  571.54	-1775.04	  409.91
     80.1700	  558.00	  579.64	-1803.14	  409.94
     80.2700	  559.00	  589.62	-1812.12	  409.98
     80.3700	  603.00	  601.78	-1780.28	  410.01
     80.4700	  580.00	  616.31	-1817.81	  410.04
     80.5700	  591.00	  633.14	-1823.64	  410.07
     80.6700	  636.00	  651.83	-1797.33	  410.10
     80.7700	  646.00	  671.57	-1807.07	  410.13
     80.8700	  664.00	  691.17	-1808.67	  410.15
     80.9700	  702.00	  709.19	-1788.69	  410.18
     81.0700	  705.00	  724.23	-1800.73	  410.20
     81.1700	  695.00	  735.07	-1821.57	  410.22
     81.2700	  762.00	  740.82	-1760.32	  410.24
     81.3700	  765.00	  741.01	-1757.51	  410.26
     81.4700	  754.00	  735.69	-1763.19	  410.27
     81.5700	  761.00	  725.44	-1745.94	  410.29
     81.6700	  737.00	  711.14	-1755.64	  410.30
     81.7700	  734.00	  693.86	-1741.36	  410.31
     81.8700	  737.00	  674.76	-1719.26	  410.32
     81.9700	  725.00	  655.08	-1711.58	  410.33
     82.0700	  642.00	  635.91	-1775.41	  410.34
     82.1700	  665.00	  618.26	-1734.76	  410.35
     82.2700	  657.00	  602.63	-1727.13	  410.35
     82.3700	  645.00	  589.33	-1725.83	  410.35
     82.4700	  601.00	  578.41	-1758.91	  410.35
     82.5700	  589.00	  569.80	-1762.30	  410.35
     82.6700	  569.00	  563.38	-1775.88	  410.35
     82.7700	  518.00	  558.93	-1822.43	  410.35
     82.8700	  547.00	  556.27	-1790.77	  410.34
     82.9700	  539.00	  555.23	-1797.73	  410.34
     83.0700	  531.00	  555.66	-1806.16	  410.33
     83.1700	  517.00	  557.43	-1821.93	  410.32
     83.2700	  608.00	  560.42	-1733.92	  410.31
     83.3700	  543.00	  564.45	-1802.95	  410.29
     83.4700	  553.00	  569.28	-1797.78	  410.28
     83.5700	  519.00	  574.59	-1837.09	  410.26
     83.6700	  571.00	  579.96	-1790.46	  410.24
     83.7700	  555.00	  584.86	-1811.36	  410.22
     83.8700	  542.00	  588.72	-1828.22	  410.20
     83.9700	  590.00	  591.00	-1782.50	  410.18
     84.0700	  571.00	  591.30	-1801.80	  410.16
     84.1700	  569.00	  589.54	-1802.04	  410.13
     84.2700	  616.00	  585.95	-1751.45	  410.10
     84.3700	  544.00	  581.03	-1818.53	  410.07
     84.4700	  548.00	  575.33	-1808.83	  410.04
     84.5700	  529.00	  569.37	-1821.87	  410.01
     84.6700	  569.00	  563.57	-1776.07	  409.98
     84.7700	  493.00	  558.26	-1846.76	  409.94
     84.8700	  541.00	  553.64	-1794.14	  409.90
     84.9700	  509.00	  549.80	-1822.30	  409.86
     85.0700	  534.00	  546.77	-1794.27	  409.82
     85.1700	  530.00	  544.49	-1795.99	  409.78
     85.2700	  550.00	  542.87	-1774.37	  409.74
     85.3700	  527.00	  541.82	-1796.32	  409.69
     85.4700	  459.00	  541.23	-1863.73	  409.64
     85.5700	  565.00	  541.03	-1757.53	  409.60
     85.6700	  531.00	  541.17	-1791.67	  409.55
     85.7700	  501.00	  541.61	-1822.11	  409.49
     85.8700	  539.00	  542.37	-1784.87	  409.44
     85.9700	  523.00	  543.48	-1801.98	  409.38
     86.0700	  483.00	  545.01	-1843.51	  409.33
     86.1700	  542.00	  547.08	-1786.58	  409.27
     86.2700	  546.00	  549.80	-1785.30	  409.21
     86.3700	  540.00	  553.33	-1794.83	  409.15
     86.4700	  551.00	  557.82	-1788.32	  409.08
     86.5700	  539.00	  563.37	-1805.87	  409.02
     86.6700	  590.00	  570.06	-1761.56	  408.95
     86.7700	  579.00	  577.81	-1780.31	  408.88
     86.8700	  589.00	  586.12	-1778.62	  408.81
     86.9700	  544.00	  595.24	-1832.74	  408.74
     87.0700	  674.00	  604.33	-1711.83	  408.67
     87.1700	  610.00	  612.70	-1784.20	  408.59
     87.2700	  687.00	  619.57	-1714.07	  408.51
     87.3700	  648.00	  624.19	-1757.69	  408.43
     87.4700	  665.00	  625.93	-1742.43	  408.35
     87.5700	  637.00	  624.58	-1769.08	  408.27
     87.6700	  654.00	  620.35	-1747.85	  408.19
     87.7700	  679.00	  613.87	-1716.37	  408.10
     87.8700	  602.00	  605.97	-1785.47	  408.02
     87.9700	  607.00	  597.51	-1772.01	  407.93
     88.0700	  594.00	  589.29	-1776.79	  407.84
     88.1700	  613.00	  582.01	-1750.51	  407.75
     88.2700	  604.00	  576.16	-1753.66	  407.65
     88.3700	  610.00	  572.11	-1743.61	  407.56
     88.4700	  563.00	  570.03	-1788.53	  407.46
     88.5700	  562.00	  569.93	-1789.43	  407.36
     88.6700	  593.00	  571.65	-1760.15	  407.26
     88.7700	  586.00	  574.93	-1770.43	  407.16
     88.8700	  614.00	  579.38	-1746.88	  407.06
     88.9700	  581.00	  584.51	-1785.01	  406.95
     89.0700	  570.00	  589.78	-1801.28	  406.85
     89.1700	  674.00	  594.59	-1702.09	  406.74
     89.2700	  585.00	  598.33	-1794.83	  406.63
     89.3700	  580.00	  600.48	-1801.98	  406.52
     89.4700	  588.00	  600.69	-1794.19	  406.40
     89.5700	  585.00	  598.87	-1795.37	  406.29
     89.6700	  541.00	  595.23	-1835.73	  406.17
     89.7700	  588.00	  590.19	-1783.69	  406.05
     89.8700	  607.00	  584.24	-1758.74	  405.93
     89.9700	  544.00	  577.88	-1815.38	  405.81
     90.0700	  565.00	  571.52	-1788.02	  405.69
     90.1700	  592.00	  565.52	-1755.02	  405.56
     90.2700	  532.00	  560.12	-1809.62	  405.44
     90.3700	  501.00	  555.45	-1835.95	  405.31
     90.4700	  501.00	  551.60	-1832.10	  405.18
     90.5700	  504.00	  548.55	-1826.05	  405.05
     90.6700	  517.00	  546.25	-1810.75	  404.92
     90.7700	  506.00	  544.61	-1820.11	  404.78
     90.8700	  566.00	  543.54	-1759.04	  404.65
     90.9700	  575.00	  542.96	-1749.46	  404.51
     91.0700	  523.00	  542.79	-1801.29	  404.37
     91.1700	  505.00	  543.01	-1819.51	  404.23
     91.2700	  516.00	  543.62	-1809.12	  404.09
     91.3700	  551.00	  544.65	-1775.15	  403.94
     91.4700	  527.00	  546.19	-1800.69	  403.80
     91.5700	  558.00	  548.36	-1771.86	  403.65
     91.6700	  544.00	  551.33	-1788.83	  403.50
     91.7700	  536.00	  555.26	-1800.76	  403.35
     91.8700	  531.00	  560.39	-1810.89	  403.20
     91.9700	  541.00	  566.68	-1807.18	  403.05
     92.0700	  541.00	  574.77	-1815.27	  402.89
     92.1700	  618.00	  584.56	-1748.06	  402.74
     92.2700	  615.00	  596.09	-1762.59	  402.58
     92.3700	  592.00	  609.31	-1798.81	  402.42
     92.4700	  649.00	  624.04	-1756.54	  402.26
     92.5700	  602.00	  639.96	-1819.46	  402.10
     92.6700	  652.00	  656.61	-1786.11	  401.93
     92.7700	  712.00	  673.41	-1742.91	  401.77
     92.8700	  702.00	  689.68	-1769.18	  401.60
     92.9700	  789.00	  704.72	-1697.22	  401.43
     93.0700	  782.00	  717.94	-1717.44	  401.26
     93.1700	  735.00	  729.05	-1775.55	  401.09
     93.2700	  812.00	  738.14	-1707.64	  400.92
     93.3700	  793.00	  745.66	-1734.16	  400.74
     93.4700	  818.00	  752.28	-1715.78	  400.57
     93.5700	  855.00	  758.74	-1685.24	  400.39
     93.6700	  812.00	  765.69	-1735.19	  400.21
     93.7700	  827.00	  773.73	-1728.23	  400.03
     93.8700	  894.00	  783.35	-1670.85	  399.85
     93.9700	  850.00	  795.00	-1726.50	  399.67
     94.0700	  862.00	  808.96	-1728.46	  399.48
     94.1700	  880.00	  825.32	-1726.82	  399.30
     94.2700	  891.00	  843.77	-1734.27	  399.11
     94.3700	  907.00	  863.56	-1738.06	  398.92
     94.4700	  913.00	  883.49	-1751.99	  398.73
     94.5700	  936.00	  901.95	-1747.45	  398.54
     94.6700	  945.00	  917.02	-1753.52	  398.35
     94.7700	  920.00	  926.74	-1788.24	  398.16
     94.8700	  970.00	  929.44	-1740.94	  397.96
     94.9700	  892.00	  924.16	-1813.66	  397.77
     95.0700	  892.00	  910.94	-1800.44	  397.57
     95.1700	  861.00	  890.80	-1811.30	  397.37
     95.2700	  861.00	  865.45	-1785.95	  397.17
     95.3700	  763.00	  836.96	-1855.46	  396.97
     95.4700	  751.00	  807.43	-1837.93	  396.76
     95.5700	  760.00	  778.90	-1800.41	  396.56
     95.6700	  707.00	  753.23	-1827.73	  396.35
     95.7700	  710.00	  732.08	-1803.58	  396.15
     95.8700	  715.00	  716.93	-1783.43	  395.94
     95.9700	  704.00	  709.11	-1786.61	  395.73
     96.0700	  682.00	  709.71	-1809.21	  395.52
     96.1700	  702.00	  719.69	-1799.19	  395.31
     96.2700	  729.00	  739.77	-1792.27	  395.09
     96.3700	  757.00	  770.40	-1794.90	  394.88
     96.4700	  795.00	  811.71	-1798.21	  394.67
     96.5700	  803.00	  863.37	-1841.87	  394.45
     96.6700	  884.00	  924.53	-1822.03	  394.23
     96.7700	  965.00	  993.68	-1810.18	  394.01
     96.8700	 1010.00	 1068.65	-1840.15	  393.79
     96.9700	 1112.00	 1146.51	-1816.01	  393.57
     97.0700	 1223.00	 1223.66	-1782.16	  393.35
     97.1700	 1305.00	 1295.93	-1772.43	  393.13
     97.2700	 1407.00	 1358.77	-1733.27	  392.90
     97.3700	 1428.00	 1407.61	-1761.11	  392.68
     97.4700	 1492.00	 1438.49	-1727.99	  392.45
     97.5700	 1402.00	 1448.82	-1828.32	  392.22
     97.6700	 1443.00	 1437.99	-1776.49	  391.99
     97.7700	 1369.00	 1407.43	-1819.93	  391.76
     97.8700	 1347.00	 1360.29	-1794.79	  391.53
     97.9700	 1228.00	 1300.68	-1854.18	  391.30
     98.0700	 1232.00	 1233.06	-1782.56	  391.07
     98.1700	 1139.00	 1161.80	-1804.30	  390.84
     98.2700	 1086.00	 1090.85	-1786.35	  390.60
     98.3700	 1027.00	 1023.70	-1778.20	  390.37
     98.4700	  965.00	  963.22	-1779.72	  390.13
     98.5700	  892.00	  911.75	-1801.25	  389.89
     98.6700	  835.00	  871.07	-1817.57	  389.65
     98.7700	  840.00	  842.49	-1783.99	  389.42
     98.8700	  829.00	  826.98	-1779.48	  389.18
     98.9700	  815.00	  825.19	-1791.69	  388.93
     99.0700	  797.00	  837.53	-1822.03	  388.69
     99.1700	  860.00	  864.21	-1785.71	  388.45
     99.2700	  856.00	  905.24	-1830.74	  388.21
     99.3700	  931.00	  960.43	-1810.93	  387.96
     99.4700	 1025.00	 1029.26	-1785.76	  387.72
     99.5700	 1016.00	 1110.86	-1876.36	  387.47
     99.6700	 1163.00	 1203.84	-1822.34	  387.23
     99.7700	 1314.00	 1306.26	-1773.76	  386.98
     99.8700	 1377.00	 1415.48	-1819.98	  386.73
     99.9700	 1537.00	 1528.14	-1772.64	  386.48
    100.0700	 1601.00	 1640.21	-1820.71	  386.23
    100.1700	 1700.00	 1747.19	-1828.69	  385.98
    100.2700	 1890.00	 1844.51	-1736.01	  385.73
    100.3700	 1996.00	 1928.01	-1713.51	  385.48
    100.4700	 2067.00	 1994.39	-1708.89	  385.23
    100.5700	 2063.00	 2041.32	-1759.82	  384.98
    100.6700	 2148.00	 2067.36	-1700.86	  384.72
    100.7700	 2031.00	 2071.71	-1822.21	  384.47
    100.8700	 2088.00	 2054.12	-1747.62	  384.22
    100.9700	 1963.00	 2015.22	-1833.72	  383.96
    101.0700	 1953.00	 1956.84	-1785.34	  383.71
    101.1700	 1976.00	 1882.22	-1687.72	  383.45
    101.2700	 1865.00	 1795.79	-1712.29	  383.19
    101.3700	 1745.00	 1702.62	-1739.12	  382.94
    101.4700	 1640.00	 1607.85	-1749.35	  382.68
    101.5700	 1571.00	 1516.10	-1726.60	  382.42
    101.6700	 1453.00	 1431.11	-1759.61	  382.17
    101.7700	 1367.00	 1355.60	-1770.10	  381.91
    101.8700	 1297.00	 1291.22	-1775.72	  381.65
    101.9700	 1229.00	 1238.49	-1790.99	  381.39
    102.0700	 1158.00	 1196.97	-1820.47	  381.13
    102.1700	 1182.00	 1165.28	-1764.78	  380.87
    102.2700	 1144.00	 1141.30	-1778.80	  380.61
    102.3700	 1166.00	 1122.43	-1737.93	  380.35
    102.4700	 1136.00	 1105.83	-1751.33	  380.09
    102.5700	 1078.00	 1088.79	-1792.29	  379.83
    102.6700	 1119.00	 1069.05	-1731.55	  379.57
    102.7700	 1075.00	 1045.12	-1751.62	  379.31
    102.8700	 1057.00	 1016.43	-1740.93	  379.04
    102.9700	 1016.00	  983.18	-1748.68	  378.78
    103.0700	  872.00	  946.20	-1855.70	  378.52
    103.1700	  869.00	  906.64	-1819.14	  378.26
    103.2700	  843.00	  865.80	-1804.30	  378.00
    103.3700	  788.00	  824.98	-1818.48	  377.74
    103.4700	  804.00	  785.35	-1762.85	  377.47
    103.5700	  763.00	  747.90	-1766.40	  377.21
    103.6700	  696.00	  713.42	-1798.92	  376.95
    103.7700	  643.00	  682.45	-1820.95	  376.69
    103.8700	  652.00	  655.31	-1784.81	  376.43
    103.9700	  602.00	  632.10	-1811.60	  376.17
    104.0700	  604.00	  612.72	-1790.22	  375.90
    104.1700	  569.00	  596.95	-1809.45	  375.64
    104.2700	  553.00	  584.47	-1812.97	  375.38
    104.3700	  564.00	  574.89	-1792.39	  375.12
    104.4700	  578.00	  567.80	-1771.30	  374.86
    104.5700	  595.00	  562.82	-1749.32	  374.60
    104.6700	  552.00	  559.56	-1789.06	  374.34
    104.7700	  531.00	  557.69	-1808.19	  374.08
    104.8700	  557.00	  556.93	-1781.43	  373.82
    104.9700	  504.00	  557.03	-1834.53	  373.56
    105.0700	  540.00	  557.79	-1799.29	  373.30
    105.1700	  564.00	  559.08	-1776.58	  373.04
    105.2700	  532.00	  560.76	-1810.26	  372.78
    105.3700	  515.00	  562.79	-1829.29	  372.52
    105.4700	  558.00	  565.14	-1788.64	  372.26
    105.5700	  599.00	  567.82	-1750.32	  372.01
    105.6700	  549.00	  570.90	-1803.40	  371.75
    105.7700	  565.00	  574.46	-1790.96	  371.49
    105.8700	  550.00	  578.64	-1810.14	  371.24
    105.9700	  593.00	  583.54	-1772.04	  370.98
    106.0700	  583.00	  589.26	-1787.76	  370.73
    106.1700	  552.00	  595.84	-1825.34	  370.47
    106.2700	  595.00	  603.28	-1789.78	  370.22
    106.3700	  586.00	  611.51	-1807.01	  369.97
    106.4700	  599.00	  620.39	-1802.89	  369.72
    106.5700	  627.00	  629.73	-1784.23	  369.46
    106.6700	  637.00	  639.23	-1783.73	  369.21
    106.7700	  647.00	  648.59	-1783.09	  368.96
    106.8700	  630.00	  657.42	-1808.92	  368.71
    106.9700	  634.00	  665.37	-1812.87	  368.47
    107.0700	  624.00	  672.05	-1829.55	  368.22
    107.1700	  636.00	  677.19	-1822.69	  367.97
    107.2700	  695.00	  680.61	-1767.11	  367.73
    107.3700	  658.00	  682.30	-1805.80	  367.48
    107.4700	  690.00	  682.44	-1773.94	  367.24
    107.5700	  667.00	  681.32	-1795.82	  367.00
    107.6700	  688.00	  679.34	-1772.84	  366.76
    107.7700	  644.00	  676.94	-1814.44	  366.52
    107.8700	  652.00	  674.53	-1804.03	  366.28
    107.9700	  748.00	  672.45	-1705.95	  366.04
    108.0700	  647.00	  670.94	-1805.44	  365.80
    108.1700	  662.00	  670.16	-1789.66	  365.56
    108.2700	  693.00	  670.14	-1758.64	  365.33
    108.3700	  685.00	  670.79	-1767.29	  365.10
    108.4700	  684.00	  671.91	-1769.41	  364.86
    108.5700	  720.00	  673.23	-1734.73	  364.63
    108.6700	  687.00	  674.38	-1768.88	  364.40
    108.7700	  681.00	  674.97	-1775.47	  364.18
    108.8700	  673.00	  674.60	-1783.10	  363.95
    108.9700	  708.00	  672.97	-1746.47	  363.72
    109.0700	  672.00	  669.83	-1779.33	  363.50
    109.1700	  648.00	  665.11	-1798.61	  363.28
    109.2700	  667.00	  658.85	-1773.35	  363.06
    109.3700	  668.00	  651.24	-1764.74	  362.84
    109.4700	  622.00	  642.55	-1802.05	  362.62
    109.5700	  605.00	  633.08	-1809.58	  362.41
    109.6700	  692.00	  623.17	-1712.67	  362.19
    109.7700	  569.00	  613.14	-1825.64	  361.98
    109.8700	  630.00	  603.27	-1754.77	  361.77
    109.9700	  628.00	  593.84	-1747.34	  361.56
    110.0700	  535.00	  585.05	-1831.55	  361.35
    110.1700	  626.00	  577.06	-1732.56	  361.15
    110.2700	  574.00	  569.98	-1777.48	  360.94
    110.3700	  584.00	  563.87	-1761.37	  360.74
    110.4700	  532.00	  558.75	-1808.25	  360.54
    110.5700	  537.00	  554.60	-1799.10	  360.34
    110.6700	  573.00	  551.38	-1759.88	  360.15
    110.7700	  546.00	  549.00	-1784.50	  359.95
    110.8700	  541.00	  547.38	-1787.88	  359.76
    110.9700	  537.00	  546.45	-1790.95	  359.57
    111.0700	  512.00	  546.10	-1815.60	  359.39
    111.1700	  556.00	  546.27	-1771.77	  359.20
    111.2700	  596.00	  546.86	-1732.36	  359.02
    111.3700	  525.00	  547.83	-1804.33	  358.84
    111.4700	  566.00	  549.12	-1764.62	  358.66
    111.5700	  534.00	  550.68	-1798.18	  358.48
    111.6700	  522.00	  552.49	-1811.99	  358.31
    111.7700	  499.00	  554.52	-1837.02	  358.14
    111.8700	  550.00	  556.77	-1788.27	  357.97
    111.9700	  541.00	  559.22	-1799.72	  357.80
    112.0700	  569.00	  561.88	-1774.38	  357.64
    112.1700	  510.00	  564.76	-1836.26	  357.48
    112.2700	  594.00	  567.89	-1755.39	  357.32
    112.3700	  575.00	  571.30	-1777.80	  357.16
    112.4700	  561.00	  575.01	-1795.51	  357.01
    112.5700	  605.00	  579.09	-1755.59	  356.86
    112.6700	  619.00	  583.59	-1746.09	  356.71
    112.7700	  625.00	  588.60	-1745.10	  356.57
    112.8700	  647.00	  594.23	-1728.73	  356.42
    112.9700	  692.00	  600.64	-1690.14	  356.29
    113.0700	  697.00	  608.00	-1692.50	  356.15
    113.1700	  712.00	  616.55	-1686.05	  356.02
    113.2700	  709.00	  626.63	-1699.13	  355.89
    113.3700	  662.00	  638.64	-1758.14	  355.76
    113.4700	  769.00	  653.08	-1665.58	  355.63
    113.5700	  874.00	  670.59	-1578.09	  355.51
    113.6700	  822.00	  691.98	-1651.48	  355.39
    113.7700	  903.00	  718.19	-1596.69	  355.28
    113.8700	  895.00	  750.40	-1636.90	  355.17
    113.9700	 1061.00	  789.98	-1510.48	  355.06
    114.0700	 1026.00	  838.51	-1594.01	  354.96
    114.1700	 1089.00	  897.79	-1590.29	  354.85
    114.2700	 1090.00	  969.83	-1661.33	  354.76
    114.3700	 1219.00	 1056.84	-1619.34	  354.66
    114.4700	 1392.00	 1161.10	-1550.60	  354.57
    114.5700	 1464.00	 1284.99	-1602.49	  354.48
    114.6700	 1614.00	 1430.78	-1598.28	  354.40
    114.7700	 1704.00	 1600.66	-1678.16	  354.32
    114.8700	 1967.00	 1796.52	-1611.02	  354.24
    114.9700	 2133.00	 2019.75	-1668.25	  354.17
    115.0700	 2333.00	 2271.18	-1719.68	  354.10
    115.1700	 2572.00	 2550.82	-1760.32	  354.03
    115.2700	 2854.00	 2857.85	-1785.35	  353.97
    115.3700	 3115.00	 3190.44	-1856.94	  353.91
    115.4700	 3458.00	 3545.51	-1869.01	  353.86
    115.5700	 3839.00	 3918.82	-1861.32	  353.81
    115.6700	 3978.00	 4304.83	-2108.33	  353.77
    115.7700	 4518.00	 4696.89	-1960.39	  353.72
    115.8700	 4715.00	 5087.15	-2153.65	  353.69
    115.9700	 5217.00	 5466.54	-2031.04	  353.65
    116.0700	 5536.00	 5825.14	-2070.64	  353.62
    116.1700	 5931.00	 6152.29	-2002.79	  353.60
    116.2700	 6295.00	 6437.20	-1923.70	  353.58
    116.3700	 6608.00	 6669.35	-1842.85	  353.56
    116.4700	 6888.00	 6839.27	-1732.77	  353.55
    116.5700	 6876.00	 6939.58	-1845.08	  353.54
    116.6700	 7126.00	 6965.77	-1621.27	  353.54
    116.7700	 6973.00	 6916.81	-1725.31	  353.54
    116.8700	 6914.00	 6795.25	-1662.75	  353.55
    116.9700	 6702.00	 6606.92	-1686.42	  353.56
    117.0700	 6561.00	 6360.19	-1580.69	  353.58
    117.1700	 6129.00	 6065.05	-1717.55	  353.60
    117.2700	 5745.00	 5732.19	-1768.69	  353.62
    117.3700	 5338.00	 5372.28	-1815.78	  353.65
    117.4700	 4921.00	 4995.61	-1856.11	  353.69
    117.5700	 4562.00	 4611.65	-1831.15	  353.73
    117.6700	 4308.00	 4228.85	-1702.35	  353.77
    117.7700	 3963.00	 3854.41	-1672.91	  353.83
    117.8700	 3720.00	 3494.28	-1555.78	  353.88
    117.9700	 3384.00	 3153.31	-1550.81	  353.94
    118.0700	 2918.00	 2835.06	-1698.56	  354.01
    118.1700	 2526.00	 2541.98	-1797.48	  354.08
    118.2700	 2281.00	 2275.40	-1775.90	  354.15
    118.3700	 2006.00	 2035.69	-1811.19	  354.24
    118.4700	 1829.00	 1822.57	-1775.07	  354.32
    118.5700	 1552.00	 1635.05	-1864.55	  354.42
    118.6700	 1349.00	 1471.67	-1904.17	  354.51
    118.7700	 1174.00	 1330.57	-1938.07	  354.62
    118.8700	 1163.00	 1209.69	-1828.19	  354.73
    118.9700	 1036.00	 1106.91	-1852.41	  354.84
    119.0700	  960.00	 1020.06	-1841.56	  354.96
    119.1700	  886.00	  947.07	-1842.57	  355.09
    119.2700	  830.00	  885.99	-1837.49	  355.22
    119.3700	  772.00	  835.03	-1844.53	  355.36
    119.4700	  714.00	  792.59	-1860.09	  355.50
    119.5700	  698.00	  757.30	-1840.80	  355.65
    119.6700	  697.00	  727.96	-1812.46	  355.81
    119.7700	  655.00	  703.54	-1830.04	  355.97
    119.8700	  595.00	  683.20	-1869.70	  356.14
    119.9700	  594.00	  666.22	-1853.72	  356.32
    120.0700	  640.00	  652.03	-1793.53	  356.50
    120.1700	  600.00	  640.18	-1821.68	  356.68
    120.2700	  561.00	  630.26	-1850.76	  356.88
    120.3700	  582.00	  622.00	-1821.50	  357.08
    120.4700	  565.00	  615.13	-1831.63	  357.29
    120.5700	  581.00	  609.49	-1809.99	  357.50
    120.6700	  540.00	  604.91	-1846.41	  357.72
    120.7700	  584.00	  601.28	-1798.78	  357.95
    120.8700	  589.00	  598.51	-1791.01	  358.18
    120.9700	  612.00	  596.53	-1766.03	  358.42
    121.0700	  538.00	  595.27	-1838.77	  358.67
    121.1700	  568.00	  594.69	-1808.19	  358.92
    121.2700	  570.00	  594.73	-1806.23	  359.18
    121.3700	  560.00	  595.36	-1816.86	  359.45
    121.4700	  585.00	  596.53	-1793.03	  359.73
    121.5700	  609.00	  598.18	-1770.68	  360.01
    121.6700	  581.00	  600.26	-1800.76	  360.30
    121.7700	  590.00	  602.72	-1794.22	  360.59
    121.8700	  574.00	  605.45	-1812.95	  360.90
    121.9700	  585.00	  608.41	-1804.91	  361.21
    122.0700	  594.00	  611.51	-1799.01	  361.53
    122.1700	  622.00	  614.65	-1774.15	  361.86
    122.2700	  629.00	  617.72	-1770.22	  362.19
    122.3700	  620.00	  620.64	-1782.14	  362.53
    122.4700	  622.00	  623.29	-1782.79	  362.88
    122.5700	  642.00	  625.58	-1765.08	  363.24
    122.6700	  657.00	  627.42	-1751.92	  363.60
    122.7700	  641.00	  628.75	-1769.25	  363.98
    122.8700	  608.00	  629.50	-1803.00	  364.36
    122.9700	  642.00	  629.66	-1769.16	  364.75
    123.0700	  597.00	  629.22	-1813.72	  365.14
    123.1700	  676.00	  628.21	-1733.71	  365.55
    123.2700	  665.00	  626.67	-1743.17	  365.96
    123.3700	  645.00	  624.66	-1761.16	  366.39
    123.4700	  646.00	  622.25	-1757.75	  366.82
    123.5700	  609.00	  619.52	-1792.02	  367.25
    123.6700	  629.00	  616.54	-1769.04	  367.70
    123.7700	  621.00	  613.38	-1773.88	  368.16
    123.8700	  639.00	  610.11	-1752.61	  368.62
    123.9700	  653.00	  606.79	-1735.29	  369.09
    124.0700	  653.00	  603.49	-1731.99	  369.58
    124.1700	  690.00	  600.26	-1691.76	  370.07
    124.2700	  608.00	  597.12	-1770.62	  370.57
    124.3700	  597.00	  594.12	-1778.62	  371.07
    124.4700	  580.00	  591.28	-1792.78	  371.59
    124.5700	  623.00	  588.63	-1747.13	  372.12
    124.6700	  590.00	  586.17	-1777.67	  372.65
    124.7700	  556.00	  583.92	-1809.42	  373.20
    124.8700	  585.00	  581.88	-1778.38	  373.75
    124.9700	  587.00	  492.16	-1686.66	  374.32
    125.0700	  582.00	  492.74	-1781.50	  374.89
    125.1700	  605.00	  493.32	-1781.50	  375.47
    125.2700	  572.00	  493.91	-1781.50	  376.06
    125.3700	  562.00	  494.51	-1781.50	  376.66
    125.4700	  584.00	  495.12	-1781.50	  377.27
    125.5700	  545.00	  495.74	-1781.50	  377.90
    125.6700	  559.00	  496.37	-1781.50	  378.53
    125.7700	  540.00	  497.01	-1781.50	  379.17
    125.8700	  530.00	  497.66	-1781.50	  379.82
    125.9700	  524.00	  498.33	-1781.50	  380.48
    126.0700	  571.00	  499.00	-1781.50	  381.15
    126.1700	  587.00	  499.68	-1781.50	  381.83
    126.2700	  596.00	  500.37	-1781.50	  382.52
    126.3700	  558.00	  501.07	-1781.50	  383.22
    126.4700	  625.00	  501.78	-1781.50	  383.93
    126.5700	  583.00	  502.50	-1781.50	  384.66
    126.6700	  591.00	  503.24	-1781.50	  385.39
    126.7700	  617.00	  503.98	-1781.50	  386.13
    126.8700	  593.00	  504.74	-1781.50	  386.89
    126.9700	  634.00	  505.50	-1781.50	  387.65
    127.0700	  655.00	  506.28	-1781.50	  388.43
    127.1700	  649.00	  507.06	-1781.50	  389.22
    127.2700	  658.00	  507.86	-1781.50	  390.01
    127.3700	  675.00	  508.67	-1781.50	  390.82
    127.4700	  653.00	  509.49	-1781.50	  391.64
    127.5700	  682.00	  510.32	-1781.50	  392.48
    127.6700	  685.00	  511.17	-1781.50	  393.32
    127.7700	  713.00	  512.02	-1781.50	  394.17
    127.8700	  738.00	  512.89	-1781.50	  395.04
    127.9700	  726.00	  513.76	-1781.50	  395.92
    128.0700	  735.00	  514.65	-1781.50	  396.80
    128.1700	  814.00	  515.55	-1781.50	  397.70
    128.2700	  772.00	  516.46	-1781.50	  398.62
    128.3700	  801.00	  517.39	-1781.50	  399.54
    128.4700	  780.00	  518.32	-1781.50	  400.48
    128.5700	    0.00	  519.27	-1781.50	  401.42
    128.6700	    0.00	  520.23	-1781.50	  402.38
     12.3074	        	        	        	        	       0	(  0  0  2)	  0  1
     24.8892	        	        	        	        	       0	(  0  0  4)	  0  1
     28.3330	        	        	        	        	       0	(  1  0  0)	  0  1
     29.0300	        	        	        	        	       0	(  1  0  1)	  0  1
     31.0359	        	        	        	        	       0	(  1  0  2)	  0  1
     34.1437	        	        	        	        	       0	(  1  0  3)	  0  1
     37.7868	        	        	        	        	       0	(  0  0  6)	  0  1
     38.1200	        	        	        	        	       0	(  1  0  4)	  0  1
     42.7694	        	        	        	        	       0	(  1  0  5)	  0  1
     47.9525	        	        	        	        	       0	(  1  0  6)	  0  1
     50.2692	        	        	        	        	       0	(  1  1  0)	  0  1
     51.2065	        	        	        	        	       0	(  0  0  8)	  0  1
     51.9919	        	        	        	        	       0	(  1  1  2)	  0  1
     53.5820	        	        	        	        	       0	(  1  0  7)	  0  1
     56.9388	        	        	        	        	       0	(  1  1  4)	  0  1
     58.7659	        	        	        	        	       0	(  2  0  0)	  0  1
     59.1574	        	        	        	        	       0	(  2  0  1)	  0  1
     59.6112	        	        	        	        	       0	(  1  0  8)	  0  1
     60.3225	        	        	        	        	       0	(  2  0  2)	  0  1
     62.2354	        	        	        	        	       0	(  2  0  3)	  0  1
     64.6319	        	        	        	        	       0	(  1  1  6)	  0  1
     64.8589	        	        	        	        	       0	(  2  0  4)	  0  1
     65.4330	        	        	        	        	       0	(  0  0 10)	  0  1
     66.0263	        	        	        	        	       0	(  1  0  9)	  0  1
     68.1524	        	        	        	        	       0	(  2  0  5)	  0  1
     72.0791	        	        	        	        	       0	(  2  0  6)	  0  1
     72.8410	        	        	        	        	       0	(  1  0 10)	  0  1
     74.6674	        	        	        	        	       0	(  1  1  8)	  0  1
     76.6122	        	        	        	        	       0	(  2  0  7)	  0  1
     80.0969	        	        	        	        	       0	(  1  0 11)	  0  1
     80.9100	        	        	        	        	       0	(  0  0 12)	  0  1
     81.0062	        	        	        	        	       0	(  2  1  0)	  0  1
     81.3460	        	        	        	        	       0	(  2  1  1)	  0  1
     81.7413	        	        	        	        	       0	(  2  0  8)	  0  1
     82.3636	        	        	        	        	       0	(  2  1  2)	  0  1
     84.0545	        	        	        	        	       0	(  2  1  3)	  0  1
     86.4136	        	        	        	        	       0	(  2  1  4)	  0  1
     86.9359	        	        	        	        	       0	(  1  1 10)	  0  1
     87.4779	        	        	        	        	       0	(  2  0  9)	  0  1
     87.8693	        	        	        	        	       0	(  1  0 12)	  0  1
     89.4386	        	        	        	        	       0	(  2  1  5)	  0  1
     93.1351	        	        	        	        	       0	(  2  1  6)	  0  1
     93.8636	        	        	        	        	       0	(  2  0 10)	  0  1
     94.8944	        	        	        	        	       0	(  3  0  0)	  0  1
     95.2316	        	        	        	        	       0	(  3  0  1)	  0  1
     96.2446	        	        	        	        	       0	(  3  0  2)	  0  1
     96.2801	        	        	        	        	       0	(  1  0 13)	  0  1
     97.5225	        	        	        	        	       0	(  2  1  7)	  0  1
     97.9375	        	        	        	        	       0	(  3  0  3)	  0  1
     98.4443	        	        	        	        	       0	(  0  0 14)	  0  1
    100.3198	        	        	        	        	       0	(  3  0  4)	  0  1
    100.9834	        	        	        	        	       0	(  2  0 11)	  0  1
    101.8020	        	        	        	        	       0	(  1  1 12)	  0  1
    102.6435	        	        	        	        	       0	(  2  1  8)	  0  1
    103.4106	        	        	        	        	       0	(  3  0  5)	  0  1
    105.5296	        	        	        	        	       0	(  1  0 14)	  0  1
    107.2446	        	        	        	        	       0	(  3  0  6)	  0  1
    108.5785	        	        	        	        	       0	(  2  1  9)	  0  1
    108.9919	        	        	        	        	       0	(  2  0 12)	  0  1
    111.8834	        	        	        	        	       0	(  3  0  7)	  0  1
    115.4730	        	        	        	        	       0	(  2  1 10)	  0  1
    115.9689	        	        	        	        	       0	(  1  0 15)	  0  1
    116.6180	        	        	        	        	       0	(  2  2  0)	  0  1
    117.4350	        	        	        	        	       0	(  3  0  8)	  0  1
    118.1327	        	        	        	        	       0	(  2  2  2)	  0  1
    118.1728	        	        	        	        	       0	(  2  0 13)	  0  1
    119.9241	        	        	        	        	       0	(  0  0 16)	  0  1
    120.6390	        	        	        	        	       0	(  1  1 14)	  0  1
    122.8167	        	        	        	        	       0	(  2  2  4)	  0  1
    123.5968	        	        	        	        	       0	(  2  1 11)	  0  1
    124.0925	        	        	        	        	       0	(  3  0  9)	  0  1
    124.6825	        	        	        	        	       0	(  3  1  0)	  0  1
    125.0926	        	        	        	        	       0	(  3  1  1)	  0  1
    126.3356	        	        	        	        	       0	(  3  1  2)	  0  1
    128.3062	        	        	        	        	       0	(  1  0 16)	  0  1
    128.4532	        	        	        	        	       0	(  3  1  3)	  0  1
    129.0976	        	        	        	        	       0	(  2  0 14)	  0  1
    131.2535	        	        	        	        	       0	(  2  2  6)	  0  1
    131.5280	        	        	        	        	       0	(  3  1  4)	  0  1
    132.2297	        	        	        	        	       0	(  3  0 10)	  0  1
    133.5046	        	        	        	        	       0	(  2  1 12)	  0  1
    135.7134	        	        	        	        	       0	(  3  1  5)	  0  1
    141.3064	        	        	        	        	       0	(  3  1  6)	  0  1
    142.7031	        	        	        	        	       0	(  3  0 11)	  0  1
    143.2292	        	        	        	        	       0	(  2  0 15)	  0  1
    144.4652	        	        	        	        	       0	(  1  0 17)	  0  1
    145.4811	        	        	        	        	       0	(  2  2  8)	  0  1
    146.6526	        	        	        	        	       0	(  2  1 13)	  0  1
    148.9758	        	        	        	        	       0	(  3  1  7)	  0  1
    149.5571	        	        	        	        	       0	(  1  1 16)	  0  1
    153.9511	        	        	        	        	       0	(  0  0 18)	  0  1
    158.5697	        	        	        	        	       0	(  3  0 12)	  0  1
    158.8330	        	        	        	        	       0	(  4  0  0)	  0  1
    159.7892	        	        	        	        	       0	(  4  0  1)	  0  1
    160.9609	        	        	        	        	       0	(  3  1  8)	  0  1
    162.9657	        	        	        	        	       0	(  4  0  2)	  0  1
    169.6344	        	        	        	        	       0	(  2  0 16)	  0  1
    170.3030	        	        	        	        	       0	(  4  0  3)	  0  1
    174.0468	        	        	        	        	       0	(  2  1 14)	  0  1
