MSG Master    CELL:    5.91917   5.91917  23.27508   90.0000   90.0000  120.0000   SPGR: P 63/m m c             TEMP:   1074.95
  1   1280     2.52000     0.00000    -0.12698     0.00000     0.00000    0
    99     0     2
       0.00000      10.00000
     125.00000     130.00000
 2Theta	Yobs	Ycal	Yobs-Ycal	Backg	Posr	(hkl)	K
      0.7700	    0.00	  541.97	-1731.99	  423.44
      0.8700	    0.00	  542.69	-1731.99	  424.16
      0.9700	   35.00	  543.40	-1731.99	  424.87
      1.0700	   47.00	  544.10	-1731.99	  425.57
      1.1700	   46.00	  544.79	-1731.99	  426.26
      1.2700	   36.00	  545.47	-1731.99	  426.94
      1.3700	   47.00	  546.14	-1731.99	  427.61
      1.4700	   89.00	  546.80	-1731.99	  428.27
      1.5700	  273.00	  547.44	-1731.99	  428.92
      1.6700	  484.00	  548.08	-1731.99	  429.55
      1.7700	  591.00	  548.71	-1731.99	  430.18
      1.8700	  645.00	  549.33	-1731.99	  430.80
      1.9700	  728.00	  549.94	-1731.99	  431.41
      2.0700	  746.00	  550.53	-1731.99	  432.01
      2.1700	  767.00	  551.12	-1731.99	  432.59
      2.2700	  832.00	  551.70	-1731.99	  433.17
      2.3700	  745.00	  552.27	-1731.99	  433.74
      2.4700	  738.00	  552.83	-1731.99	  434.30
      2.5700	  691.00	  553.38	-1731.99	  434.85
      2.6700	  668.00	  553.92	-1731.99	  435.39
      2.7700	  628.00	  554.45	-1731.99	  435.92
      2.8700	  704.00	  554.97	-1731.99	  436.45
      2.9700	  657.00	  555.49	-1731.99	  436.96
      3.0700	  599.00	  555.99	-1731.99	  437.46
      3.1700	  590.00	  556.48	-1731.99	  437.96
      3.2700	  625.00	  556.97	-1731.99	  438.44
      3.3700	  643.00	  557.45	-1731.99	  438.92
      3.4700	  737.00	  557.91	-1731.99	  439.39
      3.5700	  743.00	  558.37	-1731.99	  439.84
      3.6700	  852.00	  558.82	-1731.99	  440.29
      3.7700	  919.00	  559.26	-1731.99	  440.74
      3.8700	  992.00	  559.70	-1731.99	  441.17
      3.9700	 1060.00	  560.12	-1731.99	  441.59
      4.0700	 1038.00	  560.54	-1731.99	  442.01
      4.1700	 1059.00	  560.94	-1731.99	  442.41
      4.2700	 1110.00	  561.34	-1731.99	  442.81
      4.3700	 1175.00	  561.73	-1731.99	  443.20
      4.4700	 1039.00	  562.11	-1731.99	  443.59
      4.5700	 1044.00	  562.49	-1731.99	  443.96
      4.6700	 1012.00	  562.85	-1731.99	  444.33
      4.7700	  951.00	  563.21	-1731.99	  444.68
      4.8700	  991.00	  563.56	-1731.99	  445.03
      4.9700	  993.00	  563.90	-1731.99	  445.38
      5.0700	  922.00	  564.24	-1731.99	  445.71
      5.1700	  912.00	  564.56	-1731.99	  446.04
      5.2700	  887.00	  564.88	-1731.99	  446.35
      5.3700	  893.00	  565.19	-1731.99	  446.66
      5.4700	  828.00	  565.50	-1731.99	  446.97
      5.5700	  874.00	  565.79	-1731.99	  447.26
      5.6700	  830.00	  566.08	-1731.99	  447.55
      5.7700	  908.00	  566.36	-1731.99	  447.83
      5.8700	  807.00	  566.63	-1731.99	  448.10
      5.9700	  832.00	  566.90	-1731.99	  448.37
      6.0700	  859.00	  567.16	-1731.99	  448.63
      6.1700	  764.00	  567.41	-1731.99	  448.88
      6.2700	  757.00	  567.65	-1731.99	  449.12
      6.3700	  730.00	  567.89	-1731.99	  449.36
      6.4700	  770.00	  568.12	-1731.99	  449.59
      6.5700	  768.00	  568.34	-1731.99	  449.81
      6.6700	  733.00	  568.56	-1731.99	  450.03
      6.7700	  738.00	  568.77	-1731.99	  450.24
      6.8700	  713.00	  568.97	-1731.99	  450.44
      6.9700	  671.00	  569.17	-1731.99	  450.64
      7.0700	  689.00	  569.35	-1731.99	  450.83
      7.1700	  714.00	  569.54	-1731.99	  451.01
      7.2700	  706.00	  569.71	-1731.99	  451.18
      7.3700	  695.00	  569.88	-1731.99	  451.35
      7.4700	  665.00	  570.04	-1731.99	  451.52
      7.5700	  684.00	  570.20	-1731.99	  451.67
      7.6700	  689.00	  570.35	-1731.99	  451.82
      7.7700	  622.00	  570.49	-1731.99	  451.97
      7.8700	  681.00	  570.63	-1731.99	  452.10
      7.9700	  635.00	  570.76	-1731.99	  452.23
      8.0700	  663.00	  570.89	-1731.99	  452.36
      8.1700	  609.00	  571.01	-1731.99	  452.48
      8.2700	  627.00	  571.12	-1731.99	  452.59
      8.3700	  644.00	  571.23	-1731.99	  452.70
      8.4700	  672.00	  571.33	-1731.99	  452.80
      8.5700	  622.00	  571.42	-1731.99	  452.89
      8.6700	  627.00	  571.51	-1731.99	  452.98
      8.7700	  641.00	  571.59	-1731.99	  453.07
      8.8700	  604.00	  571.67	-1731.99	  453.14
      8.9700	  607.00	  571.74	-1731.99	  453.22
      9.0700	  672.00	  571.81	-1731.99	  453.28
      9.1700	  641.00	  571.87	-1731.99	  453.34
      9.2700	  620.00	  571.93	-1731.99	  453.40
      9.3700	  595.00	  571.98	-1731.99	  453.45
      9.4700	  635.00	  572.02	-1731.99	  453.49
      9.5700	  610.00	  572.06	-1731.99	  453.53
      9.6700	  661.00	  572.10	-1731.99	  453.57
      9.7700	  605.00	  572.12	-1731.99	  453.60
      9.8700	  612.00	  572.15	-1731.99	  453.62
      9.9700	  607.00	  572.17	-1731.99	  453.64
     10.0700	  661.00	  572.99	-1643.98	  453.65
     10.1700	  563.00	  573.08	-1742.08	  453.66
     10.2700	  589.00	  573.19	-1716.19	  453.66
     10.3700	  591.00	  573.33	-1714.32	  453.66
     10.4700	  613.00	  573.52	-1692.52	  453.65
     10.5700	  543.00	  573.82	-1762.82	  453.64
     10.6700	  602.00	  574.33	-1704.32	  453.63
     10.7700	  616.00	  575.14	-1691.13	  453.61
     10.8700	  562.00	  576.32	-1746.32	  453.58
     10.9700	  556.00	  577.87	-1753.87	  453.55
     11.0700	  585.00	  579.76	-1726.75	  453.51
     11.1700	  557.00	  581.97	-1756.97	  453.47
     11.2700	  576.00	  584.56	-1740.55	  453.43
     11.3700	  566.00	  587.58	-1753.57	  453.38
     11.4700	  572.00	  591.17	-1751.17	  453.33
     11.5700	  593.00	  595.54	-1734.53	  453.27
     11.6700	  634.00	  601.01	-1699.00	  453.21
     11.7700	  586.00	  608.18	-1754.18	  453.14
     11.8700	  601.00	  617.93	-1748.92	  453.07
     11.9700	  705.00	  630.78	-1657.77	  453.00
     12.0700	  719.00	  645.10	-1658.09	  452.92
     12.1700	  687.00	  654.95	-1699.95	  452.84
     12.2700	  662.00	  651.25	-1721.24	  452.75
     12.3700	  675.00	  631.58	-1688.58	  452.66
     12.4700	  666.00	  607.93	-1673.92	  452.57
     12.5700	  612.00	  590.65	-1710.64	  452.47
     12.6700	  609.00	  581.20	-1704.19	  452.36
     12.7700	  559.00	  576.85	-1749.85	  452.26
     12.8700	  621.00	  574.87	-1685.86	  452.15
     12.9700	  571.00	  573.77	-1734.77	  452.03
     13.0700	  570.00	  573.03	-1735.02	  451.92
     13.1700	  564.00	  572.46	-1740.46	  451.79
     13.2700	  562.00	  572.01	-1742.00	  451.67
     13.3700	  527.00	  571.62	-1776.62	  451.54
     13.4700	  547.00	  571.29	-1756.29	  451.41
     13.5700	  571.00	  571.00	-1731.99	  451.27
     13.6700	  527.00	  570.73	-1775.72	  451.13
     13.7700	  570.00	  570.48	-1732.47	  450.99
     13.8700	  567.00	  570.25	-1735.24	  450.85
     13.9700	  596.00	  570.02	-1706.01	  450.70
     14.0700	  579.00	  569.81	-1722.80	  450.54
     14.1700	  570.00	  569.60	-1731.59	  450.39
     14.2700	  545.00	  569.39	-1756.38	  450.23
     14.3700	  530.00	  569.19	-1771.18	  450.07
     14.4700	  575.00	  568.99	-1725.98	  449.90
     14.5700	  534.00	  568.79	-1766.78	  449.73
     14.6700	  547.00	  568.59	-1753.58	  449.56
     14.7700	  556.00	  568.39	-1744.38	  449.39
     14.8700	  512.00	  568.19	-1788.18	  449.21
     14.9700	  560.00	  567.99	-1739.98	  449.03
     15.0700	  578.00	  567.79	-1721.78	  448.85
     15.1700	  583.00	  567.59	-1716.58	  448.66
     15.2700	  589.00	  567.38	-1710.38	  448.47
     15.3700	  569.00	  567.18	-1730.17	  448.28
     15.4700	  578.00	  566.97	-1720.97	  448.09
     15.5700	  525.00	  566.77	-1773.76	  447.89
     15.6700	  586.00	  566.56	-1712.55	  447.69
     15.7700	  533.00	  566.34	-1765.34	  447.49
     15.8700	  552.00	  566.13	-1746.12	  447.29
     15.9700	  545.00	  565.92	-1752.91	  447.08
     16.0700	  533.00	  565.73	-1764.72	  446.87
     16.1700	  529.00	  565.51	-1768.50	  446.66
     16.2700	  551.00	  565.29	-1746.28	  446.44
     16.3700	  559.00	  565.07	-1738.06	  446.23
     16.4700	  542.00	  564.84	-1754.84	  446.01
     16.5700	  581.00	  564.62	-1715.61	  445.79
     16.6700	  535.00	  564.39	-1761.38	  445.56
     16.7700	  585.00	  564.16	-1711.15	  445.34
     16.8700	  542.00	  563.93	-1753.92	  445.11
     16.9700	  563.00	  563.70	-1732.69	  444.88
     17.0700	  539.00	  563.46	-1756.45	  444.64
     17.1700	  496.00	  563.22	-1799.22	  444.41
     17.2700	  532.00	  562.98	-1762.98	  444.17
     17.3700	  537.00	  562.74	-1757.74	  443.93
     17.4700	  605.00	  562.50	-1689.49	  443.69
     17.5700	  546.00	  562.26	-1748.25	  443.45
     17.6700	  557.00	  562.01	-1737.00	  443.20
     17.7700	  543.00	  561.76	-1750.76	  442.96
     17.8700	  520.00	  561.51	-1773.51	  442.71
     17.9700	  554.00	  561.26	-1739.26	  442.46
     18.0700	  547.00	  561.11	-1746.11	  442.21
     18.1700	  576.00	  560.86	-1716.85	  441.95
     18.2700	  583.00	  560.61	-1709.60	  441.70
     18.3700	  574.00	  560.35	-1718.35	  441.44
     18.4700	  568.00	  560.10	-1724.09	  441.18
     18.5700	  576.00	  559.84	-1715.83	  440.92
     18.6700	  540.00	  559.58	-1751.57	  440.66
     18.7700	  514.00	  559.32	-1777.31	  440.39
     18.8700	  533.00	  559.14	-1758.13	  440.13
     18.9700	  545.00	  558.88	-1745.87	  439.86
     19.0700	  554.00	  558.62	-1736.61	  439.59
     19.1700	  578.00	  558.35	-1712.35	  439.32
     19.2700	  588.00	  558.09	-1702.08	  439.05
     19.3700	  558.00	  557.82	-1731.81	  438.78
     19.4700	  539.00	  557.55	-1750.55	  438.51
     19.5700	  544.00	  557.29	-1745.28	  438.23
     19.6700	  575.00	  557.02	-1714.01	  437.96
     19.7700	  581.00	  556.75	-1707.74	  437.68
     19.8700	  561.00	  556.48	-1727.47	  437.40
     19.9700	  533.00	  556.21	-1755.20	  437.12
     20.0700	  552.00	  555.93	-1735.93	  436.84
     20.1700	  533.00	  555.66	-1754.66	  436.55
     20.2700	  579.00	  555.39	-1708.38	  436.27
     20.3700	  529.00	  555.12	-1758.11	  435.99
     20.4700	  582.00	  554.84	-1704.84	  435.70
     20.5700	  545.00	  554.57	-1741.56	  435.41
     20.6700	  532.00	  554.29	-1754.29	  435.13
     20.7700	  526.00	  553.99	-1759.98	  434.84
     20.8700	  531.00	  553.75	-1754.74	  434.55
     20.9700	  583.00	  553.48	-1702.47	  434.26
     21.0700	  550.00	  553.20	-1735.20	  433.97
     21.1700	  560.00	  552.93	-1724.92	  433.67
     21.2700	  602.00	  552.66	-1682.65	  433.38
     21.3700	  552.00	  552.39	-1732.38	  433.09
     21.4700	  537.00	  552.12	-1747.11	  432.79
     21.5700	  544.00	  551.84	-1739.84	  432.50
     21.6700	  538.00	  551.58	-1745.57	  432.20
     21.7700	  556.00	  551.31	-1727.30	  431.90
     21.8700	  529.00	  551.04	-1754.03	  431.61
     21.9700	  505.00	  550.78	-1777.77	  431.31
     22.0700	  612.00	  550.51	-1670.51	  431.01
     22.1700	  575.00	  550.25	-1707.25	  430.71
     22.2700	  542.00	  550.00	-1739.99	  430.41
     22.3700	  594.00	  549.74	-1687.74	  430.11
     22.4700	  529.00	  549.50	-1752.49	  429.81
     22.5700	  544.00	  549.25	-1737.25	  429.51
     22.6700	  591.00	  549.01	-1690.01	  429.21
     22.7700	  522.00	  548.79	-1758.78	  428.90
     22.8700	  534.00	  548.56	-1746.56	  428.60
     22.9700	  549.00	  548.35	-1731.35	  428.30
     23.0700	  554.00	  548.16	-1726.15	  428.00
     23.1700	  539.00	  547.98	-1740.97	  427.69
     23.2700	  551.00	  547.82	-1728.82	  427.39
     23.3700	  566.00	  547.70	-1713.69	  427.08
     23.4700	  597.00	  547.61	-1682.60	  426.78
     23.5700	  565.00	  547.57	-1714.56	  426.47
     23.6700	  524.00	  547.74	-1755.73	  426.17
     23.7700	  557.00	  547.90	-1722.90	  425.86
     23.8700	  547.00	  548.30	-1733.30	  425.56
     23.9700	  574.00	  549.19	-1707.18	  425.25
     24.0700	  576.00	  551.01	-1707.00	  424.95
     24.1700	  532.00	  554.47	-1754.46	  424.64
     24.2700	  569.00	  560.45	-1723.44	  424.33
     24.3700	  596.00	  569.95	-1705.94	  424.03
     24.4700	  673.00	  583.98	-1642.97	  423.72
     24.5700	  578.00	  602.63	-1756.63	  423.42
     24.6700	  656.00	  622.78	-1698.77	  423.11
     24.7700	  622.00	  636.19	-1746.18	  422.80
     24.8700	  661.00	  632.23	-1703.23	  422.50
     24.9700	  608.00	  610.25	-1734.25	  422.19
     25.0700	  598.00	  584.21	-1718.20	  421.89
     25.1700	  545.00	  564.81	-1751.80	  421.58
     25.2700	  572.00	  553.82	-1713.81	  421.28
     25.3700	  537.00	  548.59	-1743.59	  420.97
     25.4700	  526.00	  546.19	-1752.19	  420.67
     25.5700	  540.00	  544.92	-1736.91	  420.36
     25.6700	  551.00	  544.10	-1725.09	  420.06
     25.7700	  611.00	  543.51	-1664.50	  419.75
     25.8700	  600.00	  543.07	-1675.06	  419.45
     25.9700	  553.00	  542.73	-1721.73	  419.14
     26.0700	  584.00	  542.49	-1690.49	  418.84
     26.1700	  542.00	  542.33	-1732.33	  418.54
     26.2700	  554.00	  542.25	-1720.25	  418.23
     26.3700	  565.00	  542.25	-1709.24	  417.93
     26.4700	  544.00	  542.33	-1730.33	  417.63
     26.5700	  521.00	  542.52	-1753.51	  417.33
     26.6700	  573.00	  542.81	-1701.80	  417.02
     26.7700	  579.00	  543.24	-1696.24	  416.72
     26.8700	  590.00	  543.85	-1685.84	  416.42
     26.9700	  514.00	  544.68	-1762.67	  416.12
     27.0700	  519.00	  545.81	-1758.80	  415.82
     27.1700	  522.00	  547.37	-1757.37	  415.52
     27.2700	  548.00	  549.63	-1733.62	  415.22
     27.3700	  533.00	  553.06	-1752.06	  414.93
     27.4700	  551.00	  558.67	-1739.66	  414.63
     27.5700	  572.00	  568.21	-1728.21	  414.33
     27.6700	  544.00	  584.48	-1772.47	  414.03
     27.7700	  566.00	  611.05	-1777.05	  413.74
     27.8700	  634.00	  651.05	-1749.05	  413.44
     27.9700	  670.00	  704.60	-1766.60	  413.15
     28.0700	  730.00	  765.53	-1767.52	  412.85
     28.1700	  874.00	  818.49	-1676.48	  412.56
     28.2700	  984.00	  840.53	-1588.53	  412.27
     28.3700	  873.00	  818.45	-1677.45	  411.98
     28.4700	  885.00	  774.28	-1621.28	  411.68
     28.5700	  735.00	  743.64	-1740.64	  411.39
     28.6700	  683.00	  742.58	-1791.57	  411.10
     28.7700	  749.00	  766.13	-1749.13	  410.82
     28.8700	  800.00	  794.17	-1726.16	  410.53
     28.9700	  797.00	  798.53	-1733.52	  410.24
     29.0700	  750.00	  761.61	-1743.60	  409.95
     29.1700	  686.00	  699.22	-1745.22	  409.67
     29.2700	  668.00	  639.92	-1703.91	  409.38
     29.3700	  615.00	  597.20	-1714.20	  409.10
     29.4700	  599.00	  571.41	-1704.41	  408.81
     29.5700	  589.00	  557.48	-1700.48	  408.53
     29.6700	  602.00	  550.13	-1680.12	  408.25
     29.7700	  596.00	  545.97	-1681.96	  407.97
     29.8700	  585.00	  543.38	-1690.37	  407.69
     29.9700	  546.00	  541.73	-1727.73	  407.41
     30.0700	  587.00	  540.88	-1685.88	  407.13
     30.1700	  584.00	  540.99	-1688.98	  406.86
     30.2700	  582.00	  542.56	-1692.56	  406.58
     30.3700	  536.00	  546.62	-1742.61	  406.31
     30.4700	  571.00	  554.69	-1715.68	  406.03
     30.5700	  499.00	  568.36	-1801.36	  405.76
     30.6700	  603.00	  588.04	-1717.04	  405.49
     30.7700	  604.00	  611.25	-1739.24	  405.22
     30.8700	  622.00	  631.34	-1741.33	  404.95
     30.9700	  583.00	  638.28	-1787.28	  404.68
     31.0700	  590.00	  625.28	-1767.27	  404.41
     31.1700	  589.00	  599.20	-1742.19	  404.14
     31.2700	  566.00	  573.10	-1739.09	  403.88
     31.3700	  536.00	  553.83	-1749.82	  403.61
     31.4700	  515.00	  542.10	-1759.09	  403.35
     31.5700	  560.00	  535.81	-1707.81	  403.09
     31.6700	  567.00	  532.58	-1697.57	  402.83
     31.7700	  533.00	  530.78	-1729.78	  402.57
     31.8700	  571.00	  529.66	-1690.65	  402.31
     31.9700	  536.00	  528.88	-1724.88	  402.05
     32.0700	  509.00	  528.34	-1751.33	  401.80
     32.1700	  539.00	  527.97	-1720.97	  401.54
     32.2700	  512.00	  527.76	-1747.76	  401.29
     32.3700	  533.00	  527.70	-1726.70	  401.03
     32.4700	  527.00	  527.80	-1732.79	  400.78
     32.5700	  595.00	  528.06	-1665.05	  400.53
     32.6700	  594.00	  528.52	-1666.51	  400.28
     32.7700	  569.00	  529.22	-1692.21	  400.04
     32.8700	  592.00	  530.23	-1670.23	  399.79
     32.9700	  536.00	  531.67	-1727.67	  399.54
     33.0700	  544.00	  533.76	-1721.75	  399.30
     33.1700	  544.00	  536.95	-1724.94	  399.06
     33.2700	  524.00	  542.31	-1750.30	  398.82
     33.3700	  537.00	  552.10	-1747.09	  398.58
     33.4700	  545.00	  570.66	-1757.66	  398.34
     33.5700	  646.00	  604.81	-1690.80	  398.10
     33.6700	  653.00	  662.22	-1741.22	  397.87
     33.7700	  756.00	  746.20	-1722.19	  397.63
     33.8700	  849.00	  847.32	-1730.32	  397.40
     33.9700	 1059.00	  938.36	-1611.36	  397.17
     34.0700	 1079.00	  977.81	-1630.80	  396.94
     34.1700	 1024.00	  935.63	-1643.63	  396.71
     34.2700	  902.00	  833.75	-1663.74	  396.48
     34.3700	  739.00	  724.48	-1717.48	  396.25
     34.4700	  623.00	  639.83	-1748.82	  396.03
     34.5700	  582.00	  586.43	-1736.42	  395.80
     34.6700	  535.00	  557.36	-1754.36	  395.58
     34.7700	  551.00	  542.68	-1723.67	  395.36
     34.8700	  508.00	  535.00	-1758.99	  395.14
     34.9700	  500.00	  530.41	-1762.40	  394.92
     35.0700	  555.00	  527.25	-1704.24	  394.71
     35.1700	  551.00	  524.89	-1705.88	  394.49
     35.2700	  581.00	  523.01	-1674.00	  394.28
     35.3700	  555.00	  521.48	-1698.48	  394.07
     35.4700	  539.00	  520.22	-1713.21	  393.86
     35.5700	  546.00	  519.16	-1705.15	  393.65
     35.6700	  550.00	  518.24	-1700.24	  393.44
     35.7700	  519.00	  517.45	-1730.45	  393.24
     35.8700	  505.00	  516.76	-1743.76	  393.03
     35.9700	  534.00	  516.15	-1714.14	  392.83
     36.0700	  488.00	  516.08	-1760.08	  392.63
     36.1700	  524.00	  515.60	-1723.59	  392.43
     36.2700	  532.00	  515.16	-1715.16	  392.23
     36.3700	  486.00	  514.77	-1760.77	  392.03
     36.4700	  533.00	  514.42	-1713.42	  391.84
     36.5700	  505.00	  514.11	-1741.11	  391.64
     36.6700	  521.00	  513.85	-1724.84	  391.45
     36.7700	  529.00	  513.63	-1716.62	  391.26
     36.8700	  515.00	  513.49	-1730.48	  391.07
     36.9700	  525.00	  513.49	-1720.48	  390.88
     37.0700	  523.00	  513.77	-1722.76	  390.70
     37.1700	  520.00	  514.59	-1726.58	  390.51
     37.2700	  507.00	  516.33	-1741.32	  390.33
     37.3700	  529.00	  519.34	-1722.33	  390.15
     37.4700	  522.00	  523.61	-1733.60	  389.97
     37.5700	  520.00	  528.40	-1740.39	  389.79
     37.6700	  543.00	  532.19	-1721.18	  389.61
     37.7700	  545.00	  533.30	-1720.29	  389.44
     37.8700	  526.00	  531.38	-1737.37	  389.27
     37.9700	  520.00	  527.80	-1739.79	  389.09
     38.0700	  513.00	  523.79	-1742.79	  388.92
     38.1700	  545.00	  519.84	-1706.83	  388.76
     38.2700	  514.00	  516.34	-1734.34	  388.59
     38.3700	  491.00	  513.64	-1754.64	  388.42
     38.4700	  528.00	  511.77	-1715.76	  388.26
     38.5700	  521.00	  510.56	-1721.56	  388.10
     38.6700	  523.00	  509.81	-1718.81	  387.94
     38.7700	  488.00	  509.24	-1753.23	  387.78
     38.8700	  492.00	  508.90	-1748.89	  387.62
     38.9700	  505.00	  508.63	-1735.62	  387.47
     39.0700	  514.00	  508.40	-1726.39	  387.31
     39.1700	  544.00	  508.19	-1696.18	  387.16
     39.2700	  537.00	  507.92	-1702.92	  387.01
     39.3700	  514.00	  507.75	-1725.75	  386.86
     39.4700	  519.00	  507.73	-1720.72	  386.71
     39.5700	  524.00	  507.58	-1715.58	  386.57
     39.6700	  515.00	  507.45	-1724.44	  386.42
     39.7700	  484.00	  507.33	-1755.32	  386.28
     39.8700	  474.00	  507.21	-1765.21	  386.14
     39.9700	  505.00	  507.11	-1734.10	  386.00
     40.0700	  505.00	  507.02	-1734.01	  385.86
     40.1700	  520.00	  506.94	-1718.93	  385.73
     40.2700	  490.00	  506.86	-1748.86	  385.59
     40.3700	  514.00	  506.81	-1724.80	  385.46
     40.4700	  511.00	  506.76	-1727.75	  385.33
     40.5700	  540.00	  506.73	-1698.72	  385.20
     40.6700	  452.00	  506.72	-1786.71	  385.07
     40.7700	  443.00	  506.72	-1795.72	  384.95
     40.8700	  485.00	  506.75	-1753.75	  384.82
     40.9700	  503.00	  506.81	-1735.81	  384.70
     41.0700	  478.00	  506.90	-1760.90	  384.58
     41.1700	  501.00	  507.04	-1738.03	  384.46
     41.2700	  504.00	  507.19	-1735.18	  384.34
     41.3700	  496.00	  507.44	-1743.43	  384.23
     41.4700	  511.00	  507.78	-1728.77	  384.11
     41.5700	  494.00	  508.67	-1746.66	  384.00
     41.6700	  469.00	  509.32	-1772.31	  383.89
     41.7700	  470.00	  510.29	-1772.28	  383.78
     41.8700	  523.00	  511.90	-1720.90	  383.67
     41.9700	  510.00	  514.88	-1736.88	  383.57
     42.0700	  504.00	  520.60	-1748.60	  383.46
     42.1700	  554.00	  531.21	-1709.21	  383.36
     42.2700	  543.00	  549.17	-1738.17	  383.26
     42.3700	  533.00	  575.83	-1774.83	  383.16
     42.4700	  559.00	  609.00	-1782.00	  383.06
     42.5700	  578.00	  641.45	-1795.44	  382.97
     42.6700	  559.00	  661.40	-1834.39	  382.87
     42.7700	  644.00	  658.43	-1746.42	  382.78
     42.8700	  580.00	  633.29	-1785.29	  382.69
     42.9700	  589.00	  598.51	-1741.50	  382.60
     43.0700	  509.00	  566.03	-1789.02	  382.51
     43.1700	  505.00	  541.69	-1768.68	  382.43
     43.2700	  488.00	  526.20	-1770.20	  382.34
     43.3700	  529.00	  517.53	-1720.53	  382.26
     43.4700	  496.00	  513.03	-1749.02	  382.18
     43.5700	  480.00	  510.69	-1762.68	  382.10
     43.6700	  486.00	  509.35	-1755.35	  382.02
     43.7700	  497.00	  508.67	-1743.66	  381.95
     43.8700	  520.00	  508.05	-1720.04	  381.87
     43.9700	  548.00	  507.62	-1691.62	  381.80
     44.0700	  496.00	  507.27	-1743.26	  381.73
     44.1700	  568.00	  506.99	-1670.98	  381.66
     44.2700	  507.00	  506.78	-1731.77	  381.59
     44.3700	  525.00	  506.62	-1713.61	  381.53
     44.4700	  507.00	  506.50	-1731.50	  381.46
     44.5700	  479.00	  506.43	-1759.42	  381.40
     44.6700	  508.00	  506.26	-1730.25	  381.34
     44.7700	  494.00	  506.24	-1744.23	  381.28
     44.8700	  522.00	  506.25	-1716.24	  381.22
     44.9700	  517.00	  506.28	-1721.28	  381.16
     45.0700	  519.00	  506.34	-1719.33	  381.11
     45.1700	  498.00	  506.60	-1740.60	  381.05
     45.2700	  523.00	  506.71	-1715.70	  381.00
     45.3700	  497.00	  506.83	-1741.82	  380.95
     45.4700	  502.00	  506.98	-1736.97	  380.90
     45.5700	  513.00	  507.15	-1726.14	  380.86
     45.6700	  551.00	  507.35	-1688.34	  380.81
     45.7700	  516.00	  507.57	-1723.56	  380.77
     45.8700	  525.00	  507.82	-1714.82	  380.73
     45.9700	  526.00	  508.11	-1714.10	  380.68
     46.0700	  519.00	  508.42	-1721.42	  380.65
     46.1700	  496.00	  508.78	-1744.77	  380.61
     46.2700	  505.00	  509.18	-1736.18	  380.57
     46.3700	  502.00	  509.63	-1739.63	  380.54
     46.4700	  482.00	  510.15	-1760.14	  380.51
     46.5700	  499.00	  510.73	-1743.72	  380.47
     46.6700	  476.00	  511.40	-1767.39	  380.44
     46.7700	  451.00	  512.19	-1793.18	  380.42
     46.8700	  479.00	  513.15	-1766.14	  380.39
     46.9700	  496.00	  514.41	-1750.41	  380.37
     47.0700	  476.00	  516.26	-1772.25	  380.34
     47.1700	  530.00	  519.25	-1721.24	  380.32
     47.2700	  545.00	  524.28	-1711.28	  380.30
     47.3700	  543.00	  532.47	-1721.46	  380.28
     47.4700	  549.00	  544.90	-1727.89	  380.26
     47.5700	  553.00	  561.69	-1740.69	  380.25
     47.6700	  605.00	  581.11	-1708.11	  380.23
     47.7700	  595.00	  599.02	-1736.02	  380.22
     47.8700	  561.00	  609.59	-1780.58	  380.21
     47.9700	  592.00	  608.43	-1748.42	  380.20
     48.0700	  630.00	  596.81	-1698.80	  380.19
     48.1700	  559.00	  580.53	-1753.52	  380.18
     48.2700	  578.00	  565.22	-1719.21	  380.18
     48.3700	  545.00	  553.99	-1740.98	  380.17
     48.4700	  573.00	  547.69	-1706.69	  380.17
     48.5700	  556.00	  545.74	-1721.73	  380.17
     48.6700	  516.00	  547.04	-1763.03	  380.17
     48.7700	  532.00	  550.69	-1750.69	  380.17
     48.8700	  554.00	  556.25	-1734.25	  380.18
     48.9700	  546.00	  563.79	-1749.78	  380.18
     49.0700	  596.00	  573.99	-1709.98	  380.19
     49.1700	  598.00	  588.53	-1722.53	  380.19
     49.2700	  628.00	  610.96	-1714.95	  380.20
     49.3700	  655.00	  648.00	-1725.00	  380.21
     49.4700	  721.00	  711.34	-1722.33	  380.23
     49.5700	  786.00	  816.63	-1762.63	  380.24
     49.6700	  930.00	  982.72	-1784.71	  380.25
     49.7700	 1120.00	 1223.33	-1835.33	  380.27
     49.8700	 1542.00	 1536.56	-1726.56	  380.29
     49.9700	 1847.00	 1892.70	-1777.69	  380.31
     50.0700	 2272.00	 2225.26	-1685.25	  380.33
     50.1700	 2525.00	 2435.91	-1642.91	  380.35
     50.2700	 2491.00	 2437.74	-1678.73	  380.37
     50.3700	 2290.00	 2227.70	-1669.70	  380.39
     50.4700	 1824.00	 1893.66	-1801.65	  380.42
     50.5700	 1482.00	 1538.44	-1788.44	  380.45
     50.6700	 1003.00	 1229.75	-1958.74	  380.48
     50.7700	  836.00	  996.83	-1892.82	  380.50
     50.8700	  760.00	  840.65	-1812.64	  380.54
     50.9700	  664.00	  745.70	-1813.69	  380.57
     51.0700	  659.00	  690.81	-1763.80	  380.60
     51.1700	  615.00	  657.08	-1774.07	  380.64
     51.2700	  622.00	  632.23	-1742.22	  380.67
     51.3700	  600.00	  611.16	-1743.15	  380.71
     51.4700	  555.00	  593.07	-1770.06	  380.75
     51.5700	  558.00	  578.33	-1752.32	  380.79
     51.6700	  573.00	  567.13	-1726.12	  380.83
     51.7700	  560.00	  559.18	-1731.17	  380.87
     51.8700	  542.00	  553.81	-1743.81	  380.91
     51.9700	  559.00	  550.30	-1723.30	  380.96
     52.0700	  583.00	  548.09	-1697.09	  381.01
     52.1700	  535.00	  547.11	-1744.11	  381.05
     52.2700	  576.00	  546.83	-1702.82	  381.10
     52.3700	  564.00	  547.60	-1715.59	  381.15
     52.4700	  519.00	  549.89	-1762.89	  381.20
     52.5700	  592.00	  554.79	-1694.79	  381.25
     52.6700	  575.00	  564.57	-1721.57	  381.31
     52.7700	  560.00	  583.31	-1755.30	  381.36
     52.8700	  644.00	  617.19	-1705.18	  381.42
     52.9700	  734.00	  673.66	-1671.65	  381.47
     53.0700	  859.00	  758.72	-1631.71	  381.53
     53.1700	  958.00	  872.50	-1646.50	  381.59
     53.2700	 1032.00	 1004.57	-1704.56	  381.65
     53.3700	 1137.00	 1130.98	-1725.98	  381.71
     53.4700	 1156.00	 1216.62	-1792.62	  381.78
     53.5700	 1166.00	 1228.78	-1794.78	  381.84
     53.6700	 1048.00	 1161.59	-1845.59	  381.90
     53.7700	  951.00	 1042.36	-1823.35	  381.97
     53.8700	  890.00	  908.55	-1750.54	  382.04
     53.9700	  787.00	  788.03	-1733.02	  382.10
     54.0700	  651.00	  694.86	-1775.85	  382.17
     54.1700	  670.00	  631.33	-1693.32	  382.24
     54.2700	  629.00	  592.48	-1695.47	  382.31
     54.3700	  608.00	  570.79	-1694.78	  382.39
     54.4700	  621.00	  559.48	-1670.48	  382.46
     54.5700	  592.00	  553.84	-1693.83	  382.53
     54.6700	  599.00	  551.21	-1684.20	  382.61
     54.7700	  596.00	  550.22	-1686.22	  382.68
     54.8700	  605.00	  550.28	-1677.27	  382.76
     54.9700	  532.00	  551.14	-1751.14	  382.84
     55.0700	  558.00	  552.75	-1726.74	  382.92
     55.1700	  572.00	  555.12	-1715.11	  383.00
     55.2700	  570.00	  558.28	-1720.27	  383.08
     55.3700	  582.00	  562.37	-1712.36	  383.16
     55.4700	  542.00	  567.61	-1757.61	  383.25
     55.5700	  571.00	  574.41	-1735.40	  383.33
     55.6700	  573.00	  583.57	-1742.56	  383.41
     55.7700	  569.00	  596.77	-1759.76	  383.50
     55.8700	  615.00	  617.34	-1734.33	  383.59
     55.9700	  641.00	  651.52	-1742.52	  383.68
     56.0700	  656.00	  709.70	-1785.70	  383.76
     56.1700	  746.00	  806.83	-1792.82	  383.85
     56.2700	  838.00	  960.69	-1854.68	  383.94
     56.3700	 1089.00	 1186.54	-1829.53	  384.03
     56.4700	 1395.00	 1488.67	-1825.67	  384.13
     56.5700	 1773.00	 1850.74	-1809.73	  384.22
     56.6700	 2121.00	 2227.92	-1838.91	  384.31
     56.7700	 2516.00	 2545.15	-1761.14	  384.41
     56.8700	 2689.00	 2710.95	-1753.94	  384.50
     56.9700	 2633.00	 2663.81	-1762.80	  384.60
     57.0700	 2376.00	 2421.94	-1777.93	  384.70
     57.1700	 2055.00	 2068.44	-1745.44	  384.79
     57.2700	 1660.00	 1692.29	-1764.28	  384.89
     57.3700	 1299.00	 1355.90	-1788.89	  384.99
     57.4700	 1091.00	 1090.71	-1731.70	  385.09
     57.5700	  875.00	  902.89	-1759.88	  385.19
     57.6700	  754.00	  782.50	-1760.49	  385.29
     57.7700	  693.00	  712.95	-1751.94	  385.40
     57.8700	  707.00	  678.64	-1703.63	  385.50
     57.9700	  693.00	  668.56	-1707.56	  385.60
     58.0700	  723.00	  676.92	-1685.92	  385.71
     58.1700	  684.00	  701.85	-1749.85	  385.81
     58.2700	  746.00	  743.50	-1729.49	  385.92
     58.3700	  841.00	  802.13	-1693.13	  386.02
     58.4700	  941.00	  876.45	-1667.44	  386.13
     58.5700	 1094.00	  961.93	-1599.92	  386.24
     58.6700	 1251.00	 1050.30	-1531.30	  386.35
     58.7700	 1358.00	 1131.82	-1505.82	  386.46
     58.8700	 1516.00	 1199.62	-1415.61	  386.57
     58.9700	 1578.00	 1249.72	-1403.71	  386.68
     59.0700	 1584.00	 1276.81	-1424.80	  386.79
     59.1700	 1566.00	 1276.09	-1442.09	  386.90
     59.2700	 1459.00	 1251.13	-1524.13	  387.01
     59.3700	 1378.00	 1214.44	-1568.43	  387.12
     59.4700	 1193.00	 1179.01	-1718.00	  387.24
     59.5700	 1249.00	 1153.78	-1636.77	  387.35
     59.6700	 1124.00	 1146.40	-1754.39	  387.47
     59.7700	 1110.00	 1165.54	-1787.54	  387.58
     59.8700	 1287.00	 1216.70	-1661.69	  387.70
     59.9700	 1373.00	 1295.92	-1654.92	  387.81
     60.0700	 1485.00	 1387.09	-1634.08	  387.93
     60.1700	 1561.00	 1462.50	-1633.49	  388.04
     60.2700	 1576.00	 1489.83	-1645.82	  388.16
     60.3700	 1542.00	 1448.84	-1638.83	  388.28
     60.4700	 1397.00	 1345.84	-1680.84	  388.40
     60.5700	 1277.00	 1207.09	-1662.09	  388.52
     60.6700	 1071.00	 1060.95	-1721.95	  388.64
     60.7700	  926.00	  928.18	-1734.17	  388.76
     60.8700	  736.00	  820.53	-1816.53	  388.88
     60.9700	  744.00	  742.11	-1730.10	  389.00
     61.0700	  654.00	  691.86	-1769.85	  389.12
     61.1700	  650.00	  666.62	-1748.61	  389.24
     61.2700	  587.00	  663.83	-1808.82	  389.36
     61.3700	  636.00	  683.17	-1779.16	  389.48
     61.4700	  710.00	  726.75	-1748.74	  389.60
     61.5700	  798.00	  797.80	-1731.79	  389.73
     61.6700	  820.00	  898.30	-1810.30	  389.85
     61.7700	  965.00	 1025.94	-1792.94	  389.97
     61.8700	 1118.00	 1171.42	-1785.41	  390.10
     61.9700	 1177.00	 1316.72	-1871.72	  390.22
     62.0700	 1339.00	 1435.10	-1828.09	  390.35
     62.1700	 1443.00	 1496.23	-1785.22	  390.47
     62.2700	 1390.00	 1480.18	-1822.18	  390.59
     62.3700	 1342.00	 1391.79	-1781.78	  390.72
     62.4700	 1125.00	 1256.91	-1863.90	  390.85
     62.5700	 1061.00	 1105.80	-1776.79	  390.97
     62.6700	  923.00	  962.00	-1771.00	  391.10
     62.7700	  743.00	  839.93	-1828.92	  391.22
     62.8700	  710.00	  745.48	-1767.48	  391.35
     62.9700	  646.00	  678.11	-1764.11	  391.48
     63.0700	  603.00	  633.40	-1762.39	  391.60
     63.1700	  596.00	  605.52	-1741.51	  391.73
     63.2700	  589.00	  589.13	-1732.12	  391.86
     63.3700	  552.00	  580.24	-1760.24	  391.98
     63.4700	  564.00	  576.51	-1744.50	  392.11
     63.5700	  570.00	  577.05	-1739.04	  392.24
     63.6700	  540.00	  582.26	-1774.26	  392.37
     63.7700	  609.00	  593.52	-1716.52	  392.49
     63.8700	  612.00	  612.87	-1732.86	  392.62
     63.9700	  665.00	  642.40	-1709.40	  392.75
     64.0700	  712.00	  683.56	-1703.56	  392.88
     64.1700	  759.00	  736.07	-1709.07	  393.01
     64.2700	  853.00	  797.06	-1676.06	  393.13
     64.3700	  944.00	  860.46	-1648.46	  393.26
     64.4700	 1002.00	  916.97	-1646.97	  393.39
     64.5700	  994.00	  955.19	-1693.18	  393.52
     64.6700	  986.00	  967.69	-1713.68	  393.65
     64.7700	 1020.00	  952.28	-1664.27	  393.77
     64.8700	  994.00	  914.18	-1652.17	  393.90
     64.9700	  909.00	  862.29	-1685.28	  394.03
     65.0700	  826.00	  806.10	-1712.10	  394.16
     65.1700	  788.00	  753.18	-1697.18	  394.29
     65.2700	  729.00	  707.73	-1710.72	  394.42
     65.3700	  674.00	  670.85	-1728.84	  394.54
     65.4700	  638.00	  641.74	-1735.73	  394.67
     65.5700	  598.00	  619.07	-1753.06	  394.80
     65.6700	  643.00	  601.65	-1690.65	  394.93
     65.7700	  570.00	  588.57	-1750.57	  395.06
     65.8700	  625.00	  579.07	-1686.07	  395.18
     65.9700	  591.00	  572.57	-1713.56	  395.31
     66.0700	  574.00	  568.57	-1726.56	  395.44
     66.1700	  507.00	  566.65	-1791.64	  395.57
     66.2700	  550.00	  566.43	-1748.42	  395.69
     66.3700	  574.00	  567.66	-1725.65	  395.82
     66.4700	  536.00	  570.17	-1766.16	  395.95
     66.5700	  545.00	  574.15	-1761.15	  396.08
     66.6700	  550.00	  579.78	-1761.77	  396.20
     66.7700	  560.00	  588.06	-1760.05	  396.33
     66.8700	  605.00	  600.70	-1727.69	  396.45
     66.9700	  688.00	  620.69	-1664.68	  396.58
     67.0700	  637.00	  652.72	-1747.71	  396.71
     67.1700	  689.00	  703.48	-1746.48	  396.83
     67.2700	  711.00	  781.43	-1802.43	  396.96
     67.3700	  915.00	  895.67	-1712.67	  397.08
     67.4700	 1077.00	 1053.71	-1708.70	  397.21
     67.5700	 1279.00	 1257.96	-1710.95	  397.33
     67.6700	 1525.00	 1502.72	-1709.71	  397.46
     67.7700	 1769.00	 1771.70	-1734.70	  397.58
     67.8700	 1963.00	 2035.93	-1804.92	  397.70
     67.9700	 2297.00	 2255.08	-1690.08	  397.83
     68.0700	 2393.00	 2384.11	-1723.10	  397.95
     68.1700	 2422.00	 2389.93	-1699.93	  398.07
     68.2700	 2266.00	 2270.94	-1736.94	  398.19
     68.3700	 2143.00	 2058.08	-1647.07	  398.32
     68.4700	 1781.00	 1796.39	-1747.39	  398.44
     68.5700	 1568.00	 1526.79	-1690.78	  398.56
     68.6700	 1275.00	 1279.38	-1736.37	  398.68
     68.7700	 1074.00	 1071.76	-1729.76	  398.80
     68.8700	  896.00	  910.30	-1746.29	  398.92
     68.9700	  769.00	  793.02	-1756.01	  399.04
     69.0700	  710.00	  712.78	-1734.77	  399.16
     69.1700	  672.00	  660.53	-1720.52	  399.28
     69.2700	  668.00	  627.69	-1691.68	  399.39
     69.3700	  579.00	  607.37	-1760.36	  399.51
     69.4700	  575.00	  594.72	-1751.71	  399.63
     69.5700	  597.00	  586.62	-1721.61	  399.75
     69.6700	  562.00	  581.22	-1751.22	  399.86
     69.7700	  539.00	  577.51	-1770.51	  399.98
     69.8700	  574.00	  574.96	-1732.95	  400.09
     69.9700	  634.00	  573.28	-1671.27	  400.21
     70.0700	  543.00	  572.35	-1761.35	  400.32
     70.1700	  577.00	  572.15	-1727.14	  400.44
     70.2700	  578.00	  572.65	-1726.65	  400.55
     70.3700	  554.00	  573.99	-1751.98	  400.66
     70.4700	  558.00	  576.40	-1750.40	  400.77
     70.5700	  527.00	  580.37	-1785.37	  400.89
     70.6700	  549.00	  586.79	-1769.78	  401.00
     70.7700	  572.00	  597.17	-1757.17	  401.11
     70.8700	  594.00	  613.97	-1751.97	  401.22
     70.9700	  599.00	  640.76	-1773.76	  401.33
     71.0700	  654.00	  682.35	-1760.34	  401.43
     71.1700	  721.00	  744.45	-1755.45	  401.54
     71.2700	  736.00	  832.81	-1828.80	  401.65
     71.3700	  959.00	  951.74	-1724.73	  401.76
     71.4700	 1139.00	 1102.17	-1695.16	  401.86
     71.5700	 1221.00	 1280.70	-1791.69	  401.97
     71.6700	 1463.00	 1474.76	-1743.75	  402.07
     71.7700	 1647.00	 1666.85	-1751.85	  402.17
     71.8700	 1872.00	 1831.97	-1691.97	  402.28
     71.9700	 1857.00	 1941.60	-1816.59	  402.38
     72.0700	 2001.00	 1972.18	-1703.18	  402.48
     72.1700	 1880.00	 1916.38	-1768.37	  402.58
     72.2700	 1787.00	 1787.73	-1732.73	  402.68
     72.3700	 1601.00	 1612.66	-1743.65	  402.78
     72.4700	 1550.00	 1418.72	-1600.71	  402.88
     72.5700	 1251.00	 1229.62	-1710.62	  402.98
     72.6700	 1146.00	 1060.63	-1646.63	  403.08
     72.7700	 1034.00	  920.25	-1618.25	  403.17
     72.8700	  922.00	  810.73	-1620.72	  403.27
     72.9700	  921.00	  729.83	-1540.82	  403.36
     73.0700	  857.00	  672.77	-1547.76	  403.46
     73.1700	  758.00	  633.95	-1607.94	  403.55
     73.2700	  708.00	  608.13	-1632.13	  403.64
     73.3700	  675.00	  591.11	-1648.10	  403.73
     73.4700	  623.00	  579.81	-1688.80	  403.82
     73.5700	  578.00	  572.20	-1726.19	  403.91
     73.6700	  559.00	  567.02	-1740.01	  404.00
     73.7700	  635.00	  563.52	-1660.52	  404.09
     73.8700	  599.00	  561.29	-1694.28	  404.18
     73.9700	  575.00	  560.05	-1717.05	  404.27
     74.0700	  590.00	  559.62	-1701.62	  404.35
     74.1700	  601.00	  559.82	-1690.81	  404.43
     74.2700	  620.00	  560.43	-1672.42	  404.52
     74.3700	  631.00	  561.19	-1662.18	  404.60
     74.4700	  608.00	  561.80	-1685.80	  404.68
     74.5700	  664.00	  561.96	-1629.96	  404.76
     74.6700	  632.00	  561.44	-1661.44	  404.84
     74.7700	  695.00	  560.19	-1597.18	  404.92
     74.8700	  633.00	  558.36	-1657.35	  405.00
     74.9700	  645.00	  556.25	-1643.24	  405.08
     75.0700	  598.00	  554.20	-1688.20	  405.15
     75.1700	  580.00	  552.57	-1704.57	  405.23
     75.2700	  630.00	  551.65	-1653.65	  405.30
     75.3700	  538.00	  551.90	-1745.89	  405.38
     75.4700	  538.00	  553.73	-1747.73	  405.45
     75.5700	  566.00	  557.59	-1723.59	  405.52
     75.6700	  565.00	  563.86	-1730.85	  405.59
     75.7700	  578.00	  573.16	-1727.15	  405.66
     75.8700	  571.00	  585.66	-1746.66	  405.73
     75.9700	  644.00	  601.33	-1689.33	  405.79
     76.0700	  584.00	  619.67	-1767.66	  405.86
     76.1700	  614.00	  639.61	-1757.61	  405.92
     76.2700	  640.00	  659.51	-1751.50	  405.99
     76.3700	  709.00	  677.15	-1700.15	  406.05
     76.4700	  692.00	  690.00	-1729.99	  406.11
     76.5700	  663.00	  695.75	-1764.74	  406.17
     76.6700	  688.00	  693.18	-1737.18	  406.23
     76.7700	  679.00	  682.82	-1735.81	  406.29
     76.8700	  638.00	  666.60	-1760.59	  406.35
     76.9700	  655.00	  646.88	-1723.87	  406.40
     77.0700	  631.00	  626.40	-1727.39	  406.46
     77.1700	  591.00	  606.86	-1747.85	  406.51
     77.2700	  563.00	  589.55	-1758.54	  406.56
     77.3700	  601.00	  575.16	-1706.15	  406.61
     77.4700	  531.00	  563.86	-1764.85	  406.66
     77.5700	  540.00	  555.43	-1747.42	  406.71
     77.6700	  517.00	  549.43	-1764.43	  406.76
     77.7700	  529.00	  545.34	-1748.33	  406.81
     77.8700	  544.00	  542.63	-1730.62	  406.85
     77.9700	  545.00	  540.88	-1727.87	  406.90
     78.0700	  524.00	  539.76	-1747.76	  406.94
     78.1700	  474.00	  539.05	-1797.05	  406.98
     78.2700	  527.00	  538.60	-1743.60	  407.02
     78.3700	  544.00	  538.32	-1726.32	  407.06
     78.4700	  502.00	  538.17	-1768.16	  407.10
     78.5700	  542.00	  538.11	-1728.10	  407.14
     78.6700	  562.00	  538.15	-1708.14	  407.17
     78.7700	  525.00	  538.29	-1745.28	  407.21
     78.8700	  476.00	  538.56	-1794.55	  407.24
     78.9700	  505.00	  538.98	-1765.97	  407.27
     79.0700	  517.00	  539.60	-1754.59	  407.31
     79.1700	  535.00	  540.46	-1737.46	  407.34
     79.2700	  512.00	  541.63	-1761.62	  407.36
     79.3700	  532.00	  542.97	-1742.97	  407.39
     79.4700	  550.00	  544.92	-1726.91	  407.42
     79.5700	  567.00	  547.35	-1712.35	  407.44
     79.6700	  528.00	  550.36	-1754.35	  407.46
     79.7700	  552.00	  554.04	-1734.04	  407.49
     79.8700	  492.00	  558.54	-1798.53	  407.51
     79.9700	  520.00	  564.02	-1776.01	  407.53
     80.0700	  530.00	  570.72	-1772.72	  407.54
     80.1700	  531.00	  578.95	-1779.94	  407.56
     80.2700	  558.00	  589.02	-1763.02	  407.58
     80.3700	  593.00	  601.23	-1740.22	  407.59
     80.4700	  596.00	  615.68	-1751.68	  407.60
     80.5700	  606.00	  632.23	-1758.22	  407.61
     80.6700	  633.00	  650.38	-1749.37	  407.62
     80.7700	  624.00	  669.25	-1777.24	  407.63
     80.8700	  689.00	  687.60	-1730.59	  407.64
     80.9700	  674.00	  704.02	-1762.01	  407.65
     81.0700	  722.00	  717.17	-1727.17	  407.65
     81.1700	  743.00	  726.04	-1715.03	  407.65
     81.2700	  758.00	  729.95	-1703.95	  407.66
     81.3700	  743.00	  728.66	-1717.66	  407.66
     81.4700	  726.00	  722.37	-1728.36	  407.66
     81.5700	  794.00	  711.71	-1649.70	  407.65
     81.6700	  732.00	  697.54	-1697.54	  407.65
     81.7700	  803.00	  680.87	-1609.86	  407.64
     81.8700	  640.00	  662.75	-1754.74	  407.64
     81.9700	  698.00	  644.32	-1678.31	  407.63
     82.0700	  634.00	  626.57	-1724.57	  407.62
     82.1700	  644.00	  610.24	-1698.23	  407.61
     82.2700	  662.00	  595.90	-1665.89	  407.60
     82.3700	  629.00	  583.72	-1686.72	  407.58
     82.4700	  563.00	  573.75	-1742.74	  407.57
     82.5700	  638.00	  565.91	-1659.90	  407.55
     82.6700	  599.00	  560.03	-1693.03	  407.54
     82.7700	  559.00	  556.02	-1729.01	  407.52
     82.8700	  551.00	  553.68	-1734.67	  407.50
     82.9700	  531.00	  552.87	-1753.86	  407.47
     83.0700	  581.00	  553.48	-1704.48	  407.45
     83.1700	  555.00	  555.41	-1732.41	  407.43
     83.2700	  520.00	  558.54	-1770.53	  407.40
     83.3700	  536.00	  562.70	-1758.69	  407.37
     83.4700	  536.00	  567.66	-1763.65	  407.34
     83.5700	  539.00	  573.08	-1766.08	  407.31
     83.6700	  579.00	  578.55	-1731.54	  407.28
     83.7700	  538.00	  583.52	-1777.52	  407.25
     83.8700	  560.00	  587.44	-1759.43	  407.21
     83.9700	  600.00	  589.72	-1721.71	  407.17
     84.0700	  558.00	  589.98	-1763.98	  407.14
     84.1700	  554.00	  588.14	-1766.13	  407.10
     84.2700	  593.00	  584.46	-1723.45	  407.05
     84.3700	  561.00	  579.42	-1750.41	  407.01
     84.4700	  581.00	  573.60	-1724.59	  406.97
     84.5700	  554.00	  567.51	-1745.51	  406.92
     84.6700	  576.00	  561.61	-1717.60	  406.88
     84.7700	  516.00	  556.20	-1772.19	  406.83
     84.8700	  498.00	  551.49	-1785.48	  406.78
     84.9700	  535.00	  547.58	-1744.57	  406.73
     85.0700	  507.00	  544.48	-1769.47	  406.67
     85.1700	  525.00	  542.14	-1749.14	  406.62
     85.2700	  516.00	  540.48	-1756.47	  406.56
     85.3700	  548.00	  539.39	-1723.38	  406.51
     85.4700	  520.00	  538.77	-1750.76	  406.45
     85.5700	  537.00	  538.54	-1733.53	  406.39
     85.6700	  542.00	  538.64	-1728.63	  406.33
     85.7700	  514.00	  539.05	-1757.05	  406.26
     85.8700	  535.00	  539.78	-1736.77	  406.20
     85.9700	  510.00	  540.85	-1762.84	  406.13
     86.0700	  542.00	  542.33	-1732.33	  406.06
     86.1700	  503.00	  544.33	-1773.33	  406.00
     86.2700	  533.00	  546.96	-1745.95	  405.92
     86.3700	  534.00	  550.35	-1748.34	  405.85
     86.4700	  576.00	  554.63	-1710.62	  405.78
     86.5700	  536.00	  559.90	-1755.89	  405.70
     86.6700	  599.00	  566.20	-1699.19	  405.63
     86.7700	  603.00	  573.47	-1702.46	  405.55
     86.8700	  590.00	  581.19	-1723.18	  405.47
     86.9700	  639.00	  589.64	-1682.63	  405.39
     87.0700	  601.00	  598.01	-1729.00	  405.31
     87.1700	  546.00	  605.66	-1791.66	  405.22
     87.2700	  630.00	  611.89	-1713.88	  405.14
     87.3700	  668.00	  615.98	-1679.97	  405.05
     87.4700	  631.00	  617.40	-1718.39	  404.96
     87.5700	  642.00	  615.96	-1705.95	  404.87
     87.6700	  669.00	  611.89	-1674.89	  404.78
     87.7700	  629.00	  605.80	-1708.79	  404.69
     87.8700	  616.00	  598.46	-1714.45	  404.59
     87.9700	  635.00	  590.67	-1687.67	  404.49
     88.0700	  610.00	  583.19	-1705.18	  404.40
     88.1700	  619.00	  576.64	-1689.63	  404.30
     88.2700	  634.00	  571.49	-1669.49	  404.20
     88.3700	  582.00	  568.08	-1718.07	  404.10
     88.4700	  628.00	  566.56	-1670.56	  403.99
     88.5700	  592.00	  566.94	-1706.93	  403.89
     88.6700	  550.00	  569.07	-1751.07	  403.78
     88.7700	  571.00	  572.69	-1733.68	  403.67
     88.8700	  572.00	  577.41	-1737.41	  403.56
     88.9700	  589.00	  582.77	-1725.76	  403.45
     89.0700	  579.00	  588.20	-1741.20	  403.34
     89.1700	  586.00	  593.13	-1739.12	  403.23
     89.2700	  625.00	  596.93	-1703.93	  403.11
     89.3700	  648.00	  599.09	-1683.08	  403.00
     89.4700	  572.00	  599.25	-1759.24	  402.88
     89.5700	  610.00	  597.35	-1719.34	  402.76
     89.6700	  588.00	  593.60	-1737.59	  402.64
     89.7700	  593.00	  588.43	-1727.42	  402.51
     89.8700	  543.00	  582.35	-1771.34	  402.39
     89.9700	  560.00	  575.85	-1747.85	  402.27
     90.0700	  541.00	  569.38	-1760.37	  402.14
     90.1700	  521.00	  563.27	-1774.26	  402.01
     90.2700	  530.00	  557.76	-1759.76	  401.88
     90.3700	  544.00	  553.02	-1741.01	  401.75
     90.4700	  522.00	  549.10	-1759.09	  401.62
     90.5700	  505.00	  545.99	-1772.99	  401.48
     90.6700	  524.00	  543.65	-1751.64	  401.35
     90.7700	  531.00	  541.97	-1742.97	  401.21
     90.8700	  520.00	  540.87	-1752.87	  401.07
     90.9700	  529.00	  540.27	-1743.26	  400.93
     91.0700	  485.00	  540.09	-1787.08	  400.79
     91.1700	  505.00	  540.29	-1767.29	  400.65
     91.2700	  512.00	  540.88	-1760.88	  400.51
     91.3700	  514.00	  541.90	-1759.89	  400.36
     91.4700	  537.00	  543.41	-1738.41	  400.22
     91.5700	  519.00	  545.54	-1758.54	  400.07
     91.6700	  556.00	  548.45	-1724.44	  399.92
     91.7700	  521.00	  552.30	-1763.30	  399.77
     91.8700	  536.00	  557.31	-1753.30	  399.62
     91.9700	  527.00	  563.66	-1768.65	  399.46
     92.0700	  537.00	  571.30	-1766.30	  399.31
     92.1700	  587.00	  580.81	-1725.81	  399.15
     92.2700	  584.00	  592.00	-1740.00	  398.99
     92.3700	  606.00	  604.82	-1730.81	  398.84
     92.4700	  597.00	  619.08	-1754.08	  398.68
     92.5700	  632.00	  634.50	-1734.49	  398.51
     92.6700	  674.00	  650.63	-1708.62	  398.35
     92.7700	  708.00	  666.91	-1690.90	  398.19
     92.8700	  675.00	  682.69	-1739.69	  398.02
     92.9700	  769.00	  697.32	-1660.31	  397.86
     93.0700	  718.00	  710.24	-1724.23	  397.69
     93.1700	  762.00	  721.18	-1691.17	  397.52
     93.2700	  749.00	  730.24	-1713.24	  397.35
     93.3700	  746.00	  737.89	-1723.88	  397.18
     93.4700	  813.00	  744.76	-1663.76	  397.01
     93.5700	  783.00	  751.58	-1700.57	  396.83
     93.6700	  825.00	  758.97	-1665.96	  396.66
     93.7700	  825.00	  767.51	-1674.50	  396.48
     93.8700	  842.00	  777.67	-1667.67	  396.30
     93.9700	  854.00	  789.90	-1667.89	  396.12
     94.0700	  843.00	  804.48	-1693.47	  395.94
     94.1700	  835.00	  821.46	-1718.45	  395.76
     94.2700	  901.00	  840.51	-1671.51	  395.58
     94.3700	  918.00	  860.87	-1674.86	  395.40
     94.4700	  821.00	  881.30	-1792.30	  395.21
     94.5700	  873.00	  900.17	-1759.16	  395.02
     94.6700	  923.00	  915.54	-1724.53	  394.84
     94.7700	  954.00	  925.45	-1703.44	  394.65
     94.8700	  903.00	  928.22	-1757.21	  394.46
     94.9700	  930.00	  922.91	-1724.91	  394.27
     95.0700	  923.00	  909.61	-1718.60	  394.08
     95.1700	  874.00	  889.35	-1747.35	  393.88
     95.2700	  840.00	  863.90	-1755.89	  393.69
     95.3700	  819.00	  835.34	-1748.33	  393.50
     95.4700	  769.00	  805.80	-1768.79	  393.30
     95.5700	  765.00	  777.33	-1744.33	  393.10
     95.6700	  736.00	  751.80	-1747.80	  392.90
     95.7700	  717.00	  730.88	-1745.87	  392.70
     95.8700	  697.00	  716.05	-1751.04	  392.50
     95.9700	  669.00	  708.61	-1771.60	  392.30
     96.0700	  760.00	  709.68	-1681.67	  392.10
     96.1700	  690.00	  720.17	-1762.16	  391.90
     96.2700	  695.00	  740.79	-1777.78	  391.69
     96.3700	  714.00	  771.97	-1789.96	  391.49
     96.4700	  862.00	  813.80	-1683.79	  391.28
     96.5700	  862.00	  865.93	-1735.93	  391.07
     96.6700	  952.00	  927.48	-1707.47	  390.86
     96.7700	 1007.00	  996.91	-1721.91	  390.66
     96.8700	 1095.00	 1072.01	-1709.01	  390.44
     96.9700	 1114.00	 1149.85	-1767.84	  390.23
     97.0700	 1208.00	 1226.82	-1750.82	  390.02
     97.1700	 1288.00	 1298.76	-1742.75	  389.81
     97.2700	 1370.00	 1361.09	-1723.08	  389.60
     97.3700	 1368.00	 1409.26	-1773.25	  389.38
     97.4700	 1484.00	 1439.36	-1687.36	  389.16
     97.5700	 1405.00	 1448.88	-1775.87	  388.95
     97.6700	 1447.00	 1437.26	-1722.25	  388.73
     97.7700	 1449.00	 1406.03	-1689.02	  388.51
     97.8700	 1294.00	 1358.36	-1796.35	  388.29
     97.9700	 1284.00	 1298.40	-1746.39	  388.07
     98.0700	 1176.00	 1230.56	-1786.55	  387.85
     98.1700	 1119.00	 1159.21	-1772.20	  387.63
     98.2700	 1130.00	 1088.30	-1690.29	  387.41
     98.3700	 1011.00	 1021.27	-1742.26	  387.19
     98.4700	  944.00	  961.02	-1749.01	  386.96
     98.5700	  887.00	  909.85	-1754.84	  386.74
     98.6700	  797.00	  869.53	-1804.52	  386.52
     98.7700	  794.00	  841.42	-1779.41	  386.29
     98.8700	  773.00	  826.46	-1785.45	  386.06
     98.9700	  744.00	  825.30	-1813.29	  385.84
     99.0700	  850.00	  838.35	-1720.34	  385.61
     99.1700	  783.00	  865.82	-1814.81	  385.38
     99.2700	  863.00	  907.74	-1776.73	  385.15
     99.3700	  927.00	  963.88	-1768.87	  384.92
     99.4700	 1031.00	 1033.72	-1734.71	  384.69
     99.5700	 1129.00	 1116.33	-1719.33	  384.46
     99.6700	 1213.00	 1210.33	-1729.33	  384.23
     99.7700	 1313.00	 1313.74	-1732.73	  384.00
     99.8700	 1404.00	 1423.85	-1751.84	  383.77
     99.9700	 1569.00	 1537.25	-1700.24	  383.54
    100.0700	 1664.00	 1649.83	-1717.83	  383.30
    100.1700	 1816.00	 1757.07	-1673.06	  383.07
    100.2700	 1843.00	 1854.35	-1743.35	  382.84
    100.3700	 1964.00	 1937.50	-1705.49	  382.60
    100.4700	 2033.00	 2003.19	-1702.19	  382.37
    100.5700	 2005.00	 2049.12	-1776.12	  382.13
    100.6700	 2134.00	 2073.84	-1671.84	  381.90
    100.7700	 2079.00	 2076.54	-1729.54	  381.66
    100.8700	 2069.00	 2057.04	-1720.04	  381.42
    100.9700	 2077.00	 2016.04	-1671.03	  381.19
    101.0700	 1942.00	 1955.49	-1745.49	  380.95
    101.1700	 1956.00	 1878.76	-1654.75	  380.71
    101.2700	 1894.00	 1790.35	-1628.34	  380.47
    101.3700	 1753.00	 1695.42	-1674.41	  380.24
    101.4700	 1605.00	 1599.08	-1726.07	  380.00
    101.5700	 1478.00	 1505.94	-1759.93	  379.76
    101.6700	 1437.00	 1419.67	-1714.66	  379.52
    101.7700	 1332.00	 1342.92	-1742.91	  379.28
    101.8700	 1272.00	 1277.30	-1737.30	  379.04
    101.9700	 1216.00	 1223.32	-1739.32	  378.81
    102.0700	 1204.00	 1180.52	-1708.52	  378.57
    102.1700	 1189.00	 1147.52	-1690.52	  378.33
    102.2700	 1104.00	 1122.25	-1750.24	  378.09
    102.3700	 1101.00	 1102.17	-1733.16	  377.85
    102.4700	 1067.00	 1084.51	-1749.51	  377.61
    102.5700	 1075.00	 1066.66	-1723.65	  377.37
    102.6700	 1088.00	 1046.43	-1690.43	  377.13
    102.7700	 1041.00	 1022.41	-1713.40	  376.89
    102.8700	  954.00	  994.02	-1772.02	  376.65
    102.9700	  966.00	  961.49	-1727.49	  376.41
    103.0700	  920.00	  925.58	-1737.57	  376.17
    103.1700	  912.00	  887.39	-1707.38	  375.93
    103.2700	  853.00	  848.15	-1727.14	  375.69
    103.3700	  792.00	  809.05	-1749.04	  375.46
    103.4700	  751.00	  771.20	-1752.20	  375.22
    103.5700	  766.00	  735.54	-1701.53	  374.98
    103.6700	  664.00	  702.77	-1770.77	  374.74
    103.7700	  700.00	  673.42	-1705.42	  374.50
    103.8700	  661.00	  647.76	-1718.75	  374.26
    103.9700	  601.00	  625.87	-1756.86	  374.03
    104.0700	  615.00	  607.65	-1724.65	  373.79
    104.1700	  619.00	  592.89	-1705.89	  373.55
    104.2700	  591.00	  581.27	-1722.27	  373.31
    104.3700	  553.00	  572.42	-1751.42	  373.08
    104.4700	  548.00	  565.95	-1749.95	  372.84
    104.5700	  548.00	  561.49	-1745.48	  372.61
    104.6700	  559.00	  558.67	-1731.66	  372.37
    104.7700	  535.00	  557.18	-1754.17	  372.14
    104.8700	  576.00	  556.74	-1712.74	  371.90
    104.9700	  567.00	  557.11	-1722.11	  371.67
    105.0700	  526.00	  558.13	-1764.13	  371.43
    105.1700	  522.00	  559.63	-1769.63	  371.20
    105.2700	  526.00	  561.53	-1767.52	  370.97
    105.3700	  530.00	  563.74	-1765.73	  370.74
    105.4700	  550.00	  566.27	-1748.26	  370.51
    105.5700	  533.00	  569.14	-1768.14	  370.28
    105.6700	  605.00	  572.43	-1699.42	  370.05
    105.7700	  530.00	  576.23	-1778.22	  369.82
    105.8700	  571.00	  580.68	-1741.67	  369.59
    105.9700	  576.00	  585.89	-1741.89	  369.36
    106.0700	  596.00	  591.96	-1727.96	  369.14
    106.1700	  566.00	  598.94	-1764.94	  368.91
    106.2700	  569.00	  606.83	-1769.82	  368.68
    106.3700	  564.00	  615.53	-1783.52	  368.46
    106.4700	  603.00	  624.90	-1753.90	  368.24
    106.5700	  601.00	  634.73	-1765.72	  368.01
    106.6700	  607.00	  644.71	-1769.71	  367.79
    106.7700	  618.00	  654.51	-1768.51	  367.57
    106.8700	  666.00	  663.74	-1729.73	  367.35
    106.9700	  678.00	  671.99	-1725.98	  367.13
    107.0700	  679.00	  678.88	-1731.87	  366.92
    107.1700	  672.00	  684.10	-1744.09	  366.70
    107.2700	  656.00	  687.48	-1763.47	  366.49
    107.3700	  708.00	  688.99	-1712.99	  366.27
    107.4700	  659.00	  688.82	-1761.81	  366.06
    107.5700	  639.00	  687.27	-1780.26	  365.85
    107.6700	  712.00	  684.76	-1704.75	  365.64
    107.7700	  690.00	  681.74	-1723.73	  365.43
    107.8700	  707.00	  678.62	-1703.62	  365.22
    107.9700	  707.00	  675.78	-1700.77	  365.01
    108.0700	  643.00	  673.47	-1762.47	  364.81
    108.1700	  667.00	  671.86	-1736.86	  364.60
    108.2700	  682.00	  670.99	-1720.99	  364.40
    108.3700	  668.00	  670.80	-1734.79	  364.20
    108.4700	  723.00	  671.10	-1680.10	  364.00
    108.5700	  713.00	  671.63	-1690.63	  363.80
    108.6700	  708.00	  672.05	-1696.04	  363.60
    108.7700	  674.00	  671.98	-1729.97	  363.41
    108.8700	  726.00	  671.04	-1677.04	  363.21
    108.9700	  603.00	  668.93	-1797.92	  363.02
    109.0700	  654.00	  665.44	-1743.43	  362.83
    109.1700	  639.00	  660.50	-1753.49	  362.64
    109.2700	  634.00	  654.16	-1752.15	  362.45
    109.3700	  669.00	  646.59	-1709.58	  362.27
    109.4700	  654.00	  638.06	-1716.05	  362.08
    109.5700	  601.00	  628.85	-1759.84	  361.90
    109.6700	  604.00	  619.27	-1747.27	  361.72
    109.7700	  628.00	  609.63	-1713.62	  361.54
    109.8700	  586.00	  600.19	-1746.18	  361.37
    109.9700	  628.00	  591.20	-1695.19	  361.19
    110.0700	  580.00	  582.84	-1734.83	  361.02
    110.1700	  541.00	  575.26	-1766.26	  360.85
    110.2700	  587.00	  568.57	-1713.57	  360.68
    110.3700	  558.00	  562.82	-1736.82	  360.51
    110.4700	  549.00	  558.02	-1741.01	  360.35
    110.5700	  580.00	  554.15	-1706.14	  360.19
    110.6700	  581.00	  551.15	-1702.15	  360.03
    110.7700	  572.00	  548.97	-1708.96	  359.87
    110.8700	  549.00	  547.52	-1730.51	  359.71
    110.9700	  540.00	  546.71	-1738.71	  359.56
    111.0700	  501.00	  546.47	-1777.47	  359.41
    111.1700	  580.00	  546.72	-1698.72	  359.26
    111.2700	  587.00	  547.39	-1692.38	  359.11
    111.3700	  563.00	  548.41	-1717.40	  358.97
    111.4700	  537.00	  549.74	-1744.74	  358.83
    111.5700	  541.00	  551.34	-1742.34	  358.69
    111.6700	  559.00	  553.18	-1726.18	  358.55
    111.7700	  552.00	  555.24	-1735.24	  358.42
    111.8700	  493.00	  557.51	-1796.50	  358.29
    111.9700	  567.00	  559.98	-1724.98	  358.16
    112.0700	  572.00	  562.67	-1722.66	  358.03
    112.1700	  578.00	  565.57	-1719.57	  357.91
    112.2700	  551.00	  568.72	-1749.71	  357.79
    112.3700	  595.00	  572.14	-1709.13	  357.67
    112.4700	  575.00	  575.87	-1732.86	  357.55
    112.5700	  594.00	  579.96	-1717.96	  357.44
    112.6700	  617.00	  584.48	-1699.47	  357.33
    112.7700	  628.00	  589.51	-1693.50	  357.23
    112.8700	  641.00	  595.16	-1686.15	  357.12
    112.9700	  678.00	  601.57	-1655.56	  357.02
    113.0700	  641.00	  608.94	-1699.93	  356.92
    113.1700	  704.00	  617.51	-1645.50	  356.83
    113.2700	  728.00	  627.58	-1631.58	  356.74
    113.3700	  713.00	  639.58	-1658.58	  356.65
    113.4700	  773.00	  654.01	-1613.00	  356.56
    113.5700	  765.00	  671.50	-1638.49	  356.48
    113.6700	  854.00	  692.85	-1570.84	  356.40
    113.7700	  872.00	  719.00	-1579.00	  356.33
    113.8700	  912.00	  751.13	-1571.12	  356.26
    113.9700	  950.00	  790.58	-1572.57	  356.19
    114.0700	  977.00	  838.94	-1593.94	  356.12
    114.1700	 1093.00	  898.01	-1537.01	  356.06
    114.2700	 1165.00	  969.77	-1536.76	  356.00
    114.3700	 1181.00	 1056.41	-1607.41	  355.95
    114.4700	 1270.00	 1160.20	-1622.19	  355.90
    114.5700	 1403.00	 1283.51	-1612.50	  355.85
    114.6700	 1543.00	 1428.63	-1617.62	  355.81
    114.7700	 1710.00	 1597.66	-1619.66	  355.77
    114.8700	 1940.00	 1792.52	-1584.51	  355.73
    114.9700	 2168.00	 2014.54	-1578.54	  355.70
    115.0700	 2328.00	 2264.61	-1668.61	  355.67
    115.1700	 2518.00	 2542.74	-1756.74	  355.65
    115.2700	 2889.00	 2848.03	-1691.03	  355.63
    115.3700	 3132.00	 3178.69	-1778.69	  355.61
    115.4700	 3373.00	 3531.60	-1890.60	  355.60
    115.5700	 3718.00	 3902.65	-1916.65	  355.59
    115.6700	 4028.00	 4286.34	-1990.33	  355.58
    115.7700	 4565.00	 4675.92	-1842.91	  355.58
    115.8700	 4759.00	 5063.65	-2036.65	  355.59
    115.9700	 5253.00	 5440.48	-1919.47	  355.60
    116.0700	 5635.00	 5796.64	-1893.63	  355.61
    116.1700	 5834.00	 6121.53	-2019.53	  355.63
    116.2700	 6389.00	 6404.33	-1747.33	  355.65
    116.3700	 6657.00	 6634.66	-1709.65	  355.67
    116.4700	 6777.00	 6803.09	-1758.09	  355.70
    116.5700	 6927.00	 6902.36	-1707.35	  355.74
    116.6700	 6868.00	 6927.97	-1791.97	  355.78
    116.7700	 6775.00	 6878.94	-1835.93	  355.82
    116.8700	 6803.00	 6757.82	-1686.81	  355.87
    116.9700	 6797.00	 6570.47	-1505.46	  355.92
    117.0700	 6538.00	 6325.13	-1519.12	  355.98
    117.1700	 6138.00	 6031.73	-1625.73	  356.05
    117.2700	 5583.00	 5700.97	-1849.96	  356.11
    117.3700	 5269.00	 5343.39	-1806.38	  356.19
    117.4700	 5004.00	 4969.29	-1697.28	  356.26
    117.5700	 4553.00	 4587.91	-1766.90	  356.35
    117.6700	 4352.00	 4207.66	-1587.65	  356.43
    117.7700	 3982.00	 3835.78	-1585.77	  356.53
    117.8700	 3636.00	 3478.14	-1574.13	  356.63
    117.9700	 3237.00	 3139.57	-1634.57	  356.73
    118.0700	 2968.00	 2823.52	-1587.51	  356.84
    118.1700	 2560.00	 2532.43	-1704.42	  356.95
    118.2700	 2250.00	 2267.68	-1749.67	  357.07
    118.3700	 2013.00	 2029.63	-1748.63	  357.19
    118.4700	 1786.00	 1818.02	-1764.01	  357.32
    118.5700	 1580.00	 1631.80	-1783.79	  357.46
    118.6700	 1335.00	 1469.53	-1866.53	  357.60
    118.7700	 1230.00	 1329.43	-1831.42	  357.75
    118.8700	 1141.00	 1209.42	-1800.41	  357.90
    118.9700	 1002.00	 1107.40	-1837.39	  358.06
    119.0700	  994.00	 1021.20	-1759.20	  358.22
    119.1700	  955.00	  948.78	-1725.77	  358.39
    119.2700	  881.00	  888.19	-1739.18	  358.57
    119.3700	  813.00	  837.66	-1756.65	  358.75
    119.4700	  692.00	  795.62	-1835.61	  358.94
    119.5700	  701.00	  760.67	-1791.66	  359.13
    119.6700	  659.00	  731.63	-1804.62	  359.33
    119.7700	  634.00	  707.49	-1805.48	  359.53
    119.8700	  600.00	  687.40	-1819.40	  359.75
    119.9700	  637.00	  670.66	-1765.66	  359.96
    120.0700	  616.00	  656.70	-1772.70	  360.19
    120.1700	  575.00	  645.06	-1802.05	  360.42
    120.2700	  560.00	  635.34	-1807.34	  360.66
    120.3700	  543.00	  627.27	-1816.27	  360.90
    120.4700	  577.00	  620.60	-1775.59	  361.15
    120.5700	  543.00	  615.14	-1804.13	  361.41
    120.6700	  596.00	  610.75	-1746.74	  361.67
    120.7700	  555.00	  607.31	-1784.30	  361.94
    120.8700	  557.00	  604.73	-1779.72	  362.22
    120.9700	  573.00	  602.94	-1761.93	  362.50
    121.0700	  591.00	  601.88	-1742.88	  362.79
    121.1700	  581.00	  601.51	-1752.51	  363.09
    121.2700	  571.00	  601.79	-1762.78	  363.39
    121.3700	  576.00	  602.65	-1758.65	  363.70
    121.4700	  590.00	  604.07	-1746.06	  364.02
    121.5700	  564.00	  605.99	-1773.98	  364.35
    121.6700	  578.00	  608.35	-1762.34	  364.68
    121.7700	  612.00	  611.08	-1731.08	  365.02
    121.8700	  584.00	  614.13	-1762.12	  365.37
    121.9700	  635.00	  617.38	-1714.37	  365.72
    122.0700	  648.00	  620.78	-1704.77	  366.08
    122.1700	  674.00	  624.21	-1682.21	  366.45
    122.2700	  618.00	  627.58	-1741.57	  366.83
    122.3700	  648.00	  630.77	-1714.77	  367.21
    122.4700	  612.00	  633.68	-1753.67	  367.61
    122.5700	  636.00	  636.19	-1732.18	  368.01
    122.6700	  674.00	  638.23	-1696.22	  368.41
    122.7700	  658.00	  639.71	-1713.71	  368.83
    122.8700	  719.00	  640.58	-1653.58	  369.25
    122.9700	  658.00	  640.81	-1714.81	  369.68
    123.0700	  672.00	  640.40	-1700.39	  370.12
    123.1700	  659.00	  639.36	-1712.36	  370.57
    123.2700	  633.00	  637.76	-1736.75	  371.03
    123.3700	  643.00	  635.64	-1724.63	  371.49
    123.4700	  622.00	  633.08	-1743.07	  371.96
    123.5700	  672.00	  630.15	-1690.15	  372.44
    123.6700	  681.00	  626.94	-1677.94	  372.93
    123.7700	  676.00	  623.53	-1679.52	  373.43
    123.8700	  630.00	  619.98	-1721.98	  373.94
    123.9700	  650.00	  616.38	-1698.37	  374.45
    124.0700	  598.00	  612.78	-1746.77	  374.97
    124.1700	  629.00	  609.24	-1712.23	  375.51
    124.2700	  646.00	  605.80	-1691.79	  376.05
    124.3700	  625.00	  602.51	-1709.50	  376.60
    124.4700	  585.00	  599.40	-1746.39	  377.16
    124.5700	  624.00	  596.49	-1704.48	  377.72
    124.6700	  588.00	  593.80	-1737.79	  378.30
    124.7700	  603.00	  591.34	-1720.33	  378.88
    124.8700	  591.00	  589.12	-1730.11	  379.48
    124.9700	  603.00	  498.61	-1627.61	  380.08
    125.0700	  575.00	  499.22	-1731.99	  380.70
    125.1700	  566.00	  499.85	-1731.99	  381.32
    125.2700	  585.00	  500.48	-1731.99	  381.95
    125.3700	  584.00	  501.12	-1731.99	  382.59
    125.4700	  532.00	  501.77	-1731.99	  383.24
    125.5700	  593.00	  502.43	-1731.99	  383.91
    125.6700	  557.00	  503.10	-1731.99	  384.58
    125.7700	  573.00	  503.78	-1731.99	  385.26
    125.8700	  564.00	  504.47	-1731.99	  385.95
    125.9700	  627.00	  505.17	-1731.99	  386.65
    126.0700	  582.00	  505.88	-1731.99	  387.36
    126.1700	  558.00	  506.60	-1731.99	  388.08
    126.2700	  559.00	  507.33	-1731.99	  388.81
    126.3700	  650.00	  508.08	-1731.99	  389.55
    126.4700	  610.00	  508.83	-1731.99	  390.30
    126.5700	  627.00	  509.59	-1731.99	  391.06
    126.6700	  616.00	  510.36	-1731.99	  391.83
    126.7700	  604.00	  511.14	-1731.99	  392.61
    126.8700	  605.00	  511.93	-1731.99	  393.40
    126.9700	  602.00	  512.74	-1731.99	  394.21
    127.0700	  607.00	  513.55	-1731.99	  395.02
    127.1700	  654.00	  514.37	-1731.99	  395.85
    127.2700	  619.00	  515.21	-1731.99	  396.68
    127.3700	  595.00	  516.06	-1731.99	  397.53
    127.4700	  666.00	  516.91	-1731.99	  398.38
    127.5700	  691.00	  517.78	-1731.99	  399.25
    127.6700	  709.00	  518.66	-1731.99	  400.13
    127.7700	  685.00	  519.55	-1731.99	  401.02
    127.8700	  675.00	  520.45	-1731.99	  401.92
    127.9700	  736.00	  521.37	-1731.99	  402.84
    128.0700	  787.00	  522.29	-1731.99	  403.76
    128.1700	  726.00	  523.23	-1731.99	  404.70
    128.2700	  785.00	  524.17	-1731.99	  405.65
    128.3700	  727.00	  525.13	-1731.99	  406.61
    128.4700	  840.00	  526.10	-1731.99	  407.58
    128.5700	    0.00	  527.09	-1731.99	  408.56
    128.6700	    0.00	  528.08	-1731.99	  409.55
     12.3043	        	        	        	        	       0	(  0  0  2)	  0  1
     24.8850	        	        	        	        	       0	(  0  0  4)	  0  1
     28.3311	        	        	        	        	       0	(  1  0  0)	  0  1
     29.0280	        	        	        	        	       0	(  1  0  1)	  0  1
     31.0335	        	        	        	        	       0	(  1  0  2)	  0  1
     34.1408	        	        	        	        	       0	(  1  0  3)	  0  1
     37.7814	        	        	        	        	       0	(  0  0  6)	  0  1
     38.1166	        	        	        	        	       0	(  1  0  4)	  0  1
     42.7653	        	        	        	        	       0	(  1  0  5)	  0  1
     47.9478	        	        	        	        	       0	(  1  0  6)	  0  1
     50.2675	        	        	        	        	       0	(  1  1  0)	  0  1
     51.1998	        	        	        	        	       0	(  0  0  8)	  0  1
     51.9898	        	        	        	        	       0	(  1  1  2)	  0  1
     53.5765	        	        	        	        	       0	(  1  0  7)	  0  1
     56.9359	        	        	        	        	       0	(  1  1  4)	  0  1
     58.7642	        	        	        	        	       0	(  2  0  0)	  0  1
     59.1556	        	        	        	        	       0	(  2  0  1)	  0  1
     59.6051	        	        	        	        	       0	(  1  0  8)	  0  1
     60.3206	        	        	        	        	       0	(  2  0  2)	  0  1
     62.2331	        	        	        	        	       0	(  2  0  3)	  0  1
     64.6278	        	        	        	        	       0	(  1  1  6)	  0  1
     64.8562	        	        	        	        	       0	(  2  0  4)	  0  1
     65.4247	        	        	        	        	       0	(  0  0 10)	  0  1
     66.0193	        	        	        	        	       0	(  1  0  9)	  0  1
     68.1492	        	        	        	        	       0	(  2  0  5)	  0  1
     72.0752	        	        	        	        	       0	(  2  0  6)	  0  1
     72.8331	        	        	        	        	       0	(  1  0 10)	  0  1
     74.6619	        	        	        	        	       0	(  1  1  8)	  0  1
     76.6076	        	        	        	        	       0	(  2  0  7)	  0  1
     80.0880	        	        	        	        	       0	(  1  0 11)	  0  1
     80.8996	        	        	        	        	       0	(  0  0 12)	  0  1
     81.0047	        	        	        	        	       0	(  2  1  0)	  0  1
     81.3444	        	        	        	        	       0	(  2  1  1)	  0  1
     81.7359	        	        	        	        	       0	(  2  0  8)	  0  1
     82.3619	        	        	        	        	       0	(  2  1  2)	  0  1
     84.0525	        	        	        	        	       0	(  2  1  3)	  0  1
     86.4112	        	        	        	        	       0	(  2  1  4)	  0  1
     86.9284	        	        	        	        	       0	(  1  1 10)	  0  1
     87.4715	        	        	        	        	       0	(  2  0  9)	  0  1
     87.8591	        	        	        	        	       0	(  1  0 12)	  0  1
     89.4357	        	        	        	        	       0	(  2  1  5)	  0  1
     93.1316	        	        	        	        	       0	(  2  1  6)	  0  1
     93.8562	        	        	        	        	       0	(  2  0 10)	  0  1
     94.8930	        	        	        	        	       0	(  3  0  0)	  0  1
     95.2302	        	        	        	        	       0	(  3  0  1)	  0  1
     96.2430	        	        	        	        	       0	(  3  0  2)	  0  1
     96.2685	        	        	        	        	       0	(  1  0 13)	  0  1
     97.5182	        	        	        	        	       0	(  2  1  7)	  0  1
     97.9356	        	        	        	        	       0	(  3  0  3)	  0  1
     98.4310	        	        	        	        	       0	(  0  0 14)	  0  1
    100.3176	        	        	        	        	       0	(  3  0  4)	  0  1
    100.9746	        	        	        	        	       0	(  2  0 11)	  0  1
    101.7918	        	        	        	        	       0	(  1  1 12)	  0  1
    102.6383	        	        	        	        	       0	(  2  1  8)	  0  1
    103.4078	        	        	        	        	       0	(  3  0  5)	  0  1
    105.5162	        	        	        	        	       0	(  1  0 14)	  0  1
    107.2411	        	        	        	        	       0	(  3  0  6)	  0  1
    108.5722	        	        	        	        	       0	(  2  1  9)	  0  1
    108.9816	        	        	        	        	       0	(  2  0 12)	  0  1
    111.8792	        	        	        	        	       0	(  3  0  7)	  0  1
    115.4653	        	        	        	        	       0	(  2  1 10)	  0  1
    115.9528	        	        	        	        	       0	(  1  0 15)	  0  1
    116.6170	        	        	        	        	       0	(  2  2  0)	  0  1
    117.4297	        	        	        	        	       0	(  3  0  8)	  0  1
    118.1315	        	        	        	        	       0	(  2  2  2)	  0  1
    118.1602	        	        	        	        	       0	(  2  0 13)	  0  1
    119.9053	        	        	        	        	       0	(  0  0 16)	  0  1
    120.6243	        	        	        	        	       0	(  1  1 14)	  0  1
    122.8147	        	        	        	        	       0	(  2  2  4)	  0  1
    123.5873	        	        	        	        	       0	(  2  1 11)	  0  1
    124.0858	        	        	        	        	       0	(  3  0  9)	  0  1
    124.6817	        	        	        	        	       0	(  3  1  0)	  0  1
    125.0918	        	        	        	        	       0	(  3  1  1)	  0  1
    126.3346	        	        	        	        	       0	(  3  1  2)	  0  1
    128.2857	        	        	        	        	       0	(  1  0 16)	  0  1
    128.4518	        	        	        	        	       0	(  3  1  3)	  0  1
    129.0816	        	        	        	        	       0	(  2  0 14)	  0  1
    131.2500	        	        	        	        	       0	(  2  2  6)	  0  1
    131.5261	        	        	        	        	       0	(  3  1  4)	  0  1
    132.2210	        	        	        	        	       0	(  3  0 10)	  0  1
    133.4921	        	        	        	        	       0	(  2  1 12)	  0  1
    135.7108	        	        	        	        	       0	(  3  1  5)	  0  1
    141.3028	        	        	        	        	       0	(  3  1  6)	  0  1
    142.6909	        	        	        	        	       0	(  3  0 11)	  0  1
    143.2064	        	        	        	        	       0	(  2  0 15)	  0  1
    144.4351	        	        	        	        	       0	(  1  0 17)	  0  1
    145.4743	        	        	        	        	       0	(  2  2  8)	  0  1
    146.6341	        	        	        	        	       0	(  2  1 13)	  0  1
    148.9704	        	        	        	        	       0	(  3  1  7)	  0  1
    149.5269	        	        	        	        	       0	(  1  1 16)	  0  1
    153.9072	        	        	        	        	       0	(  0  0 18)	  0  1
    158.5473	        	        	        	        	       0	(  3  0 12)	  0  1
    158.8345	        	        	        	        	       0	(  4  0  0)	  0  1
    159.7908	        	        	        	        	       0	(  4  0  1)	  0  1
    160.9509	        	        	        	        	       0	(  3  1  8)	  0  1
    162.9673	        	        	        	        	       0	(  4  0  2)	  0  1
    169.5532	        	        	        	        	       0	(  2  0 16)	  0  1
    170.3057	        	        	        	        	       0	(  4  0  3)	  0  1
    173.9422	        	        	        	        	       0	(  2  1 14)	  0  1
