MSG Master    CELL:    5.91050   5.91050  23.23437   90.0000   90.0000  120.0000   SPGR: P 63/m m c             TEMP:    924.05
  1   1280     2.52000     0.00000    -0.12504     0.00000     0.00000    0
    98     0     2
       0.00000      10.00000
     125.00000     130.00000
 2Theta	Yobs	Ycal	Yobs-Ycal	Backg	Posr	(hkl)	K
      0.7700	    0.00	  489.44	-1753.50	  378.77
      0.8700	    0.00	  490.71	-1753.50	  380.05
      0.9700	   50.00	  491.97	-1753.50	  381.30
      1.0700	   39.00	  493.21	-1753.50	  382.55
      1.1700	   39.00	  494.44	-1753.50	  383.77
      1.2700	   33.00	  495.65	-1753.50	  384.99
      1.3700	   53.00	  496.85	-1753.50	  386.18
      1.4700	   83.00	  498.03	-1753.50	  387.37
      1.5700	  301.00	  499.20	-1753.50	  388.54
      1.6700	  453.00	  500.35	-1753.50	  389.69
      1.7700	  586.00	  501.49	-1753.50	  390.83
      1.8700	  663.00	  502.62	-1753.50	  391.96
      1.9700	  723.00	  503.73	-1753.50	  393.07
      2.0700	  768.00	  504.83	-1753.50	  394.16
      2.1700	  812.00	  505.91	-1753.50	  395.25
      2.2700	  722.00	  506.98	-1753.50	  396.32
      2.3700	  737.00	  508.04	-1753.50	  397.37
      2.4700	  736.00	  509.08	-1753.50	  398.41
      2.5700	  665.00	  510.11	-1753.50	  399.44
      2.6700	  692.00	  511.12	-1753.50	  400.46
      2.7700	  668.00	  512.12	-1753.50	  401.46
      2.8700	  611.00	  513.11	-1753.50	  402.45
      2.9700	  589.00	  514.08	-1753.50	  403.42
      3.0700	  660.00	  515.04	-1753.50	  404.38
      3.1700	  585.00	  515.99	-1753.50	  405.33
      3.2700	  651.00	  516.93	-1753.50	  406.26
      3.3700	  713.00	  517.85	-1753.50	  407.19
      3.4700	  825.00	  518.76	-1753.50	  408.09
      3.5700	  933.00	  519.65	-1753.50	  408.99
      3.6700	  982.00	  520.54	-1753.50	  409.87
      3.7700	 1072.00	  521.41	-1753.50	  410.74
      3.8700	 1105.00	  522.27	-1753.50	  411.60
      3.9700	 1131.00	  523.11	-1753.50	  412.45
      4.0700	 1171.00	  523.95	-1753.50	  413.28
      4.1700	 1228.00	  524.77	-1753.50	  414.10
      4.2700	 1224.00	  525.58	-1753.50	  414.91
      4.3700	 1179.00	  526.37	-1753.50	  415.71
      4.4700	 1188.00	  527.16	-1753.50	  416.50
      4.5700	 1098.00	  527.93	-1753.50	  417.27
      4.6700	 1185.00	  528.69	-1753.50	  418.03
      4.7700	 1100.00	  529.44	-1753.50	  418.78
      4.8700	 1061.00	  530.18	-1753.50	  419.52
      4.9700	 1029.00	  530.91	-1753.50	  420.24
      5.0700	 1016.00	  531.62	-1753.50	  420.96
      5.1700	 1012.00	  532.33	-1753.50	  421.66
      5.2700	  963.00	  533.02	-1753.50	  422.35
      5.3700	  932.00	  533.70	-1753.50	  423.04
      5.4700	  992.00	  534.37	-1753.50	  423.70
      5.5700	  943.00	  535.03	-1753.50	  424.36
      5.6700	  916.00	  535.67	-1753.50	  425.01
      5.7700	  852.00	  536.31	-1753.50	  425.65
      5.8700	  822.00	  536.94	-1753.50	  426.27
      5.9700	  816.00	  537.55	-1753.50	  426.89
      6.0700	  870.00	  538.16	-1753.50	  427.49
      6.1700	  843.00	  538.75	-1753.50	  428.09
      6.2700	  774.00	  539.33	-1753.50	  428.67
      6.3700	  758.00	  539.90	-1753.50	  429.24
      6.4700	  766.00	  540.47	-1753.50	  429.80
      6.5700	  758.00	  541.02	-1753.50	  430.35
      6.6700	  775.00	  541.56	-1753.50	  430.90
      6.7700	  713.00	  542.09	-1753.50	  431.43
      6.8700	  773.00	  542.61	-1753.50	  431.95
      6.9700	  681.00	  543.12	-1753.50	  432.46
      7.0700	  644.00	  543.62	-1753.50	  432.96
      7.1700	  718.00	  544.12	-1753.50	  433.45
      7.2700	  664.00	  544.60	-1753.50	  433.93
      7.3700	  654.00	  545.07	-1753.50	  434.41
      7.4700	  650.00	  545.53	-1753.50	  434.87
      7.5700	  694.00	  545.98	-1753.50	  435.32
      7.6700	  681.00	  546.43	-1753.50	  435.76
      7.7700	  643.00	  546.86	-1753.50	  436.20
      7.8700	  657.00	  547.29	-1753.50	  436.62
      7.9700	  693.00	  547.70	-1753.50	  437.04
      8.0700	  618.00	  548.11	-1753.50	  437.44
      8.1700	  608.00	  548.51	-1753.50	  437.84
      8.2700	  624.00	  548.89	-1753.50	  438.23
      8.3700	  631.00	  549.27	-1753.50	  438.61
      8.4700	  616.00	  549.64	-1753.50	  438.98
      8.5700	  565.00	  550.00	-1753.50	  439.34
      8.6700	  618.00	  550.36	-1753.50	  439.69
      8.7700	  612.00	  550.70	-1753.50	  440.04
      8.8700	  633.00	  551.03	-1753.50	  440.37
      8.9700	  607.00	  551.36	-1753.50	  440.70
      9.0700	  615.00	  551.68	-1753.50	  441.02
      9.1700	  614.00	  551.99	-1753.50	  441.33
      9.2700	  584.00	  552.29	-1753.50	  441.63
      9.3700	  598.00	  552.58	-1753.50	  441.92
      9.4700	  596.00	  552.87	-1753.50	  442.21
      9.5700	  623.00	  553.15	-1753.50	  442.48
      9.6700	  638.00	  553.41	-1753.50	  442.75
      9.7700	  629.00	  553.67	-1753.50	  443.01
      9.8700	  603.00	  553.93	-1753.50	  443.26
      9.9700	  603.00	  554.17	-1753.50	  443.51
     10.0700	  579.00	  555.90	-1730.40	  443.75
     10.1700	  553.00	  556.28	-1756.78	  443.98
     10.2700	  582.00	  556.70	-1728.20	  444.20
     10.3700	  607.00	  557.16	-1703.66	  444.41
     10.4700	  563.00	  557.70	-1748.20	  444.62
     10.5700	  606.00	  558.37	-1705.87	  444.82
     10.6700	  600.00	  559.24	-1712.74	  445.01
     10.7700	  632.00	  560.42	-1681.92	  445.19
     10.8700	  538.00	  561.95	-1777.45	  445.37
     10.9700	  567.00	  563.88	-1750.38	  445.54
     11.0700	  548.00	  566.20	-1771.70	  445.70
     11.1700	  553.00	  568.90	-1769.40	  445.86
     11.2700	  587.00	  572.03	-1738.53	  446.01
     11.3700	  592.00	  575.66	-1737.16	  446.15
     11.4700	  576.00	  579.92	-1757.42	  446.28
     11.5700	  588.00	  585.00	-1750.50	  446.41
     11.6700	  583.00	  591.22	-1761.72	  446.53
     11.7700	  614.00	  598.99	-1738.49	  446.65
     11.8700	  595.00	  608.70	-1767.20	  446.76
     11.9700	  659.00	  620.18	-1714.68	  446.86
     12.0700	  687.00	  631.89	-1698.39	  446.95
     12.1700	  662.00	  640.08	-1731.58	  447.04
     12.2700	  667.00	  639.07	-1725.57	  447.12
     12.3700	  625.00	  625.91	-1754.41	  447.20
     12.4700	  683.00	  606.70	-1677.20	  447.27
     12.5700	  583.00	  589.69	-1760.19	  447.33
     12.6700	  551.00	  577.91	-1780.41	  447.39
     12.7700	  568.00	  570.84	-1756.34	  447.44
     12.8700	  562.00	  566.91	-1758.41	  447.48
     12.9700	  555.00	  564.72	-1763.22	  447.52
     13.0700	  550.00	  563.39	-1766.89	  447.56
     13.1700	  574.00	  562.50	-1742.00	  447.58
     13.2700	  568.00	  561.85	-1747.35	  447.61
     13.3700	  507.00	  561.35	-1807.85	  447.62
     13.4700	  535.00	  560.95	-1779.45	  447.63
     13.5700	  518.00	  560.63	-1796.13	  447.64
     13.6700	  534.00	  560.37	-1779.87	  447.63
     13.7700	  531.00	  560.15	-1782.65	  447.63
     13.8700	  557.00	  559.96	-1756.46	  447.62
     13.9700	  554.00	  559.79	-1759.29	  447.60
     14.0700	  582.00	  559.64	-1731.14	  447.58
     14.1700	  553.00	  559.50	-1760.00	  447.55
     14.2700	  606.00	  559.40	-1706.90	  447.51
     14.3700	  548.00	  559.28	-1764.78	  447.48
     14.4700	  573.00	  559.17	-1739.67	  447.43
     14.5700	  562.00	  559.06	-1750.56	  447.38
     14.6700	  565.00	  558.95	-1747.45	  447.33
     14.7700	  575.00	  558.84	-1737.34	  447.27
     14.8700	  575.00	  558.73	-1737.23	  447.21
     14.9700	  569.00	  558.62	-1743.12	  447.14
     15.0700	  534.00	  558.52	-1778.02	  447.07
     15.1700	  517.00	  558.41	-1794.91	  446.99
     15.2700	  526.00	  558.30	-1785.80	  446.91
     15.3700	  577.00	  558.18	-1734.68	  446.82
     15.4700	  540.00	  558.07	-1771.57	  446.73
     15.5700	  568.00	  557.95	-1743.45	  446.63
     15.6700	  547.00	  557.83	-1764.33	  446.53
     15.7700	  547.00	  557.71	-1764.21	  446.42
     15.8700	  558.00	  557.58	-1753.08	  446.31
     15.9700	  548.00	  557.45	-1762.95	  446.20
     16.0700	  548.00	  557.32	-1762.82	  446.08
     16.1700	  502.00	  557.19	-1808.69	  445.96
     16.2700	  510.00	  557.05	-1800.55	  445.83
     16.3700	  547.00	  556.91	-1763.41	  445.70
     16.4700	  509.00	  556.76	-1801.26	  445.57
     16.5700	  543.00	  556.61	-1767.11	  445.43
     16.6700	  554.00	  556.46	-1755.96	  445.29
     16.7700	  555.00	  556.31	-1754.81	  445.14
     16.8700	  558.00	  556.15	-1751.65	  444.99
     16.9700	  549.00	  555.99	-1760.49	  444.83
     17.0700	  538.00	  555.83	-1771.33	  444.67
     17.1700	  511.00	  555.66	-1798.16	  444.51
     17.2700	  529.00	  555.49	-1779.99	  444.35
     17.3700	  557.00	  555.32	-1751.82	  444.18
     17.4700	  550.00	  555.14	-1758.64	  444.01
     17.5700	  566.00	  554.96	-1742.46	  443.83
     17.6700	  546.00	  554.88	-1762.38	  443.65
     17.7700	  532.00	  554.70	-1776.20	  443.47
     17.8700	  553.00	  554.51	-1755.01	  443.28
     17.9700	  537.00	  554.32	-1770.82	  443.09
     18.0700	  541.00	  554.13	-1766.63	  442.90
     18.1700	  532.00	  553.93	-1775.43	  442.70
     18.2700	  509.00	  553.83	-1798.33	  442.50
     18.3700	  540.00	  553.63	-1767.13	  442.30
     18.4700	  526.00	  553.43	-1780.93	  442.09
     18.5700	  505.00	  553.22	-1801.72	  441.88
     18.6700	  551.00	  553.01	-1755.51	  441.67
     18.7700	  545.00	  552.80	-1761.30	  441.45
     18.8700	  564.00	  552.59	-1742.09	  441.23
     18.9700	  560.00	  552.37	-1745.87	  441.01
     19.0700	  498.00	  552.16	-1807.66	  440.79
     19.1700	  506.00	  551.94	-1799.44	  440.56
     19.2700	  541.00	  551.71	-1764.21	  440.33
     19.3700	  541.00	  551.49	-1763.99	  440.10
     19.4700	  516.00	  551.26	-1788.76	  439.86
     19.5700	  547.00	  551.03	-1757.53	  439.63
     19.6700	  579.00	  550.80	-1725.30	  439.39
     19.7700	  593.00	  550.57	-1711.07	  439.14
     19.8700	  500.00	  550.34	-1803.84	  438.90
     19.9700	  549.00	  550.13	-1754.63	  438.65
     20.0700	  543.00	  549.90	-1760.40	  438.40
     20.1700	  557.00	  549.66	-1746.16	  438.15
     20.2700	  543.00	  549.42	-1759.92	  437.89
     20.3700	  543.00	  549.17	-1759.67	  437.63
     20.4700	  568.00	  548.93	-1734.43	  437.37
     20.5700	  494.00	  548.68	-1808.18	  437.11
     20.6700	  552.00	  548.44	-1749.94	  436.85
     20.7700	  573.00	  548.19	-1728.69	  436.58
     20.8700	  567.00	  547.94	-1734.44	  436.31
     20.9700	  540.00	  547.69	-1761.19	  436.04
     21.0700	  538.00	  547.44	-1762.94	  435.77
     21.1700	  555.00	  547.19	-1745.69	  435.50
     21.2700	  530.00	  546.94	-1770.44	  435.22
     21.3700	  539.00	  546.69	-1761.19	  434.94
     21.4700	  531.00	  546.44	-1768.94	  434.66
     21.5700	  547.00	  546.19	-1752.69	  434.38
     21.6700	  506.00	  545.95	-1793.45	  434.09
     21.7700	  565.00	  545.70	-1734.20	  433.81
     21.8700	  578.00	  545.45	-1720.95	  433.52
     21.9700	  538.00	  545.21	-1760.71	  433.23
     22.0700	  534.00	  544.96	-1764.46	  432.94
     22.1700	  605.00	  544.72	-1693.22	  432.65
     22.2700	  574.00	  544.49	-1723.99	  432.35
     22.3700	  562.00	  544.26	-1735.76	  432.06
     22.4700	  536.00	  543.99	-1761.49	  431.76
     22.5700	  536.00	  543.92	-1761.42	  431.46
     22.6700	  574.00	  543.71	-1723.21	  431.16
     22.7700	  544.00	  543.51	-1753.01	  430.86
     22.8700	  525.00	  543.33	-1771.83	  430.55
     22.9700	  588.00	  543.15	-1708.65	  430.25
     23.0700	  534.00	  543.00	-1762.50	  429.94
     23.1700	  564.00	  542.87	-1732.37	  429.64
     23.2700	  554.00	  542.77	-1742.27	  429.33
     23.3700	  527.00	  542.70	-1769.20	  429.02
     23.4700	  556.00	  542.69	-1740.19	  428.71
     23.5700	  551.00	  542.74	-1745.24	  428.40
     23.6700	  559.00	  542.89	-1737.39	  428.08
     23.7700	  543.00	  543.19	-1753.69	  427.77
     23.8700	  537.00	  543.74	-1760.24	  427.45
     23.9700	  535.00	  544.72	-1763.22	  427.14
     24.0700	  563.00	  546.43	-1736.93	  426.82
     24.1700	  513.00	  549.34	-1789.84	  426.50
     24.2700	  567.00	  554.06	-1740.56	  426.18
     24.3700	  564.00	  561.21	-1750.71	  425.86
     24.4700	  565.00	  571.18	-1759.68	  425.54
     24.5700	  653.00	  583.73	-1684.23	  425.22
     24.6700	  615.00	  597.26	-1735.76	  424.90
     24.7700	  615.00	  608.07	-1746.57	  424.58
     24.8700	  616.00	  610.54	-1748.04	  424.25
     24.9700	  613.00	  601.16	-1741.66	  423.93
     25.0700	  582.00	  584.52	-1756.02	  423.60
     25.1700	  593.00	  568.38	-1728.88	  423.28
     25.2700	  596.00	  556.39	-1713.89	  422.95
     25.3700	  527.00	  548.75	-1775.25	  422.62
     25.4700	  556.00	  544.32	-1741.82	  422.29
     25.5700	  564.00	  541.80	-1731.30	  421.97
     25.6700	  553.00	  540.28	-1740.78	  421.64
     25.7700	  563.00	  539.28	-1729.78	  421.31
     25.8700	  555.00	  538.56	-1737.06	  420.98
     25.9700	  575.00	  538.02	-1716.52	  420.65
     26.0700	  545.00	  537.63	-1746.13	  420.32
     26.1700	  564.00	  537.35	-1726.85	  419.99
     26.2700	  565.00	  537.18	-1725.68	  419.65
     26.3700	  541.00	  537.11	-1749.61	  419.32
     26.4700	  582.00	  537.14	-1708.64	  418.99
     26.5700	  568.00	  537.29	-1722.79	  418.66
     26.6700	  574.00	  537.56	-1717.06	  418.33
     26.7700	  549.00	  537.98	-1742.48	  417.99
     26.8700	  537.00	  538.58	-1755.08	  417.66
     26.9700	  528.00	  539.41	-1764.91	  417.33
     27.0700	  532.00	  540.54	-1762.04	  416.99
     27.1700	  580.00	  542.10	-1715.60	  416.66
     27.2700	  549.00	  544.29	-1748.79	  416.33
     27.3700	  573.00	  547.52	-1728.02	  415.99
     27.4700	  573.00	  552.58	-1733.08	  415.66
     27.5700	  605.00	  560.88	-1709.38	  415.33
     27.6700	  586.00	  574.75	-1742.25	  414.99
     27.7700	  566.00	  597.36	-1784.86	  414.66
     27.8700	  623.00	  631.92	-1762.42	  414.33
     27.9700	  631.00	  679.73	-1802.23	  413.99
     28.0700	  748.00	  737.46	-1742.96	  413.66
     28.1700	  763.00	  794.50	-1785.00	  413.33
     28.2700	  968.00	  831.99	-1617.49	  413.00
     28.3700	  884.00	  830.65	-1700.15	  412.66
     28.4700	  826.00	  795.37	-1722.87	  412.33
     28.5700	  749.00	  757.95	-1762.45	  412.00
     28.6700	  713.00	  742.30	-1782.80	  411.67
     28.7700	  722.00	  751.78	-1783.28	  411.34
     28.8700	  726.00	  774.30	-1801.80	  411.00
     28.9700	  819.00	  787.84	-1722.34	  410.67
     29.0700	  778.00	  770.46	-1745.96	  410.34
     29.1700	  767.00	  721.57	-1708.07	  410.01
     29.2700	  692.00	  663.87	-1725.37	  409.68
     29.3700	  611.00	  615.76	-1758.26	  409.35
     29.4700	  587.00	  582.58	-1749.08	  409.02
     29.5700	  539.00	  562.37	-1776.87	  408.70
     29.6700	  568.00	  550.93	-1736.43	  408.37
     29.7700	  602.00	  544.40	-1695.90	  408.04
     29.8700	  600.00	  540.48	-1693.98	  407.71
     29.9700	  545.00	  538.00	-1746.50	  407.39
     30.0700	  566.00	  536.54	-1724.04	  407.06
     30.1700	  560.00	  536.07	-1729.57	  406.74
     30.2700	  510.00	  536.87	-1780.37	  406.41
     30.3700	  574.00	  539.58	-1719.08	  406.09
     30.4700	  603.00	  545.21	-1695.71	  405.76
     30.5700	  576.00	  554.86	-1732.36	  405.44
     30.6700	  537.00	  569.07	-1785.57	  405.12
     30.7700	  589.00	  586.71	-1751.21	  404.80
     30.8700	  564.00	  604.19	-1793.69	  404.48
     30.9700	  621.00	  615.15	-1747.65	  404.16
     31.0700	  578.00	  612.63	-1788.13	  403.84
     31.1700	  619.00	  596.34	-1730.84	  403.52
     31.2700	  583.00	  574.76	-1745.26	  403.20
     31.3700	  556.00	  555.69	-1753.19	  402.88
     31.4700	  535.00	  541.98	-1760.48	  402.57
     31.5700	  535.00	  533.35	-1751.85	  402.25
     31.6700	  539.00	  528.37	-1742.86	  401.94
     31.7700	  503.00	  525.53	-1776.03	  401.62
     31.8700	  493.00	  523.85	-1784.35	  401.31
     31.9700	  547.00	  522.77	-1729.27	  401.00
     32.0700	  571.00	  522.05	-1704.55	  400.69
     32.1700	  550.00	  521.58	-1725.08	  400.38
     32.2700	  583.00	  521.33	-1691.83	  400.07
     32.3700	  472.00	  521.27	-1802.77	  399.76
     32.4700	  560.00	  521.41	-1714.91	  399.45
     32.5700	  531.00	  521.76	-1744.26	  399.15
     32.6700	  513.00	  522.36	-1762.86	  398.84
     32.7700	  561.00	  523.26	-1715.76	  398.54
     32.8700	  592.00	  524.53	-1686.03	  398.24
     32.9700	  509.00	  526.31	-1770.81	  397.93
     33.0700	  523.00	  528.82	-1759.32	  397.63
     33.1700	  610.00	  532.51	-1676.01	  397.33
     33.2700	  526.00	  538.27	-1765.77	  397.04
     33.3700	  564.00	  547.86	-1737.36	  396.74
     33.4700	  540.00	  564.40	-1777.90	  396.44
     33.5700	  581.00	  592.58	-1765.08	  396.15
     33.6700	  609.00	  637.92	-1782.42	  395.85
     33.7700	  719.00	  703.78	-1738.28	  395.56
     33.8700	  823.00	  786.63	-1717.13	  395.27
     33.9700	  903.00	  871.71	-1722.21	  394.98
     34.0700	 1012.00	  931.78	-1673.28	  394.69
     34.1700	 1012.00	  935.44	-1676.94	  394.40
     34.2700	  935.00	  875.07	-1693.57	  394.11
     34.3700	  811.00	  782.36	-1724.86	  393.83
     34.4700	  696.00	  693.71	-1751.21	  393.54
     34.5700	  613.00	  626.07	-1766.57	  393.26
     34.6700	  611.00	  581.41	-1723.91	  392.98
     34.7700	  562.00	  554.72	-1746.22	  392.70
     34.8700	  524.00	  539.50	-1769.00	  392.42
     34.9700	  521.00	  530.60	-1763.10	  392.14
     35.0700	  531.00	  524.93	-1747.43	  391.86
     35.1700	  502.00	  520.93	-1772.43	  391.59
     35.2700	  548.00	  517.89	-1723.39	  391.32
     35.3700	  524.00	  515.44	-1744.94	  391.04
     35.4700	  540.00	  513.47	-1726.97	  390.77
     35.5700	  514.00	  511.82	-1751.32	  390.50
     35.6700	  494.00	  510.89	-1770.39	  390.24
     35.7700	  533.00	  509.70	-1730.20	  389.97
     35.8700	  515.00	  508.66	-1747.16	  389.70
     35.9700	  506.00	  507.76	-1755.26	  389.44
     36.0700	  512.00	  506.95	-1748.45	  389.18
     36.1700	  494.00	  506.25	-1765.75	  388.92
     36.2700	  561.00	  505.61	-1698.11	  388.66
     36.3700	  525.00	  505.03	-1733.53	  388.40
     36.4700	  507.00	  504.52	-1751.02	  388.14
     36.5700	  484.00	  504.06	-1773.56	  387.89
     36.6700	  492.00	  503.66	-1765.16	  387.63
     36.7700	  491.00	  503.33	-1765.83	  387.38
     36.8700	  523.00	  503.09	-1733.59	  387.13
     36.9700	  502.00	  502.99	-1754.49	  386.88
     37.0700	  475.00	  503.12	-1781.62	  386.63
     37.1700	  482.00	  503.63	-1775.13	  386.39
     37.2700	  453.00	  504.74	-1805.24	  386.14
     37.3700	  518.00	  506.62	-1742.12	  385.90
     37.4700	  537.00	  509.30	-1725.80	  385.66
     37.5700	  529.00	  512.47	-1736.97	  385.42
     37.6700	  517.00	  515.32	-1751.82	  385.18
     37.7700	  551.00	  516.67	-1719.17	  384.95
     37.8700	  500.00	  515.59	-1769.09	  384.71
     37.9700	  465.00	  512.61	-1801.11	  384.48
     38.0700	  525.00	  508.73	-1737.23	  384.25
     38.1700	  477.00	  505.19	-1781.69	  384.02
     38.2700	  506.00	  502.43	-1749.93	  383.79
     38.3700	  461.00	  500.48	-1792.98	  383.56
     38.4700	  477.00	  499.18	-1775.68	  383.34
     38.5700	  481.00	  498.31	-1770.81	  383.11
     38.6700	  489.00	  497.70	-1762.20	  382.89
     38.7700	  511.00	  497.24	-1739.74	  382.67
     38.8700	  484.00	  496.85	-1766.35	  382.45
     38.9700	  504.00	  496.52	-1746.02	  382.23
     39.0700	  505.00	  496.21	-1744.71	  382.02
     39.1700	  512.00	  495.83	-1737.33	  381.81
     39.2700	  532.00	  495.58	-1717.08	  381.59
     39.3700	  496.00	  495.34	-1752.84	  381.38
     39.4700	  492.00	  495.12	-1756.62	  381.18
     39.5700	  523.00	  494.91	-1725.41	  380.97
     39.6700	  485.00	  494.71	-1763.21	  380.76
     39.7700	  487.00	  494.52	-1761.02	  380.56
     39.8700	  463.00	  494.35	-1784.85	  380.36
     39.9700	  535.00	  494.19	-1712.69	  380.16
     40.0700	  496.00	  493.95	-1751.45	  379.96
     40.1700	  469.00	  493.82	-1778.32	  379.77
     40.2700	  510.00	  493.69	-1737.19	  379.57
     40.3700	  467.00	  493.59	-1780.09	  379.38
     40.4700	  486.00	  493.49	-1760.99	  379.19
     40.5700	  515.00	  493.92	-1732.42	  379.00
     40.6700	  500.00	  493.87	-1747.37	  378.81
     40.7700	  465.00	  493.84	-1782.34	  378.62
     40.8700	  493.00	  493.85	-1754.35	  378.44
     40.9700	  496.00	  493.88	-1751.38	  378.26
     41.0700	  474.00	  493.95	-1773.45	  378.08
     41.1700	  500.00	  494.06	-1747.56	  377.90
     41.2700	  488.00	  494.24	-1759.74	  377.72
     41.3700	  453.00	  494.48	-1794.98	  377.55
     41.4700	  502.00	  494.82	-1746.32	  377.37
     41.5700	  438.00	  495.28	-1810.78	  377.20
     41.6700	  472.00	  495.93	-1777.43	  377.03
     41.7700	  478.00	  496.87	-1772.37	  376.86
     41.8700	  511.00	  498.33	-1740.83	  376.70
     41.9700	  505.00	  500.80	-1749.30	  376.53
     42.0700	  514.00	  504.93	-1744.43	  376.37
     42.1700	  520.00	  511.90	-1745.40	  376.21
     42.2700	  545.00	  523.08	-1731.58	  376.05
     42.3700	  533.00	  539.40	-1759.90	  375.89
     42.4700	  552.00	  560.61	-1762.11	  375.74
     42.5700	  637.00	  584.23	-1700.73	  375.58
     42.6700	  600.00	  604.74	-1758.24	  375.43
     42.7700	  529.00	  614.51	-1839.01	  375.28
     42.8700	  548.00	  608.31	-1813.81	  375.13
     42.9700	  536.00	  588.91	-1806.41	  374.99
     43.0700	  538.00	  564.81	-1780.31	  374.84
     43.1700	  495.00	  542.31	-1800.81	  374.70
     43.2700	  518.00	  524.72	-1760.22	  374.56
     43.3700	  480.00	  512.53	-1786.03	  374.42
     43.4700	  477.00	  504.86	-1781.36	  374.28
     43.5700	  492.00	  500.26	-1761.76	  374.15
     43.6700	  484.00	  497.53	-1767.03	  374.01
     43.7700	  508.00	  495.84	-1741.34	  373.88
     43.8700	  452.00	  494.71	-1796.21	  373.75
     43.9700	  492.00	  493.89	-1755.39	  373.62
     44.0700	  488.00	  493.27	-1758.77	  373.49
     44.1700	  514.00	  492.78	-1732.28	  373.37
     44.2700	  475.00	  492.39	-1770.89	  373.25
     44.3700	  493.00	  492.27	-1752.77	  373.12
     44.4700	  502.00	  492.03	-1743.53	  373.01
     44.5700	  491.00	  491.83	-1754.33	  372.89
     44.6700	  534.00	  491.69	-1711.19	  372.77
     44.7700	  517.00	  491.58	-1728.08	  372.66
     44.8700	  481.00	  491.51	-1764.01	  372.55
     44.9700	  457.00	  491.47	-1787.97	  372.43
     45.0700	  496.00	  491.46	-1748.96	  372.33
     45.1700	  481.00	  491.48	-1763.98	  372.22
     45.2700	  486.00	  491.53	-1759.03	  372.11
     45.3700	  493.00	  491.60	-1752.10	  372.01
     45.4700	  460.00	  491.70	-1785.20	  371.91
     45.5700	  497.00	  491.84	-1748.33	  371.81
     45.6700	  476.00	  492.00	-1769.50	  371.71
     45.7700	  493.00	  492.19	-1752.69	  371.62
     45.8700	  494.00	  492.27	-1751.77	  371.52
     45.9700	  488.00	  492.60	-1758.10	  371.43
     46.0700	  491.00	  492.91	-1755.41	  371.34
     46.1700	  493.00	  493.30	-1753.80	  371.25
     46.2700	  480.00	  493.71	-1767.21	  371.16
     46.3700	  483.00	  494.18	-1764.68	  371.08
     46.4700	  498.00	  494.73	-1750.23	  370.99
     46.5700	  498.00	  495.35	-1750.85	  370.91
     46.6700	  514.00	  496.08	-1735.58	  370.83
     46.7700	  517.00	  496.95	-1733.45	  370.75
     46.8700	  476.00	  498.02	-1775.52	  370.67
     46.9700	  511.00	  499.39	-1741.89	  370.60
     47.0700	  530.00	  501.29	-1724.79	  370.53
     47.1700	  532.00	  504.09	-1725.59	  370.45
     47.2700	  499.00	  508.38	-1762.88	  370.38
     47.3700	  536.00	  514.91	-1732.41	  370.32
     47.4700	  533.00	  524.47	-1744.97	  370.25
     47.5700	  541.00	  537.46	-1749.96	  370.18
     47.6700	  512.00	  553.48	-1794.98	  370.12
     47.7700	  549.00	  570.70	-1775.20	  370.06
     47.8700	  639.00	  585.58	-1700.08	  370.00
     47.9700	  588.00	  593.48	-1758.98	  369.94
     48.0700	  595.00	  591.43	-1749.93	  369.89
     48.1700	  580.00	  581.07	-1754.57	  369.83
     48.2700	  566.00	  567.22	-1754.72	  369.78
     48.3700	  558.00	  554.10	-1749.60	  369.73
     48.4700	  508.00	  544.45	-1789.95	  369.68
     48.5700	  533.00	  538.29	-1758.79	  369.63
     48.6700	  484.00	  535.84	-1805.34	  369.59
     48.7700	  518.00	  536.54	-1772.04	  369.54
     48.8700	  535.00	  539.79	-1758.29	  369.50
     48.9700	  538.00	  545.29	-1760.79	  369.46
     49.0700	  482.00	  553.16	-1824.66	  369.42
     49.1700	  514.00	  564.23	-1803.73	  369.38
     49.2700	  557.00	  580.46	-1776.96	  369.35
     49.3700	  555.00	  605.79	-1804.29	  369.31
     49.4700	  615.00	  647.27	-1785.77	  369.28
     49.5700	  721.00	  715.85	-1748.35	  369.25
     49.6700	  773.00	  825.93	-1806.43	  369.22
     49.7700	  890.00	  992.07	-1855.57	  369.19
     49.8700	 1186.00	 1222.57	-1790.07	  369.16
     49.9700	 1549.00	 1510.43	-1714.93	  369.14
     50.0700	 1817.00	 1824.04	-1760.54	  369.12
     50.1700	 2183.00	 2100.39	-1670.89	  369.09
     50.2700	 2397.00	 2253.48	-1609.98	  369.07
     50.3700	 2179.00	 2218.61	-1793.11	  369.06
     50.4700	 2059.00	 2010.30	-1704.80	  369.04
     50.5700	 1744.00	 1710.86	-1720.36	  369.02
     50.6700	 1414.00	 1404.03	-1743.53	  369.01
     50.7700	  965.00	 1141.28	-1929.78	  369.00
     50.8700	  867.00	  943.36	-1829.86	  368.99
     50.9700	  705.00	  809.46	-1857.96	  368.98
     51.0700	  655.00	  726.72	-1825.22	  368.97
     51.1700	  608.00	  677.29	-1822.79	  368.97
     51.2700	  644.00	  645.96	-1755.46	  368.96
     51.3700	  600.00	  622.49	-1775.99	  368.96
     51.4700	  598.00	  602.55	-1758.05	  368.96
     51.5700	  608.00	  585.30	-1730.80	  368.96
     51.6700	  579.00	  570.94	-1745.44	  368.96
     51.7700	  545.00	  559.65	-1768.15	  368.96
     51.8700	  565.00	  551.32	-1739.82	  368.97
     51.9700	  545.00	  545.58	-1754.08	  368.97
     52.0700	  530.00	  541.99	-1765.49	  368.98
     52.1700	  505.00	  540.13	-1788.63	  368.99
     52.2700	  569.00	  539.73	-1724.23	  369.00
     52.3700	  583.00	  540.76	-1711.26	  369.01
     52.4700	  569.00	  543.48	-1727.98	  369.02
     52.5700	  564.00	  548.63	-1738.13	  369.04
     52.6700	  592.00	  557.69	-1719.19	  369.05
     52.7700	  579.00	  573.17	-1747.67	  369.07
     52.8700	  609.00	  598.75	-1743.25	  369.09
     52.9700	  657.00	  639.06	-1735.56	  369.11
     53.0700	  702.00	  698.53	-1750.03	  369.13
     53.1700	  767.00	  779.58	-1766.08	  369.16
     53.2700	  935.00	  880.15	-1698.65	  369.18
     53.3700	 1057.00	  991.08	-1687.58	  369.21
     53.4700	 1113.00	 1094.02	-1734.52	  369.23
     53.5700	 1163.00	 1162.30	-1752.80	  369.26
     53.6700	 1184.00	 1171.32	-1740.82	  369.29
     53.7700	 1080.00	 1117.04	-1790.54	  369.32
     53.8700	  984.00	 1020.23	-1789.73	  369.35
     53.9700	  871.00	  909.29	-1791.79	  369.39
     54.0700	  786.00	  805.22	-1772.72	  369.42
     54.1700	  715.00	  719.34	-1757.84	  369.46
     54.2700	  644.00	  655.18	-1764.68	  369.50
     54.3700	  585.00	  611.18	-1779.68	  369.54
     54.4700	  609.00	  583.14	-1727.64	  369.58
     54.5700	  618.00	  566.32	-1701.82	  369.62
     54.6700	  631.00	  556.72	-1679.22	  369.66
     54.7700	  549.00	  551.52	-1756.02	  369.70
     54.8700	  553.00	  548.99	-1749.49	  369.75
     54.9700	  606.00	  548.20	-1695.70	  369.79
     55.0700	  586.00	  548.71	-1716.21	  369.84
     55.1700	  572.00	  550.31	-1731.81	  369.89
     55.2700	  530.00	  552.98	-1776.48	  369.94
     55.3700	  571.00	  556.77	-1739.27	  369.99
     55.4700	  585.00	  561.86	-1730.36	  370.04
     55.5700	  567.00	  568.56	-1755.06	  370.10
     55.6700	  578.00	  577.47	-1752.97	  370.15
     55.7700	  587.00	  589.76	-1756.26	  370.21
     55.8700	  600.00	  607.61	-1761.11	  370.26
     55.9700	  560.00	  634.91	-1828.41	  370.32
     56.0700	  676.00	  678.19	-1755.69	  370.38
     56.1700	  705.00	  746.94	-1795.44	  370.44
     56.2700	  763.00	  853.33	-1843.83	  370.50
     56.3700	  964.00	 1010.00	-1799.50	  370.56
     56.4700	 1132.00	 1225.86	-1847.36	  370.63
     56.5700	 1491.00	 1500.32	-1762.82	  370.69
     56.6700	 1750.00	 1817.15	-1820.65	  370.76
     56.7700	 2014.00	 2138.81	-1878.31	  370.82
     56.8700	 2419.00	 2403.86	-1738.36	  370.89
     56.9700	 2621.00	 2538.31	-1670.81	  370.96
     57.0700	 2460.00	 2493.98	-1787.48	  371.03
     57.1700	 2328.00	 2287.48	-1712.98	  371.10
     57.2700	 1991.00	 1986.64	-1749.14	  371.17
     57.3700	 1582.00	 1663.23	-1834.73	  371.24
     57.4700	 1325.00	 1367.21	-1795.71	  371.32
     57.5700	 1076.00	 1124.83	-1802.33	  371.39
     57.6700	  961.00	  943.87	-1736.37	  371.47
     57.7700	  857.00	  819.78	-1716.28	  371.54
     57.8700	  727.00	  741.83	-1768.33	  371.62
     57.9700	  735.00	  698.41	-1716.91	  371.70
     58.0700	  698.00	  680.18	-1735.68	  371.78
     58.1700	  764.00	  681.29	-1670.79	  371.86
     58.2700	  648.00	  698.94	-1804.44	  371.94
     58.3700	  741.00	  732.15	-1744.65	  372.02
     58.4700	  824.00	  780.35	-1709.85	  372.10
     58.5700	  885.00	  841.83	-1710.33	  372.18
     58.6700	 1000.00	  912.50	-1666.00	  372.27
     58.7700	 1034.00	  985.39	-1704.89	  372.35
     58.8700	 1123.00	 1052.65	-1683.15	  372.44
     58.9700	 1247.00	 1109.04	-1615.54	  372.53
     59.0700	 1274.00	 1151.56	-1631.06	  372.61
     59.1700	 1288.00	 1176.27	-1641.77	  372.70
     59.2700	 1339.00	 1179.93	-1594.43	  372.79
     59.3700	 1189.00	 1166.14	-1730.64	  372.88
     59.4700	 1320.00	 1145.56	-1579.06	  372.97
     59.5700	 1212.00	 1129.02	-1670.52	  373.06
     59.6700	 1285.00	 1123.49	-1591.99	  373.15
     59.7700	 1187.00	 1134.18	-1700.68	  373.25
     59.8700	 1207.00	 1166.76	-1713.26	  373.34
     59.9700	 1256.00	 1224.60	-1722.10	  373.43
     60.0700	 1328.00	 1303.68	-1729.18	  373.53
     60.1700	 1446.00	 1389.59	-1697.09	  373.62
     60.2700	 1501.00	 1457.92	-1710.42	  373.72
     60.3700	 1588.00	 1480.25	-1645.75	  373.82
     60.4700	 1429.00	 1439.16	-1763.66	  373.91
     60.5700	 1303.00	 1340.91	-1791.41	  374.01
     60.6700	 1194.00	 1209.49	-1768.99	  374.11
     60.7700	 1109.00	 1070.61	-1715.11	  374.21
     60.8700	 1017.00	  943.06	-1679.56	  374.31
     60.9700	  808.00	  837.63	-1783.13	  374.41
     61.0700	  769.00	  758.75	-1743.25	  374.51
     61.1700	  695.00	  706.51	-1765.01	  374.61
     61.2700	  646.00	  678.88	-1786.38	  374.71
     61.3700	  674.00	  673.90	-1753.40	  374.82
     61.4700	  655.00	  690.85	-1789.35	  374.92
     61.5700	  763.00	  730.58	-1721.08	  375.02
     61.6700	  732.00	  794.56	-1816.06	  375.13
     61.7700	  869.00	  883.17	-1767.67	  375.23
     61.8700	 1031.00	  993.66	-1716.16	  375.34
     61.9700	 1061.00	 1118.14	-1810.64	  375.44
     62.0700	 1194.00	 1242.10	-1801.60	  375.55
     62.1700	 1270.00	 1343.91	-1827.41	  375.65
     62.2700	 1290.00	 1398.42	-1861.92	  375.76
     62.3700	 1336.00	 1388.41	-1805.91	  375.87
     62.4700	 1233.00	 1316.50	-1837.00	  375.97
     62.5700	 1177.00	 1203.29	-1779.79	  376.08
     62.6700	 1008.00	 1073.79	-1819.29	  376.19
     62.7700	  908.00	  947.80	-1793.30	  376.30
     62.8700	  772.00	  837.69	-1819.19	  376.41
     62.9700	  707.00	  749.27	-1795.77	  376.52
     63.0700	  663.00	  683.32	-1773.82	  376.63
     63.1700	  605.00	  637.27	-1785.77	  376.74
     63.2700	  606.00	  607.05	-1754.55	  376.85
     63.3700	  571.00	  588.41	-1770.91	  376.96
     63.4700	  587.00	  577.96	-1744.46	  377.07
     63.5700	  613.00	  573.49	-1713.99	  377.18
     63.6700	  610.00	  573.97	-1717.47	  377.29
     63.7700	  592.00	  579.48	-1740.98	  377.40
     63.8700	  583.00	  590.92	-1761.42	  377.52
     63.9700	  611.00	  609.67	-1752.17	  377.63
     64.0700	  655.00	  637.17	-1735.67	  377.74
     64.1700	  768.00	  674.36	-1659.86	  377.85
     64.2700	  767.00	  721.10	-1707.60	  377.97
     64.3700	  843.00	  775.31	-1685.81	  378.08
     64.4700	  882.00	  832.68	-1704.18	  378.19
     64.5700	  943.00	  886.22	-1696.72	  378.30
     64.6700	 1011.00	  927.06	-1669.56	  378.42
     64.7700	 1015.00	  947.32	-1685.82	  378.53
     64.8700	  933.00	  943.70	-1764.20	  378.65
     64.9700	  983.00	  918.57	-1689.07	  378.76
     65.0700	  887.00	  877.81	-1744.31	  378.87
     65.1700	  885.00	  830.26	-1698.76	  378.99
     65.2700	  803.00	  782.59	-1733.09	  379.10
     65.3700	  745.00	  738.94	-1747.44	  379.21
     65.4700	  660.00	  701.21	-1794.71	  379.33
     65.5700	  650.00	  669.35	-1772.85	  379.44
     65.6700	  613.00	  642.73	-1783.23	  379.56
     65.7700	  595.00	  620.92	-1779.42	  379.67
     65.8700	  597.00	  603.56	-1760.06	  379.78
     65.9700	  574.00	  590.24	-1769.74	  379.90
     66.0700	  604.00	  580.49	-1729.99	  380.01
     66.1700	  528.00	  573.87	-1799.37	  380.13
     66.2700	  566.00	  569.94	-1757.44	  380.24
     66.3700	  538.00	  568.41	-1783.91	  380.35
     66.4700	  586.00	  569.00	-1736.50	  380.47
     66.5700	  530.00	  571.71	-1795.21	  380.58
     66.6700	  533.00	  576.56	-1797.06	  380.70
     66.7700	  543.00	  583.83	-1794.33	  380.81
     66.8700	  593.00	  594.68	-1755.18	  380.92
     66.9700	  578.00	  610.95	-1786.45	  381.04
     67.0700	  591.00	  635.65	-1798.15	  381.15
     67.1700	  656.00	  673.16	-1770.66	  381.26
     67.2700	  707.00	  729.37	-1775.87	  381.37
     67.3700	  845.00	  811.35	-1719.85	  381.49
     67.4700	  860.00	  925.94	-1819.44	  381.60
     67.5700	 1053.00	 1078.65	-1779.15	  381.71
     67.6700	 1285.00	 1270.96	-1739.46	  381.82
     67.7700	 1447.00	 1498.08	-1804.58	  381.94
     67.8700	 1678.00	 1746.95	-1822.45	  382.05
     67.9700	 2025.00	 1994.48	-1722.98	  382.16
     68.0700	 2218.00	 2207.33	-1742.83	  382.27
     68.1700	 2331.00	 2345.61	-1768.11	  382.38
     68.2700	 2423.00	 2376.10	-1706.60	  382.49
     68.3700	 2262.00	 2290.55	-1782.05	  382.60
     68.4700	 2152.00	 2111.29	-1712.79	  382.71
     68.5700	 1852.00	 1877.06	-1778.56	  382.82
     68.6700	 1633.00	 1625.64	-1746.14	  382.93
     68.7700	 1377.00	 1385.53	-1762.03	  383.04
     68.8700	 1171.00	 1174.70	-1757.20	  383.15
     68.9700	 1042.00	 1002.06	-1713.56	  383.25
     69.0700	  887.00	  868.86	-1735.36	  383.36
     69.1700	  805.00	  771.50	-1720.00	  383.47
     69.2700	  699.00	  703.36	-1757.86	  383.58
     69.3700	  662.00	  657.55	-1749.05	  383.68
     69.4700	  596.00	  627.38	-1784.88	  383.79
     69.5700	  573.00	  607.66	-1788.16	  383.89
     69.6700	  584.00	  594.64	-1764.14	  384.00
     69.7700	  604.00	  585.87	-1735.37	  384.10
     69.8700	  590.00	  579.84	-1743.34	  384.21
     69.9700	  559.00	  575.66	-1770.16	  384.31
     70.0700	  610.00	  572.86	-1716.36	  384.41
     70.1700	  559.00	  571.19	-1765.69	  384.52
     70.2700	  526.00	  570.53	-1798.03	  384.62
     70.3700	  570.00	  570.91	-1754.41	  384.72
     70.4700	  550.00	  572.44	-1775.94	  384.82
     70.5700	  596.00	  575.41	-1732.91	  384.92
     70.6700	  560.00	  580.36	-1773.86	  385.02
     70.7700	  602.00	  588.25	-1739.75	  385.12
     70.8700	  615.00	  600.50	-1739.00	  385.22
     70.9700	  609.00	  620.25	-1764.75	  385.32
     71.0700	  617.00	  648.76	-1785.26	  385.42
     71.1700	  663.00	  690.77	-1781.27	  385.51
     71.2700	  751.00	  750.67	-1753.17	  385.61
     71.3700	  880.00	  832.64	-1706.14	  385.70
     71.4700	  935.00	  939.72	-1758.22	  385.80
     71.5700	 1081.00	 1072.52	-1745.02	  385.89
     71.6700	 1227.00	 1228.02	-1754.52	  385.99
     71.7700	 1416.00	 1398.47	-1735.97	  386.08
     71.8700	 1507.00	 1570.51	-1817.01	  386.17
     71.9700	 1688.00	 1724.92	-1790.42	  386.26
     72.0700	 1870.00	 1838.08	-1721.58	  386.36
     72.1700	 1851.00	 1887.54	-1790.04	  386.45
     72.2700	 1817.00	 1861.76	-1798.26	  386.53
     72.3700	 1730.00	 1766.82	-1790.32	  386.62
     72.4700	 1576.00	 1622.78	-1800.28	  386.71
     72.5700	 1475.00	 1453.82	-1732.32	  386.80
     72.6700	 1343.00	 1280.80	-1691.30	  386.88
     72.7700	 1136.00	 1118.89	-1736.39	  386.97
     72.8700	  963.00	  977.57	-1768.07	  387.05
     72.9700	  858.00	  861.23	-1756.73	  387.14
     73.0700	  812.00	  770.28	-1711.78	  387.22
     73.1700	  747.00	  702.32	-1708.82	  387.30
     73.2700	  692.00	  653.44	-1714.94	  387.38
     73.3700	  685.00	  619.33	-1687.83	  387.47
     73.4700	  692.00	  595.96	-1657.46	  387.55
     73.5700	  612.00	  579.54	-1721.04	  387.62
     73.6700	  631.00	  568.61	-1691.11	  387.70
     73.7700	  614.00	  561.00	-1700.50	  387.78
     73.8700	  590.00	  555.61	-1719.11	  387.85
     73.9700	  594.00	  551.78	-1711.28	  387.93
     74.0700	  601.00	  549.11	-1701.61	  388.00
     74.1700	  580.00	  547.32	-1720.82	  388.08
     74.2700	  543.00	  546.23	-1756.73	  388.15
     74.3700	  587.00	  545.66	-1712.16	  388.22
     74.4700	  612.00	  545.40	-1686.90	  388.29
     74.5700	  606.00	  545.25	-1692.75	  388.36
     74.6700	  661.00	  544.96	-1637.46	  388.43
     74.7700	  639.00	  544.31	-1658.81	  388.50
     74.8700	  638.00	  543.22	-1658.72	  388.56
     74.9700	  632.00	  541.73	-1663.23	  388.63
     75.0700	  602.00	  540.06	-1691.56	  388.69
     75.1700	  599.00	  538.48	-1692.98	  388.76
     75.2700	  612.00	  537.30	-1678.80	  388.82
     75.3700	  585.00	  536.85	-1705.35	  388.88
     75.4700	  566.00	  537.46	-1724.96	  388.94
     75.5700	  573.00	  539.54	-1720.04	  389.00
     75.6700	  542.00	  543.49	-1754.99	  389.06
     75.7700	  563.00	  549.68	-1740.18	  389.11
     75.8700	  597.00	  558.58	-1715.08	  389.17
     75.9700	  572.00	  570.37	-1751.87	  389.22
     76.0700	  619.00	  585.03	-1719.53	  389.28
     76.1700	  644.00	  602.22	-1711.72	  389.33
     76.2700	  696.00	  621.16	-1678.66	  389.38
     76.3700	  629.00	  640.48	-1764.98	  389.43
     76.4700	  660.00	  658.57	-1752.07	  389.48
     76.5700	  704.00	  673.10	-1722.60	  389.53
     76.6700	  671.00	  681.74	-1764.24	  389.58
     76.7700	  665.00	  682.79	-1771.29	  389.62
     76.8700	  689.00	  675.98	-1740.48	  389.67
     76.9700	  674.00	  662.56	-1742.06	  389.71
     77.0700	  628.00	  644.85	-1770.35	  389.75
     77.1700	  640.00	  625.12	-1738.62	  389.79
     77.2700	  619.00	  605.29	-1739.79	  389.83
     77.3700	  542.00	  586.80	-1798.30	  389.87
     77.4700	  582.00	  570.55	-1742.05	  389.91
     77.5700	  521.00	  556.97	-1789.47	  389.94
     77.6700	  494.00	  546.15	-1805.65	  389.98
     77.7700	  507.00	  537.87	-1784.37	  390.01
     77.8700	  505.00	  531.56	-1780.06	  390.04
     77.9700	  508.00	  527.19	-1772.69	  390.07
     78.0700	  494.00	  524.15	-1783.65	  390.10
     78.1700	  510.00	  522.05	-1765.55	  390.13
     78.2700	  508.00	  520.62	-1766.12	  390.16
     78.3700	  465.00	  519.64	-1808.14	  390.18
     78.4700	  500.00	  518.97	-1772.47	  390.21
     78.5700	  469.00	  518.52	-1803.02	  390.23
     78.6700	  526.00	  518.23	-1745.73	  390.25
     78.7700	  506.00	  518.09	-1765.59	  390.27
     78.8700	  504.00	  518.07	-1767.57	  390.29
     78.9700	  509.00	  518.20	-1762.70	  390.31
     79.0700	  532.00	  518.48	-1739.98	  390.33
     79.1700	  483.00	  518.94	-1789.44	  390.34
     79.2700	  509.00	  519.61	-1764.11	  390.36
     79.3700	  484.00	  520.54	-1790.04	  390.37
     79.4700	  484.00	  521.76	-1791.26	  390.38
     79.5700	  515.00	  523.32	-1761.82	  390.39
     79.6700	  518.00	  525.27	-1760.77	  390.40
     79.7700	  531.00	  527.69	-1750.19	  390.40
     79.8700	  519.00	  530.66	-1765.16	  390.41
     79.9700	  534.00	  534.28	-1753.78	  390.41
     80.0700	  508.00	  538.69	-1784.19	  390.41
     80.1700	  562.00	  544.03	-1735.53	  390.42
     80.2700	  555.00	  550.51	-1749.01	  390.41
     80.3700	  529.00	  558.20	-1782.70	  390.41
     80.4700	  540.00	  567.75	-1781.25	  390.41
     80.5700	  600.00	  579.19	-1732.69	  390.40
     80.6700	  590.00	  592.55	-1756.05	  390.40
     80.7700	  572.00	  607.70	-1789.20	  390.39
     80.8700	  624.00	  624.16	-1753.66	  390.38
     80.9700	  611.00	  641.20	-1783.70	  390.37
     81.0700	  687.00	  657.83	-1724.33	  390.36
     81.1700	  649.00	  672.97	-1777.47	  390.35
     81.2700	  679.00	  685.68	-1760.18	  390.33
     81.3700	  725.00	  695.21	-1723.71	  390.31
     81.4700	  682.00	  701.02	-1772.52	  390.30
     81.5700	  728.00	  702.84	-1728.34	  390.28
     81.6700	  724.00	  700.66	-1730.16	  390.25
     81.7700	  748.00	  694.66	-1700.16	  390.23
     81.8700	  712.00	  685.14	-1726.64	  390.21
     81.9700	  711.00	  672.66	-1715.16	  390.18
     82.0700	  688.00	  658.03	-1723.53	  390.16
     82.1700	  708.00	  642.27	-1687.77	  390.13
     82.2700	  685.00	  626.35	-1694.85	  390.10
     82.3700	  656.00	  610.97	-1708.47	  390.06
     82.4700	  597.00	  596.62	-1753.12	  390.03
     82.5700	  578.00	  583.57	-1759.07	  390.00
     82.6700	  618.00	  572.03	-1707.53	  389.96
     82.7700	  596.00	  562.14	-1719.64	  389.92
     82.8700	  527.00	  554.00	-1780.50	  389.88
     82.9700	  530.00	  547.64	-1771.14	  389.84
     83.0700	  499.00	  543.05	-1797.55	  389.80
     83.1700	  559.00	  540.15	-1734.65	  389.75
     83.2700	  521.00	  538.85	-1771.35	  389.71
     83.3700	  513.00	  539.03	-1779.53	  389.66
     83.4700	  532.00	  540.43	-1761.93	  389.61
     83.5700	  538.00	  542.97	-1758.47	  389.56
     83.6700	  533.00	  546.28	-1766.78	  389.51
     83.7700	  530.00	  549.99	-1773.49	  389.46
     83.8700	  515.00	  553.74	-1792.24	  389.40
     83.9700	  503.00	  557.01	-1807.51	  389.34
     84.0700	  535.00	  559.30	-1777.80	  389.28
     84.1700	  553.00	  560.18	-1760.68	  389.22
     84.2700	  512.00	  559.43	-1800.93	  389.16
     84.3700	  564.00	  557.10	-1746.60	  389.10
     84.4700	  556.00	  553.46	-1750.96	  389.03
     84.5700	  540.00	  548.97	-1762.47	  388.97
     84.6700	  565.00	  544.05	-1732.55	  388.90
     84.7700	  528.00	  539.08	-1764.58	  388.83
     84.8700	  544.00	  534.35	-1743.85	  388.76
     84.9700	  520.00	  530.07	-1763.57	  388.69
     85.0700	  516.00	  526.37	-1763.87	  388.61
     85.1700	  540.00	  523.31	-1736.81	  388.53
     85.2700	  541.00	  520.87	-1733.37	  388.46
     85.3700	  508.00	  519.02	-1764.52	  388.38
     85.4700	  552.00	  517.69	-1719.19	  388.30
     85.5700	  478.00	  516.80	-1792.30	  388.21
     85.6700	  520.00	  516.30	-1749.80	  388.13
     85.7700	  546.00	  516.15	-1723.65	  388.04
     85.8700	  529.00	  516.33	-1740.83	  387.96
     85.9700	  512.00	  516.85	-1758.35	  387.87
     86.0700	  526.00	  517.79	-1745.29	  387.78
     86.1700	  495.00	  519.21	-1777.71	  387.68
     86.2700	  495.00	  521.26	-1779.76	  387.59
     86.3700	  566.00	  524.06	-1711.56	  387.49
     86.4700	  565.00	  527.78	-1716.28	  387.40
     86.5700	  541.00	  532.56	-1745.06	  387.30
     86.6700	  580.00	  538.51	-1712.01	  387.20
     86.7700	  543.00	  545.70	-1756.20	  387.09
     86.8700	  545.00	  554.08	-1762.58	  386.99
     86.9700	  572.00	  563.50	-1745.00	  386.88
     87.0700	  560.00	  573.67	-1767.17	  386.78
     87.1700	  569.00	  584.16	-1768.66	  386.67
     87.2700	  604.00	  594.36	-1743.86	  386.56
     87.3700	  591.00	  603.56	-1766.06	  386.44
     87.4700	  643.00	  610.92	-1721.42	  386.33
     87.5700	  612.00	  615.67	-1757.17	  386.22
     87.6700	  604.00	  617.24	-1766.74	  386.10
     87.7700	  592.00	  615.50	-1777.00	  385.98
     87.8700	  570.00	  610.80	-1794.30	  385.86
     87.9700	  590.00	  603.86	-1767.36	  385.74
     88.0700	  559.00	  595.54	-1790.04	  385.61
     88.1700	  617.00	  586.32	-1722.82	  385.49
     88.2700	  588.00	  577.78	-1743.28	  385.36
     88.3700	  549.00	  570.17	-1774.67	  385.23
     88.4700	  554.00	  564.00	-1763.50	  385.10
     88.5700	  565.00	  559.59	-1748.09	  384.97
     88.6700	  561.00	  557.13	-1749.63	  384.84
     88.7700	  548.00	  556.62	-1762.12	  384.70
     88.8700	  544.00	  557.93	-1767.43	  384.57
     88.9700	  565.00	  560.79	-1749.29	  384.43
     89.0700	  539.00	  564.79	-1779.29	  384.29
     89.1700	  521.00	  569.45	-1801.95	  384.15
     89.2700	  603.00	  574.21	-1724.71	  384.01
     89.3700	  612.00	  578.44	-1719.94	  383.86
     89.4700	  629.00	  581.52	-1706.02	  383.72
     89.5700	  628.00	  582.92	-1708.43	  383.57
     89.6700	  569.00	  582.35	-1766.85	  383.42
     89.7700	  566.00	  579.78	-1767.28	  383.27
     89.8700	  569.00	  575.48	-1759.98	  383.12
     89.9700	  540.00	  569.89	-1783.39	  382.96
     90.0700	  569.00	  563.52	-1748.02	  382.81
     90.1700	  528.00	  556.83	-1782.33	  382.65
     90.2700	  535.00	  550.23	-1768.73	  382.49
     90.3700	  538.00	  544.02	-1759.52	  382.33
     90.4700	  500.00	  538.42	-1791.92	  382.17
     90.5700	  570.00	  533.58	-1717.08	  382.01
     90.6700	  539.00	  529.55	-1744.05	  381.84
     90.7700	  526.00	  526.34	-1753.84	  381.68
     90.8700	  501.00	  523.89	-1776.39	  381.51
     90.9700	  498.00	  522.15	-1777.65	  381.34
     91.0700	  487.00	  521.04	-1787.54	  381.17
     91.1700	  463.00	  520.48	-1810.98	  381.00
     91.2700	  522.00	  520.43	-1751.93	  380.82
     91.3700	  542.00	  520.87	-1732.37	  380.65
     91.4700	  475.00	  521.80	-1800.30	  380.47
     91.5700	  487.00	  523.28	-1789.78	  380.29
     91.6700	  474.00	  525.41	-1804.91	  380.11
     91.7700	  502.00	  528.30	-1779.80	  379.93
     91.8700	  507.00	  532.11	-1778.61	  379.75
     91.9700	  549.00	  537.03	-1741.53	  379.57
     92.0700	  513.00	  543.24	-1783.74	  379.38
     92.1700	  480.00	  550.92	-1824.42	  379.19
     92.2700	  552.00	  560.23	-1761.73	  379.00
     92.3700	  572.00	  571.28	-1752.78	  378.81
     92.4700	  527.00	  584.08	-1810.58	  378.62
     92.5700	  583.00	  598.58	-1769.08	  378.43
     92.6700	  592.00	  614.61	-1776.11	  378.24
     92.7700	  598.00	  631.87	-1787.37	  378.04
     92.8700	  610.00	  649.93	-1793.43	  377.84
     92.9700	  630.00	  668.22	-1791.72	  377.65
     93.0700	  681.00	  686.08	-1758.58	  377.45
     93.1700	  683.00	  702.82	-1773.32	  377.25
     93.2700	  737.00	  717.88	-1734.38	  377.04
     93.3700	  770.00	  730.68	-1714.18	  376.84
     93.4700	  797.00	  741.86	-1698.36	  376.63
     93.5700	  776.00	  751.48	-1728.98	  376.43
     93.6700	  811.00	  760.05	-1702.55	  376.22
     93.7700	  756.00	  768.05	-1765.55	  376.01
     93.8700	  787.00	  775.86	-1742.36	  375.80
     93.9700	  804.00	  783.76	-1733.26	  375.59
     94.0700	  864.00	  792.06	-1681.56	  375.38
     94.1700	  789.00	  801.09	-1765.59	  375.16
     94.2700	  842.00	  811.20	-1722.70	  374.95
     94.3700	  833.00	  822.60	-1743.10	  374.73
     94.4700	  838.00	  835.20	-1750.70	  374.51
     94.5700	  862.00	  848.54	-1740.04	  374.29
     94.6700	  883.00	  861.72	-1732.22	  374.07
     94.7700	  874.00	  873.47	-1752.97	  373.85
     94.8700	  882.00	  882.25	-1753.75	  373.63
     94.9700	  863.00	  886.49	-1776.99	  373.41
     95.0700	  897.00	  884.89	-1741.39	  373.18
     95.1700	  939.00	  876.83	-1691.33	  372.95
     95.2700	  873.00	  862.53	-1743.03	  372.73
     95.3700	  837.00	  843.03	-1759.53	  372.50
     95.4700	  833.00	  819.89	-1740.39	  372.27
     95.5700	  789.00	  794.94	-1759.44	  372.04
     95.6700	  781.00	  770.00	-1742.50	  371.81
     95.7700	  767.00	  746.78	-1733.28	  371.57
     95.8700	  756.00	  726.87	-1724.37	  371.34
     95.9700	  724.00	  711.70	-1741.20	  371.10
     96.0700	  684.00	  702.52	-1772.02	  370.87
     96.1700	  676.00	  700.43	-1777.93	  370.63
     96.2700	  724.00	  706.33	-1735.83	  370.39
     96.3700	  729.00	  721.00	-1745.50	  370.15
     96.4700	  753.00	  744.94	-1745.44	  369.91
     96.5700	  738.00	  778.44	-1793.94	  369.67
     96.6700	  825.00	  821.46	-1749.96	  369.43
     96.7700	  839.00	  873.56	-1788.06	  369.19
     96.8700	  904.00	  933.90	-1783.40	  368.94
     96.9700	 1002.00	 1001.05	-1752.55	  368.70
     97.0700	 1111.00	 1073.09	-1715.59	  368.45
     97.1700	 1138.00	 1147.43	-1762.93	  368.21
     97.2700	 1222.00	 1220.91	-1752.41	  367.96
     97.3700	 1280.00	 1289.83	-1763.33	  367.71
     97.4700	 1326.00	 1350.04	-1777.54	  367.46
     97.5700	 1375.00	 1397.39	-1775.89	  367.21
     97.6700	 1412.00	 1428.19	-1769.69	  366.96
     97.7700	 1413.00	 1440.00	-1780.50	  366.71
     97.8700	 1403.00	 1432.15	-1782.65	  366.45
     97.9700	 1383.00	 1405.92	-1776.42	  366.20
     98.0700	 1345.00	 1364.08	-1772.58	  365.95
     98.1700	 1287.00	 1310.36	-1776.86	  365.69
     98.2700	 1177.00	 1248.77	-1825.27	  365.43
     98.3700	 1150.00	 1183.23	-1786.73	  365.18
     98.4700	 1150.00	 1117.36	-1720.86	  364.92
     98.5700	 1024.00	 1054.29	-1783.79	  364.66
     98.6700	  979.00	  996.75	-1771.25	  364.40
     98.7700	  978.00	  946.98	-1722.48	  364.15
     98.8700	  909.00	  906.76	-1751.26	  363.89
     98.9700	  840.00	  877.54	-1791.04	  363.63
     99.0700	  804.00	  860.36	-1809.86	  363.36
     99.1700	  815.00	  856.00	-1794.50	  363.10
     99.2700	  873.00	  864.94	-1745.44	  362.84
     99.3700	  898.00	  887.41	-1742.91	  362.58
     99.4700	  941.00	  923.36	-1735.86	  362.32
     99.5700	  961.00	  972.48	-1764.98	  362.05
     99.6700	  995.00	 1034.25	-1792.75	  361.79
     99.7700	 1103.00	 1107.68	-1758.18	  361.52
     99.8700	 1130.00	 1191.41	-1814.91	  361.26
     99.9700	 1291.00	 1283.55	-1746.05	  360.99
    100.0700	 1489.00	 1381.65	-1646.15	  360.73
    100.1700	 1476.00	 1482.72	-1760.22	  360.46
    100.2700	 1582.00	 1583.17	-1754.67	  360.19
    100.3700	 1648.00	 1679.11	-1784.61	  359.93
    100.4700	 1741.00	 1766.62	-1779.12	  359.66
    100.5700	 1815.00	 1842.25	-1780.75	  359.39
    100.6700	 1872.00	 1903.30	-1784.80	  359.12
    100.7700	 2006.00	 1947.93	-1695.43	  358.86
    100.8700	 2003.00	 1975.00	-1725.50	  358.59
    100.9700	 1995.00	 1983.80	-1742.30	  358.32
    101.0700	 1961.00	 1974.02	-1766.52	  358.05
    101.1700	 1932.00	 1945.88	-1767.38	  357.78
    101.2700	 1938.00	 1900.57	-1716.07	  357.51
    101.3700	 1850.00	 1840.51	-1744.01	  357.24
    101.4700	 1797.00	 1769.27	-1725.77	  356.98
    101.5700	 1630.00	 1691.12	-1814.62	  356.71
    101.6700	 1644.00	 1610.46	-1719.96	  356.44
    101.7700	 1541.00	 1531.34	-1743.84	  356.17
    101.8700	 1449.00	 1457.06	-1761.56	  355.90
    101.9700	 1468.00	 1390.05	-1675.55	  355.63
    102.0700	 1317.00	 1331.79	-1768.29	  355.36
    102.1700	 1278.00	 1282.88	-1758.38	  355.09
    102.2700	 1256.00	 1243.08	-1740.58	  354.82
    102.3700	 1250.00	 1211.37	-1714.87	  354.55
    102.4700	 1154.00	 1186.13	-1785.63	  354.28
    102.5700	 1141.00	 1165.19	-1777.69	  354.01
    102.6700	 1164.00	 1146.13	-1735.63	  353.74
    102.7700	 1155.00	 1126.58	-1725.08	  353.48
    102.8700	 1040.00	 1104.47	-1817.97	  353.21
    102.9700	 1072.00	 1078.42	-1759.92	  352.94
    103.0700	 1009.00	 1047.83	-1792.33	  352.67
    103.1700	 1015.00	 1012.90	-1751.40	  352.41
    103.2700	  988.00	  974.36	-1739.86	  352.14
    103.3700	  933.00	  933.32	-1753.82	  351.87
    103.4700	  906.00	  890.98	-1738.48	  351.61
    103.5700	  873.00	  848.53	-1729.03	  351.34
    103.6700	  839.00	  807.05	-1721.55	  351.07
    103.7700	  729.00	  767.44	-1791.94	  350.81
    103.8700	  715.00	  730.45	-1768.95	  350.54
    103.9700	  724.00	  696.63	-1726.13	  350.28
    104.0700	  715.00	  666.32	-1704.82	  350.02
    104.1700	  671.00	  639.69	-1722.19	  349.75
    104.2700	  683.00	  616.74	-1687.24	  349.49
    104.3700	  656.00	  597.33	-1694.83	  349.23
    104.4700	  574.00	  581.23	-1760.73	  348.97
    104.5700	  582.00	  568.12	-1739.62	  348.71
    104.6700	  519.00	  557.66	-1792.16	  348.45
    104.7700	  560.00	  549.49	-1742.99	  348.19
    104.8700	  541.00	  543.28	-1755.78	  347.93
    104.9700	  559.00	  538.70	-1733.20	  347.68
    105.0700	  592.00	  535.48	-1696.98	  347.42
    105.1700	  527.00	  533.39	-1759.89	  347.16
    105.2700	  519.00	  532.25	-1766.75	  346.91
    105.3700	  534.00	  531.92	-1751.42	  346.66
    105.4700	  549.00	  532.30	-1736.80	  346.40
    105.5700	  534.00	  533.32	-1752.82	  346.15
    105.6700	  562.00	  534.96	-1726.46	  345.90
    105.7700	  530.00	  537.23	-1760.73	  345.65
    105.8700	  553.00	  540.14	-1740.64	  345.40
    105.9700	  556.00	  543.76	-1741.26	  345.15
    106.0700	  557.00	  548.11	-1744.61	  344.91
    106.1700	  543.00	  553.28	-1763.78	  344.66
    106.2700	  535.00	  559.30	-1777.80	  344.42
    106.3700	  535.00	  566.17	-1784.67	  344.18
    106.4700	  595.00	  573.86	-1732.36	  343.93
    106.5700	  576.00	  582.30	-1759.80	  343.69
    106.6700	  571.00	  591.34	-1773.84	  343.45
    106.7700	  570.00	  600.84	-1784.34	  343.22
    106.8700	  595.00	  610.57	-1769.07	  342.98
    106.9700	  580.00	  620.25	-1793.75	  342.75
    107.0700	  636.00	  629.59	-1747.09	  342.51
    107.1700	  613.00	  638.27	-1778.77	  342.28
    107.2700	  650.00	  645.96	-1749.46	  342.05
    107.3700	  599.00	  652.41	-1806.91	  341.82
    107.4700	  674.00	  657.42	-1736.92	  341.60
    107.5700	  683.00	  660.94	-1731.44	  341.37
    107.6700	  645.00	  663.08	-1771.58	  341.15
    107.7700	  690.00	  664.09	-1727.59	  340.92
    107.8700	  738.00	  664.28	-1679.78	  340.70
    107.9700	  678.00	  664.05	-1739.55	  340.49
    108.0700	  631.00	  663.74	-1786.24	  340.27
    108.1700	  706.00	  663.69	-1711.19	  340.05
    108.2700	  648.00	  664.11	-1769.61	  339.84
    108.3700	  679.00	  665.15	-1739.65	  339.63
    108.4700	  636.00	  666.84	-1784.34	  339.42
    108.5700	  703.00	  669.12	-1719.62	  339.21
    108.6700	  672.00	  671.81	-1753.31	  339.01
    108.7700	  688.00	  674.65	-1740.15	  338.81
    108.8700	  690.00	  677.30	-1740.80	  338.61
    108.9700	  702.00	  679.34	-1730.84	  338.41
    109.0700	  692.00	  680.37	-1741.87	  338.21
    109.1700	  655.00	  680.00	-1778.50	  338.02
    109.2700	  716.00	  677.93	-1715.43	  337.82
    109.3700	  684.00	  674.01	-1743.51	  337.63
    109.4700	  683.00	  668.24	-1738.74	  337.45
    109.5700	  639.00	  660.78	-1775.28	  337.26
    109.6700	  660.00	  651.89	-1745.39	  337.08
    109.7700	  668.00	  641.90	-1727.40	  336.90
    109.8700	  683.00	  631.17	-1701.67	  336.72
    109.9700	  606.00	  620.06	-1767.56	  336.55
    110.0700	  590.00	  608.90	-1772.40	  336.37
    110.1700	  591.00	  597.98	-1760.48	  336.20
    110.2700	  622.00	  587.56	-1719.06	  336.04
    110.3700	  572.00	  577.83	-1759.33	  335.87
    110.4700	  578.00	  568.95	-1744.45	  335.71
    110.5700	  508.00	  561.03	-1806.53	  335.55
    110.6700	  603.00	  554.13	-1704.63	  335.40
    110.7700	  579.00	  548.28	-1722.78	  335.24
    110.8700	  601.00	  543.47	-1695.97	  335.09
    110.9700	  561.00	  539.65	-1732.15	  334.95
    111.0700	  531.00	  536.78	-1759.28	  334.80
    111.1700	  509.00	  534.76	-1779.26	  334.66
    111.2700	  562.00	  533.52	-1725.02	  334.52
    111.3700	  525.00	  532.97	-1761.47	  334.39
    111.4700	  567.00	  533.02	-1719.52	  334.26
    111.5700	  536.00	  533.59	-1751.09	  334.13
    111.6700	  563.00	  534.61	-1725.11	  334.00
    111.7700	  568.00	  536.01	-1721.51	  333.88
    111.8700	  565.00	  537.74	-1726.24	  333.76
    111.9700	  519.00	  539.74	-1774.24	  333.65
    112.0700	  520.00	  542.00	-1775.50	  333.53
    112.1700	  552.00	  544.48	-1745.98	  333.43
    112.2700	  520.00	  547.18	-1780.68	  333.32
    112.3700	  571.00	  550.10	-1732.60	  333.22
    112.4700	  523.00	  553.26	-1783.76	  333.12
    112.5700	  520.00	  556.69	-1790.19	  333.03
    112.6700	  544.00	  560.43	-1769.93	  332.94
    112.7700	  570.00	  564.52	-1748.02	  332.85
    112.8700	  563.00	  569.04	-1759.54	  332.77
    112.9700	  570.00	  574.07	-1757.57	  332.69
    113.0700	  592.00	  579.72	-1741.22	  332.62
    113.1700	  573.00	  586.13	-1766.63	  332.54
    113.2700	  626.00	  593.47	-1720.97	  332.48
    113.3700	  649.00	  601.97	-1706.47	  332.41
    113.4700	  612.00	  611.91	-1753.41	  332.36
    113.5700	  608.00	  623.67	-1769.17	  332.30
    113.6700	  642.00	  637.70	-1749.20	  332.25
    113.7700	  668.00	  654.57	-1740.07	  332.21
    113.8700	  697.00	  675.00	-1731.50	  332.16
    113.9700	  726.00	  699.84	-1727.34	  332.13
    114.0700	  728.00	  730.13	-1755.63	  332.09
    114.1700	  812.00	  767.10	-1708.60	  332.06
    114.2700	  834.00	  812.14	-1731.64	  332.04
    114.3700	  856.00	  866.92	-1764.42	  332.02
    114.4700	  928.00	  933.21	-1758.71	  332.01
    114.5700	 1061.00	 1013.02	-1705.52	  332.00
    114.6700	 1082.00	 1108.47	-1779.97	  331.99
    114.7700	 1245.00	 1221.72	-1730.22	  331.99
    114.8700	 1335.00	 1355.00	-1773.50	  331.99
    114.9700	 1616.00	 1510.33	-1647.83	  332.00
    115.0700	 1819.00	 1689.69	-1624.19	  332.02
    115.1700	 2038.00	 1894.57	-1610.07	  332.04
    115.2700	 2273.00	 2125.99	-1606.49	  332.06
    115.3700	 2516.00	 2384.46	-1621.96	  332.09
    115.4700	 2655.00	 2669.57	-1768.07	  332.12
    115.5700	 3054.00	 2980.19	-1679.69	  332.16
    115.6700	 3309.00	 3314.10	-1758.60	  332.21
    115.7700	 3693.00	 3667.93	-1728.43	  332.26
    115.8700	 4022.00	 4037.40	-1768.90	  332.31
    115.9700	 4475.00	 4416.83	-1695.33	  332.37
    116.0700	 4847.00	 4799.63	-1706.13	  332.44
    116.1700	 5120.00	 5177.92	-1811.42	  332.51
    116.2700	 5337.00	 5542.85	-1959.35	  332.59
    116.3700	 5845.00	 5884.86	-1793.36	  332.67
    116.4700	 6033.00	 6193.62	-1914.12	  332.76
    116.5700	 6379.00	 6458.82	-1833.32	  332.85
    116.6700	 6522.00	 6670.54	-1902.04	  332.95
    116.7700	 6795.00	 6820.09	-1778.59	  333.06
    116.8700	 7014.00	 6901.06	-1640.56	  333.17
    116.9700	 6665.00	 6909.87	-1998.37	  333.29
    117.0700	 6791.00	 6846.36	-1808.86	  333.41
    117.1700	 6703.00	 6713.79	-1764.29	  333.54
    117.2700	 6510.00	 6518.46	-1761.96	  333.68
    117.3700	 6187.00	 6268.74	-1835.24	  333.82
    117.4700	 5819.00	 5974.47	-1908.97	  333.97
    117.5700	 5671.00	 5645.84	-1728.34	  334.12
    117.6700	 5329.00	 5293.07	-1717.57	  334.29
    117.7700	 4978.00	 4925.82	-1701.32	  334.45
    117.8700	 4507.00	 4552.70	-1799.20	  334.63
    117.9700	 4180.00	 4181.60	-1755.10	  334.81
    118.0700	 3948.00	 3819.01	-1624.51	  335.00
    118.1700	 3654.00	 3470.48	-1569.98	  335.19
    118.2700	 3268.00	 3140.39	-1625.89	  335.39
    118.3700	 2856.00	 2831.86	-1729.36	  335.60
    118.4700	 2667.00	 2547.17	-1633.67	  335.81
    118.5700	 2280.00	 2287.47	-1760.97	  336.04
    118.6700	 2094.00	 2053.20	-1712.70	  336.26
    118.7700	 1811.00	 1844.11	-1786.61	  336.50
    118.8700	 1612.00	 1659.26	-1800.76	  336.74
    118.9700	 1469.00	 1497.37	-1781.87	  336.99
    119.0700	 1337.00	 1356.74	-1773.24	  337.25
    119.1700	 1199.00	 1235.55	-1790.05	  337.52
    119.2700	 1175.00	 1131.82	-1710.32	  337.79
    119.3700	  982.00	 1043.53	-1815.03	  338.07
    119.4700	 1029.00	  968.78	-1693.28	  338.35
    119.5700	  929.00	  905.71	-1730.21	  338.65
    119.6700	  817.00	  852.65	-1789.15	  338.95
    119.7700	  755.00	  808.08	-1806.58	  339.26
    119.8700	  744.00	  770.67	-1780.17	  339.58
    119.9700	  698.00	  739.26	-1794.76	  339.90
    120.0700	  673.00	  712.86	-1793.36	  340.24
    120.1700	  703.00	  690.65	-1741.15	  340.58
    120.2700	  629.00	  671.93	-1796.43	  340.93
    120.3700	  655.00	  656.14	-1754.64	  341.29
    120.4700	  621.00	  642.81	-1775.31	  341.65
    120.5700	  627.00	  631.57	-1758.07	  342.03
    120.6700	  584.00	  622.11	-1791.61	  342.41
    120.7700	  548.00	  614.20	-1819.70	  342.80
    120.8700	  573.00	  607.63	-1788.13	  343.20
    120.9700	  609.00	  602.26	-1746.76	  343.61
    121.0700	  585.00	  597.96	-1766.46	  344.02
    121.1700	  611.00	  594.63	-1737.13	  344.45
    121.2700	  574.00	  592.17	-1771.67	  344.88
    121.3700	  554.00	  590.53	-1790.03	  345.32
    121.4700	  555.00	  589.64	-1788.14	  345.78
    121.5700	  542.00	  589.43	-1800.93	  346.24
    121.6700	  566.00	  589.85	-1777.35	  346.70
    121.7700	  578.00	  590.86	-1766.36	  347.18
    121.8700	  610.00	  592.38	-1735.88	  347.67
    121.9700	  580.00	  594.36	-1767.86	  348.17
    122.0700	  579.00	  596.74	-1771.24	  348.67
    122.1700	  593.00	  599.43	-1759.93	  349.19
    122.2700	  578.00	  602.37	-1777.87	  349.71
    122.3700	  577.00	  605.47	-1781.97	  350.25
    122.4700	  658.00	  608.63	-1704.13	  350.79
    122.5700	  647.00	  611.77	-1718.27	  351.35
    122.6700	  617.00	  614.78	-1751.28	  351.91
    122.7700	  641.00	  617.56	-1730.06	  352.48
    122.8700	  626.00	  620.02	-1747.52	  353.07
    122.9700	  625.00	  622.08	-1750.58	  353.66
    123.0700	  639.00	  623.65	-1738.15	  354.26
    123.1700	  649.00	  624.69	-1729.19	  354.88
    123.2700	  641.00	  625.16	-1737.66	  355.50
    123.3700	  656.00	  625.04	-1722.54	  356.13
    123.4700	  633.00	  624.38	-1744.88	  356.78
    123.5700	  645.00	  623.20	-1731.70	  357.43
    123.6700	  625.00	  621.56	-1750.06	  358.10
    123.7700	  640.00	  619.51	-1733.01	  358.77
    123.8700	  595.00	  617.11	-1775.61	  359.46
    123.9700	  626.00	  614.45	-1741.95	  360.16
    124.0700	  625.00	  611.58	-1740.08	  360.87
    124.1700	  577.00	  608.57	-1785.07	  361.59
    124.2700	  652.00	  605.49	-1706.99	  362.32
    124.3700	  600.00	  602.40	-1755.90	  363.06
    124.4700	  609.00	  599.32	-1743.82	  363.81
    124.5700	  534.00	  596.34	-1815.84	  364.57
    124.6700	  646.00	  593.48	-1700.98	  365.35
    124.7700	  598.00	  590.77	-1746.27	  366.13
    124.8700	  605.00	  588.25	-1736.75	  366.93
    124.9700	  548.00	  478.40	-1683.90	  367.74
    125.0700	  605.00	  479.22	-1753.50	  368.56
    125.1700	  604.00	  480.05	-1753.50	  369.39
    125.2700	  609.00	  480.90	-1753.50	  370.24
    125.3700	  538.00	  481.75	-1753.50	  371.09
    125.4700	  534.00	  482.62	-1753.50	  371.96
    125.5700	  577.00	  483.50	-1753.50	  372.84
    125.6700	  554.00	  484.39	-1753.50	  373.73
    125.7700	  575.00	  485.30	-1753.50	  374.64
    125.8700	  550.00	  486.22	-1753.50	  375.55
    125.9700	  519.00	  487.14	-1753.50	  376.48
    126.0700	  544.00	  488.09	-1753.50	  377.42
    126.1700	  592.00	  489.04	-1753.50	  378.38
    126.2700	  544.00	  490.01	-1753.50	  379.34
    126.3700	  571.00	  490.98	-1753.50	  380.32
    126.4700	  594.00	  491.98	-1753.50	  381.31
    126.5700	  586.00	  492.98	-1753.50	  382.32
    126.6700	  556.00	  494.00	-1753.50	  383.34
    126.7700	  565.00	  495.03	-1753.50	  384.37
    126.8700	  611.00	  496.07	-1753.50	  385.41
    126.9700	  582.00	  497.13	-1753.50	  386.47
    127.0700	  575.00	  498.20	-1753.50	  387.54
    127.1700	  601.00	  499.29	-1753.50	  388.62
    127.2700	  653.00	  500.38	-1753.50	  389.72
    127.3700	  603.00	  501.50	-1753.50	  390.83
    127.4700	  616.00	  502.62	-1753.50	  391.96
    127.5700	  586.00	  503.76	-1753.50	  393.09
    127.6700	  634.00	  504.91	-1753.50	  394.25
    127.7700	  630.00	  506.08	-1753.50	  395.41
    127.8700	  679.00	  507.26	-1753.50	  396.59
    127.9700	  729.00	  508.45	-1753.50	  397.79
    128.0700	  676.00	  509.66	-1753.50	  399.00
    128.1700	  729.00	  510.88	-1753.50	  400.22
    128.2700	  786.00	  512.12	-1753.50	  401.46
    128.3700	  711.00	  513.37	-1753.50	  402.71
    128.4700	  710.00	  514.64	-1753.50	  403.98
    128.5700	    0.00	  515.92	-1753.50	  405.26
    128.6700	    0.00	  517.22	-1753.50	  406.55
     12.3281	        	        	        	        	       0	(  0  0  2)	  0  1
     24.9314	        	        	        	        	       0	(  0  0  4)	  0  1
     28.3757	        	        	        	        	       0	(  1  0  0)	  0  1
     29.0741	        	        	        	        	       0	(  1  0  1)	  0  1
     31.0838	        	        	        	        	       0	(  1  0  2)	  0  1
     34.1977	        	        	        	        	       0	(  1  0  3)	  0  1
     37.8522	        	        	        	        	       0	(  0  0  6)	  0  1
     38.1818	        	        	        	        	       0	(  1  0  4)	  0  1
     42.8403	        	        	        	        	       0	(  1  0  5)	  0  1
     48.0339	        	        	        	        	       0	(  1  0  6)	  0  1
     50.3486	        	        	        	        	       0	(  1  1  0)	  0  1
     51.2980	        	        	        	        	       0	(  0  0  8)	  0  1
     52.0750	        	        	        	        	       0	(  1  1  2)	  0  1
     53.6752	        	        	        	        	       0	(  1  0  7)	  0  1
     57.0329	        	        	        	        	       0	(  1  1  4)	  0  1
     58.8611	        	        	        	        	       0	(  2  0  0)	  0  1
     59.2536	        	        	        	        	       0	(  2  0  1)	  0  1
     59.7177	        	        	        	        	       0	(  1  0  8)	  0  1
     60.4214	        	        	        	        	       0	(  2  0  2)	  0  1
     62.3388	        	        	        	        	       0	(  2  0  3)	  0  1
     64.7440	        	        	        	        	       0	(  1  1  6)	  0  1
     64.9686	        	        	        	        	       0	(  2  0  4)	  0  1
     65.5558	        	        	        	        	       0	(  0  0 10)	  0  1
     66.1476	        	        	        	        	       0	(  1  0  9)	  0  1
     68.2703	        	        	        	        	       0	(  2  0  5)	  0  1
     72.2070	        	        	        	        	       0	(  2  0  6)	  0  1
     72.9792	        	        	        	        	       0	(  1  0 10)	  0  1
     74.8050	        	        	        	        	       0	(  1  1  8)	  0  1
     76.7523	        	        	        	        	       0	(  2  0  7)	  0  1
     80.2549	        	        	        	        	       0	(  1  0 11)	  0  1
     81.0730	        	        	        	        	       0	(  0  0 12)	  0  1
     81.1507	        	        	        	        	       0	(  2  1  0)	  0  1
     81.4915	        	        	        	        	       0	(  2  1  1)	  0  1
     81.8960	        	        	        	        	       0	(  2  0  8)	  0  1
     82.5122	        	        	        	        	       0	(  2  1  2)	  0  1
     84.2082	        	        	        	        	       0	(  2  1  3)	  0  1
     86.5746	        	        	        	        	       0	(  2  1  4)	  0  1
     87.1092	        	        	        	        	       0	(  1  1 10)	  0  1
     87.6502	        	        	        	        	       0	(  2  0  9)	  0  1
     88.0508	        	        	        	        	       0	(  1  0 12)	  0  1
     89.6095	        	        	        	        	       0	(  2  1  5)	  0  1
     93.3186	        	        	        	        	       0	(  2  1  6)	  0  1
     94.0576	        	        	        	        	       0	(  2  0 10)	  0  1
     95.0788	        	        	        	        	       0	(  3  0  0)	  0  1
     95.4173	        	        	        	        	       0	(  3  0  1)	  0  1
     96.4340	        	        	        	        	       0	(  3  0  2)	  0  1
     96.4909	        	        	        	        	       0	(  1  0 13)	  0  1
     97.7220	        	        	        	        	       0	(  2  1  7)	  0  1
     98.1332	        	        	        	        	       0	(  3  0  3)	  0  1
     98.6661	        	        	        	        	       0	(  0  0 14)	  0  1
    100.5249	        	        	        	        	       0	(  3  0  4)	  0  1
    101.2046	        	        	        	        	       0	(  2  0 11)	  0  1
    102.0293	        	        	        	        	       0	(  1  1 12)	  0  1
    102.8635	        	        	        	        	       0	(  2  1  8)	  0  1
    103.6284	        	        	        	        	       0	(  3  0  5)	  0  1
    105.7787	        	        	        	        	       0	(  1  0 14)	  0  1
    107.4794	        	        	        	        	       0	(  3  0  6)	  0  1
    108.8252	        	        	        	        	       0	(  2  1  9)	  0  1
    109.2491	        	        	        	        	       0	(  2  0 12)	  0  1
    112.1410	        	        	        	        	       0	(  3  0  7)	  0  1
    115.7559	        	        	        	        	       0	(  2  1 10)	  0  1
    116.2723	        	        	        	        	       0	(  1  0 15)	  0  1
    116.8926	        	        	        	        	       0	(  2  2  0)	  0  1
    117.7234	        	        	        	        	       0	(  3  0  8)	  0  1
    118.4163	        	        	        	        	       0	(  2  2  2)	  0  1
    118.4807	        	        	        	        	       0	(  2  0 13)	  0  1
    120.2555	        	        	        	        	       0	(  0  0 16)	  0  1
    120.9660	        	        	        	        	       0	(  1  1 14)	  0  1
    123.1305	        	        	        	        	       0	(  2  2  4)	  0  1
    123.9321	        	        	        	        	       0	(  2  1 11)	  0  1
    124.4249	        	        	        	        	       0	(  3  0  9)	  0  1
    125.0064	        	        	        	        	       0	(  3  1  0)	  0  1
    125.4195	        	        	        	        	       0	(  3  1  1)	  0  1
    126.6719	        	        	        	        	       0	(  3  1  2)	  0  1
    128.6990	        	        	        	        	       0	(  1  0 16)	  0  1
    128.8064	        	        	        	        	       0	(  3  1  3)	  0  1
    129.4872	        	        	        	        	       0	(  2  0 14)	  0  1
    131.6348	        	        	        	        	       0	(  2  2  6)	  0  1
    131.9083	        	        	        	        	       0	(  3  1  4)	  0  1
    132.6311	        	        	        	        	       0	(  3  0 10)	  0  1
    133.9262	        	        	        	        	       0	(  2  1 12)	  0  1
    136.1362	        	        	        	        	       0	(  3  1  5)	  0  1
    141.7995	        	        	        	        	       0	(  3  1  6)	  0  1
    143.2346	        	        	        	        	       0	(  3  0 11)	  0  1
    143.7916	        	        	        	        	       0	(  2  0 15)	  0  1
    145.0630	        	        	        	        	       0	(  1  0 17)	  0  1
    146.0457	        	        	        	        	       0	(  2  2  8)	  0  1
    147.2637	        	        	        	        	       0	(  2  1 13)	  0  1
    149.6053	        	        	        	        	       0	(  3  1  7)	  0  1
    150.2533	        	        	        	        	       0	(  1  1 16)	  0  1
    154.7932	        	        	        	        	       0	(  0  0 18)	  0  1
    159.5403	        	        	        	        	       0	(  3  0 12)	  0  1
    159.7627	        	        	        	        	       0	(  4  0  0)	  0  1
    160.7668	        	        	        	        	       0	(  4  0  1)	  0  1
    162.0301	        	        	        	        	       0	(  3  1  8)	  0  1
    164.1445	        	        	        	        	       0	(  4  0  2)	  0  1
    171.9696	        	        	        	        	       0	(  2  0 16)	  0  1
    172.6032	        	        	        	        	       0	(  4  0  3)	  0  1
