MSG Master    CELL:    5.87727   5.87727  23.07797   90.0000   90.0000  120.0000   SPGR: P 63/m m c             TEMP:    458.35
  2   1280     2.52000     0.00000    -0.08561     0.00000     0.00000    0
    95    95     0     0     2
       0.00000      10.00000
     125.00000     130.00000
 2Theta	Yobs	Ycal	Yobs-Ycal	Backg	Posr	(hkl)	K
      0.7700	    0.00	  974.91	-2273.25	  836.03
      0.8700	    0.00	  971.59	-2273.25	  832.71
      0.9700	   40.00	  968.28	-2273.25	  829.40
      1.0700	   54.00	  965.00	-2273.25	  826.12
      1.1700	   45.00	  961.74	-2273.25	  822.86
      1.2700	   46.00	  958.50	-2273.25	  819.62
      1.3700	   42.00	  955.28	-2273.25	  816.40
      1.4700	  104.00	  952.08	-2273.25	  813.20
      1.5700	  274.00	  948.90	-2273.25	  810.02
      1.6700	  482.00	  945.74	-2273.25	  806.86
      1.7700	  575.00	  942.61	-2273.25	  803.73
      1.8700	  603.00	  939.49	-2273.25	  800.61
      1.9700	  767.00	  936.39	-2273.25	  797.51
      2.0700	  739.00	  933.32	-2273.25	  794.44
      2.1700	  760.00	  930.26	-2273.25	  791.38
      2.2700	  752.00	  927.22	-2273.25	  788.34
      2.3700	  736.00	  924.21	-2273.25	  785.33
      2.4700	  759.00	  921.21	-2273.25	  782.33
      2.5700	  686.00	  918.23	-2273.25	  779.35
      2.6700	  647.00	  915.27	-2273.25	  776.39
      2.7700	  665.00	  912.34	-2273.25	  773.46
      2.8700	  662.00	  909.42	-2273.25	  770.54
      2.9700	  616.00	  906.52	-2273.25	  767.64
      3.0700	  627.00	  903.64	-2273.25	  764.76
      3.1700	  628.00	  900.78	-2273.25	  761.90
      3.2700	  723.00	  897.94	-2273.25	  759.06
      3.3700	  900.00	  895.11	-2273.25	  756.23
      3.4700	 1059.00	  892.31	-2273.25	  753.43
      3.5700	 1195.00	  889.52	-2273.25	  750.64
      3.6700	 1292.00	  886.76	-2273.25	  747.88
      3.7700	 1436.00	  884.01	-2273.25	  745.13
      3.8700	 1520.00	  881.28	-2273.25	  742.40
      3.9700	 1582.00	  878.57	-2273.25	  739.69
      4.0700	 1637.00	  875.88	-2273.25	  737.00
      4.1700	 1731.00	  873.21	-2273.25	  734.33
      4.2700	 1671.00	  870.55	-2273.25	  731.67
      4.3700	 1712.00	  867.92	-2273.25	  729.03
      4.4700	 1602.00	  865.30	-2273.25	  726.42
      4.5700	 1587.00	  862.70	-2273.25	  723.82
      4.6700	 1530.00	  860.11	-2273.25	  721.23
      4.7700	 1485.00	  857.55	-2273.25	  718.67
      4.8700	 1430.00	  855.00	-2273.25	  716.12
      4.9700	 1331.00	  852.47	-2273.25	  713.59
      5.0700	 1366.00	  849.96	-2273.25	  711.08
      5.1700	 1376.00	  847.47	-2273.25	  708.59
      5.2700	 1350.00	  844.99	-2273.25	  706.11
      5.3700	 1294.00	  842.53	-2273.25	  703.65
      5.4700	 1279.00	  840.09	-2273.25	  701.21
      5.5700	 1158.00	  837.66	-2273.25	  698.78
      5.6700	 1179.00	  835.26	-2273.25	  696.38
      5.7700	 1186.00	  832.87	-2273.25	  693.99
      5.8700	 1089.00	  830.49	-2273.25	  691.61
      5.9700	 1207.00	  828.14	-2273.25	  689.26
      6.0700	 1112.00	  825.80	-2273.25	  686.92
      6.1700	 1119.00	  823.47	-2273.25	  684.59
      6.2700	 1105.00	  821.17	-2273.25	  682.29
      6.3700	 1031.00	  818.88	-2273.25	  680.00
      6.4700	 1056.00	  816.61	-2273.25	  677.73
      6.5700	 1049.00	  814.35	-2273.25	  675.47
      6.6700	 1047.00	  812.11	-2273.25	  673.23
      6.7700	  947.00	  809.89	-2273.25	  671.01
      6.8700	  935.00	  807.68	-2273.25	  668.80
      6.9700	 1026.00	  805.49	-2273.25	  666.61
      7.0700	  944.00	  803.31	-2273.25	  664.43
      7.1700	  927.00	  801.15	-2273.25	  662.27
      7.2700	  899.00	  799.01	-2273.25	  660.13
      7.3700	  890.00	  796.88	-2273.25	  658.00
      7.4700	  902.00	  794.77	-2273.25	  655.89
      7.5700	  886.00	  792.67	-2273.25	  653.79
      7.6700	  860.00	  790.59	-2273.25	  651.71
      7.7700	  816.00	  788.53	-2273.25	  649.65
      7.8700	  848.00	  786.48	-2273.25	  647.60
      7.9700	  857.00	  784.44	-2273.25	  645.56
      8.0700	  799.00	  782.43	-2273.25	  643.55
      8.1700	  809.00	  780.42	-2273.25	  641.54
      8.2700	  762.00	  778.43	-2273.25	  639.55
      8.3700	  798.00	  776.46	-2273.25	  637.58
      8.4700	  819.00	  774.50	-2273.25	  635.62
      8.5700	  797.00	  772.56	-2273.25	  633.68
      8.6700	  840.00	  770.63	-2273.25	  631.75
      8.7700	  775.00	  768.72	-2273.25	  629.84
      8.8700	  757.00	  766.82	-2273.25	  627.94
      8.9700	  731.00	  764.94	-2273.25	  626.06
      9.0700	  795.00	  763.07	-2273.25	  624.19
      9.1700	  823.00	  761.21	-2273.25	  622.33
      9.2700	  785.00	  759.37	-2273.25	  620.49
      9.3700	  795.00	  757.55	-2273.25	  618.67
      9.4700	  793.00	  755.74	-2273.25	  616.85
      9.5700	  769.00	  753.94	-2273.25	  615.06
      9.6700	  700.00	  752.15	-2273.25	  613.27
      9.7700	  777.00	  750.39	-2273.25	  611.51
      9.8700	  734.00	  748.63	-2273.25	  609.75
      9.9700	  722.00	  746.89	-2273.25	  608.01
     10.0700	  709.00	  747.31	-2311.56	  606.28
     10.1700	  757.00	  745.83	-2262.08	  604.57
     10.2700	  756.00	  744.41	-2261.66	  602.87
     10.3700	  730.00	  743.07	-2286.32	  601.18
     10.4700	  718.00	  741.82	-2297.07	  599.51
     10.5700	  764.00	  740.71	-2249.96	  597.85
     10.6700	  757.00	  739.78	-2256.03	  596.21
     10.7700	  769.00	  739.13	-2243.38	  594.58
     10.8700	  726.00	  738.84	-2286.09	  592.96
     10.9700	  733.00	  739.01	-2279.26	  591.35
     11.0700	  732.00	  739.68	-2280.93	  589.76
     11.1700	  703.00	  740.89	-2311.14	  588.18
     11.2700	  747.00	  742.65	-2268.90	  586.62
     11.3700	  730.00	  745.01	-2288.26	  585.06
     11.4700	  765.00	  748.06	-2256.31	  583.52
     11.5700	  797.00	  751.92	-2228.17	  582.00
     11.6700	  705.00	  756.82	-2325.07	  580.48
     11.7700	  761.00	  763.01	-2275.26	  578.98
     11.8700	  781.00	  770.77	-2263.02	  577.49
     11.9700	  808.00	  780.16	-2245.41	  576.02
     12.0700	  840.00	  790.70	-2223.95	  574.55
     12.1700	  858.00	  800.88	-2216.13	  573.10
     12.2700	  858.00	  807.69	-2222.94	  571.66
     12.3700	  834.00	  806.62	-2245.87	  570.24
     12.4700	  802.00	  794.68	-2265.93	  568.82
     12.5700	  804.00	  775.11	-2244.35	  567.42
     12.6700	  799.00	  755.00	-2229.25	  566.03
     12.7700	  680.00	  738.55	-2331.80	  564.65
     12.8700	  702.00	  726.51	-2297.76	  563.29
     12.9700	  683.00	  718.12	-2308.37	  561.93
     13.0700	  692.00	  712.30	-2293.55	  560.59
     13.1700	  690.00	  708.10	-2291.35	  559.26
     13.2700	  696.00	  704.86	-2282.11	  557.94
     13.3700	  731.00	  702.19	-2244.44	  556.64
     13.4700	  698.00	  699.87	-2275.12	  555.34
     13.5700	  672.00	  697.79	-2299.04	  554.06
     13.6700	  698.00	  695.89	-2271.14	  552.79
     13.7700	  699.00	  694.11	-2268.36	  551.53
     13.8700	  664.00	  692.44	-2301.69	  550.28
     13.9700	  671.00	  690.85	-2293.10	  549.04
     14.0700	  673.00	  689.32	-2289.57	  547.81
     14.1700	  672.00	  687.86	-2289.11	  546.60
     14.2700	  669.00	  686.44	-2290.69	  545.39
     14.3700	  729.00	  685.06	-2229.31	  544.20
     14.4700	  678.00	  683.71	-2278.96	  543.02
     14.5700	  664.00	  682.40	-2291.65	  541.85
     14.6700	  687.00	  681.12	-2267.37	  540.69
     14.7700	  693.00	  679.86	-2260.11	  539.54
     14.8700	  693.00	  678.62	-2258.87	  538.40
     14.9700	  610.00	  677.41	-2340.66	  537.27
     15.0700	  654.00	  676.21	-2295.46	  536.15
     15.1700	  714.00	  675.04	-2234.29	  535.05
     15.2700	  709.00	  673.88	-2238.13	  533.95
     15.3700	  638.00	  672.74	-2307.99	  532.87
     15.4700	  674.00	  671.61	-2270.86	  531.79
     15.5700	  631.00	  670.50	-2312.75	  530.73
     15.6700	  673.00	  669.40	-2269.65	  529.67
     15.7700	  668.00	  668.32	-2273.57	  528.63
     15.8700	  668.00	  667.25	-2272.50	  527.59
     15.9700	  687.00	  666.19	-2252.44	  526.57
     16.0700	  694.00	  665.15	-2244.40	  525.55
     16.1700	  661.00	  664.12	-2276.37	  524.55
     16.2700	  644.00	  663.10	-2292.35	  523.56
     16.3700	  705.00	  662.09	-2230.34	  522.57
     16.4700	  659.00	  661.09	-2275.34	  521.60
     16.5700	  636.00	  660.11	-2297.36	  520.63
     16.6700	  598.00	  659.14	-2334.39	  519.68
     16.7700	  624.00	  658.17	-2307.42	  518.73
     16.8700	  675.00	  657.22	-2255.47	  517.80
     16.9700	  699.00	  656.28	-2230.53	  516.87
     17.0700	  665.00	  655.35	-2263.60	  515.95
     17.1700	  675.00	  654.43	-2252.68	  515.05
     17.2700	  645.00	  653.52	-2281.77	  514.15
     17.3700	  628.00	  652.62	-2297.87	  513.26
     17.4700	  663.00	  651.73	-2261.98	  512.38
     17.5700	  682.00	  650.85	-2242.10	  511.51
     17.6700	  676.00	  649.98	-2247.23	  510.65
     17.7700	  658.00	  649.12	-2264.37	  509.80
     17.8700	  653.00	  648.27	-2268.52	  508.96
     17.9700	  631.00	  647.43	-2289.68	  508.12
     18.0700	  693.00	  646.60	-2226.85	  507.30
     18.1700	  687.00	  645.78	-2232.03	  506.48
     18.2700	  668.00	  644.97	-2250.22	  505.67
     18.3700	  681.00	  644.17	-2236.42	  504.88
     18.4700	  578.00	  643.37	-2338.62	  504.09
     18.5700	  654.00	  642.59	-2261.84	  503.30
     18.6700	  613.00	  641.81	-2302.06	  502.53
     18.7700	  635.00	  641.05	-2279.30	  501.77
     18.8700	  634.00	  640.29	-2279.54	  501.01
     18.9700	  666.00	  639.54	-2246.79	  500.27
     19.0700	  655.00	  640.06	-2258.31	  499.53
     19.1700	  619.00	  641.47	-2295.72	  498.80
     19.2700	  629.00	  640.82	-2285.06	  498.07
     19.3700	  677.00	  640.18	-2236.43	  497.36
     19.4700	  647.00	  639.55	-2265.80	  496.66
     19.5700	  652.00	  638.93	-2260.18	  495.96
     19.6700	  647.00	  638.33	-2264.58	  495.27
     19.7700	  629.00	  637.73	-2281.98	  494.59
     19.8700	  651.00	  637.15	-2259.40	  493.91
     19.9700	  598.00	  636.58	-2311.83	  493.25
     20.0700	  584.00	  636.02	-2325.27	  492.59
     20.1700	  584.00	  635.52	-2324.77	  491.94
     20.2700	  703.00	  634.99	-2205.24	  491.30
     20.3700	  643.00	  634.46	-2264.71	  490.66
     20.4700	  691.00	  633.95	-2216.20	  490.04
     20.5700	  630.00	  633.45	-2276.70	  489.42
     20.6700	  621.00	  632.97	-2285.22	  488.81
     20.7700	  623.00	  632.49	-2282.74	  488.20
     20.8700	  632.00	  632.03	-2273.28	  487.61
     20.9700	  642.00	  631.59	-2262.84	  487.02
     21.0700	  611.00	  631.15	-2293.40	  486.44
     21.1700	  636.00	  630.73	-2267.98	  485.86
     21.2700	  659.00	  630.33	-2244.58	  485.29
     21.3700	  676.00	  629.94	-2227.19	  484.73
     21.4700	  624.00	  629.56	-2278.81	  484.18
     21.5700	  602.00	  629.21	-2300.46	  483.64
     21.6700	  610.00	  628.86	-2292.11	  483.10
     21.7700	  655.00	  628.54	-2246.79	  482.57
     21.8700	  608.00	  628.23	-2293.48	  482.04
     21.9700	  628.00	  627.94	-2273.19	  481.52
     22.0700	  648.00	  627.67	-2252.92	  481.01
     22.1700	  613.00	  627.42	-2287.67	  480.51
     22.2700	  614.00	  627.19	-2286.44	  480.01
     22.3700	  643.00	  627.19	-2257.44	  479.52
     22.4700	  650.00	  627.01	-2250.26	  479.04
     22.5700	  613.00	  626.86	-2287.11	  478.56
     22.6700	  630.00	  626.73	-2269.98	  478.09
     22.7700	  581.00	  626.64	-2318.89	  477.63
     22.8700	  623.00	  626.57	-2276.82	  477.17
     22.9700	  604.00	  626.54	-2295.79	  476.72
     23.0700	  685.00	  626.55	-2214.80	  476.27
     23.1700	  630.00	  626.60	-2269.85	  475.83
     23.2700	  663.00	  626.71	-2236.96	  475.40
     23.3700	  625.00	  626.86	-2275.11	  474.98
     23.4700	  630.00	  627.09	-2270.34	  474.56
     23.5700	  641.00	  627.39	-2259.64	  474.14
     23.6700	  630.00	  627.79	-2271.04	  473.74
     23.7700	  631.00	  628.31	-2270.56	  473.34
     23.8700	  662.00	  628.98	-2240.23	  472.94
     23.9700	  655.00	  629.87	-2248.12	  472.55
     24.0700	  634.00	  631.08	-2270.33	  472.17
     24.1700	  657.00	  632.78	-2249.03	  471.79
     24.2700	  663.00	  635.21	-2245.46	  471.42
     24.3700	  650.00	  638.73	-2261.98	  471.05
     24.4700	  686.00	  643.74	-2230.99	  470.70
     24.5700	  686.00	  650.57	-2237.82	  470.34
     24.6700	  712.00	  659.22	-2220.47	  469.99
     24.7700	  688.00	  669.40	-2254.65	  469.65
     24.8700	  744.00	  679.85	-2209.10	  469.31
     24.9700	  696.00	  688.28	-2265.53	  468.98
     25.0700	  757.00	  691.47	-2207.72	  468.66
     25.1700	  669.00	  687.30	-2291.55	  468.34
     25.2700	  696.00	  677.94	-2255.19	  468.02
     25.3700	  712.00	  667.71	-2228.96	  467.71
     25.4700	  648.00	  659.54	-2284.79	  467.41
     25.5700	  627.00	  654.14	-2300.39	  467.11
     25.6700	  707.00	  651.26	-2217.51	  466.82
     25.7700	  703.00	  650.31	-2220.56	  466.53
     25.8700	  662.00	  650.73	-2261.98	  466.24
     25.9700	  659.00	  652.12	-2266.37	  465.97
     26.0700	  633.00	  654.26	-2294.51	  465.69
     26.1700	  640.00	  657.05	-2290.30	  465.42
     26.2700	  629.00	  660.47	-2304.72	  465.16
     26.3700	  660.00	  664.58	-2277.83	  464.90
     26.4700	  656.00	  669.45	-2286.70	  464.65
     26.5700	  631.00	  675.20	-2317.45	  464.40
     26.6700	  627.00	  682.00	-2328.25	  464.16
     26.7700	  680.00	  690.06	-2283.31	  463.92
     26.8700	  701.00	  699.68	-2271.93	  463.69
     26.9700	  686.00	  711.24	-2298.49	  463.46
     27.0700	  689.00	  725.29	-2309.54	  463.23
     27.1700	  712.00	  742.55	-2303.80	  463.02
     27.2700	  706.00	  764.10	-2331.35	  462.80
     27.3700	  723.00	  791.61	-2341.86	  462.59
     27.4700	  756.00	  828.12	-2345.37	  462.38
     27.5700	  802.00	  880.01	-2351.26	  462.18
     27.6700	  795.00	  961.52	-2439.77	  461.99
     27.7700	  933.00	 1102.58	-2442.83	  461.79
     27.8700	 1083.00	 1358.51	-2548.76	  461.61
     27.9700	 1337.00	 1816.67	-2752.92	  461.42
     28.0700	 1960.00	 2586.92	-2900.17	  461.24
     28.1700	 3295.00	 3757.31	-2735.56	  461.07
     28.2700	 5335.00	 5298.90	-2237.15	  460.90
     28.3700	 7692.00	 6925.99	-1507.24	  460.73
     28.4700	 9093.00	 8023.22	-1203.47	  460.57
     28.5700	 8638.00	 7887.96	-1523.21	  460.41
     28.6700	 6746.00	 6571.33	-2098.58	  460.26
     28.7700	 4824.00	 5083.30	-2532.55	  460.11
     28.8700	 3875.00	 4204.48	-2602.73	  459.96
     28.9700	 4010.00	 4069.91	-2333.16	  459.82
     29.0700	 4685.00	 4387.70	-1975.95	  459.68
     29.1700	 5087.00	 4673.72	-1859.97	  459.55
     29.2700	 4702.00	 4469.76	-2041.01	  459.41
     29.3700	 3748.00	 3699.40	-2224.65	  459.29
     29.4700	 2475.00	 2748.91	-2547.16	  459.17
     29.5700	 1771.00	 1961.21	-2463.46	  459.05
     29.6700	 1374.00	 1437.12	-2336.37	  458.93
     29.7700	 1057.00	 1135.96	-2352.21	  458.82
     29.8700	  984.00	  975.17	-2264.42	  458.71
     29.9700	  911.00	  887.01	-2249.26	  458.61
     30.0700	  853.00	  833.03	-2253.28	  458.51
     30.1700	  799.00	  795.91	-2270.16	  458.41
     30.2700	  829.00	  768.59	-2212.84	  458.32
     30.3700	  710.00	  748.13	-2311.38	  458.23
     30.4700	  735.00	  733.30	-2271.55	  458.14
     30.5700	  733.00	  723.93	-2264.18	  458.06
     30.6700	  752.00	  720.71	-2241.96	  457.98
     30.7700	  718.00	  724.91	-2280.16	  457.90
     30.8700	  748.00	  737.37	-2262.62	  457.83
     30.9700	  731.00	  756.99	-2299.24	  457.76
     31.0700	  785.00	  779.21	-2267.46	  457.69
     31.1700	  813.00	  795.20	-2255.45	  457.62
     31.2700	  826.00	  793.75	-2241.00	  457.56
     31.3700	  787.00	  770.47	-2256.72	  457.51
     31.4700	  714.00	  735.67	-2294.92	  457.45
     31.5700	  715.00	  702.70	-2260.95	  457.40
     31.6700	  723.00	  677.65	-2227.90	  457.35
     31.7700	  706.00	  660.98	-2228.23	  457.31
     31.8700	  660.00	  650.68	-2263.93	  457.27
     31.9700	  713.00	  644.35	-2204.60	  457.23
     32.0700	  704.00	  640.22	-2209.47	  457.19
     32.1700	  708.00	  637.31	-2202.56	  457.16
     32.2700	  649.00	  635.14	-2259.39	  457.13
     32.3700	  686.00	  633.49	-2220.74	  457.10
     32.4700	  646.00	  632.27	-2259.52	  457.07
     32.5700	  699.00	  631.43	-2205.68	  457.05
     32.6700	  642.00	  631.00	-2262.25	  457.03
     32.7700	  650.00	  630.92	-2254.17	  457.02
     32.8700	  634.00	  631.25	-2270.50	  457.00
     32.9700	  703.00	  632.04	-2202.29	  456.99
     33.0700	  710.00	  633.38	-2196.63	  456.98
     33.1700	  630.00	  635.43	-2278.68	  456.98
     33.2700	  605.00	  638.42	-2306.67	  456.97
     33.3700	  669.00	  642.85	-2247.10	  456.97
     33.4700	  669.00	  649.64	-2253.89	  456.97
     33.5700	  658.00	  660.58	-2275.83	  456.98
     33.6700	  720.00	  678.92	-2232.17	  456.98
     33.7700	  753.00	  709.74	-2229.99	  456.99
     33.8700	  787.00	  759.59	-2245.84	  457.00
     33.9700	  899.00	  834.15	-2208.40	  457.02
     34.0700	  974.00	  933.39	-2232.64	  457.03
     34.1700	 1087.00	 1045.78	-2232.03	  457.05
     34.2700	 1294.00	 1144.55	-2123.80	  457.07
     34.3700	 1286.00	 1190.46	-2177.71	  457.09
     34.4700	 1206.00	 1153.76	-2221.01	  457.12
     34.5700	 1085.00	 1050.40	-2238.65	  457.14
     34.6700	 1003.00	  928.96	-2199.21	  457.17
     34.7700	  820.00	  824.37	-2277.62	  457.20
     34.8700	  808.00	  748.30	-2213.55	  457.23
     34.9700	  780.00	  699.00	-2192.25	  457.27
     35.0700	  752.00	  669.40	-2190.65	  457.31
     35.1700	  752.00	  652.06	-2173.31	  457.35
     35.2700	  691.00	  641.53	-2223.78	  457.39
     35.3700	  620.00	  634.62	-2287.87	  457.43
     35.4700	  643.00	  629.68	-2259.93	  457.47
     35.5700	  615.00	  625.95	-2284.20	  457.52
     35.6700	  649.00	  623.03	-2247.28	  457.57
     35.7700	  618.00	  620.71	-2275.96	  457.62
     35.8700	  624.00	  618.90	-2268.15	  457.67
     35.9700	  622.00	  617.39	-2268.64	  457.73
     36.0700	  654.00	  616.18	-2235.43	  457.78
     36.1700	  597.00	  615.20	-2291.45	  457.84
     36.2700	  611.00	  614.43	-2276.68	  457.90
     36.3700	  613.00	  613.85	-2274.10	  457.96
     36.4700	  607.00	  613.42	-2279.67	  458.02
     36.5700	  563.00	  613.16	-2323.41	  458.09
     36.6700	  639.00	  613.05	-2247.30	  458.15
     36.7700	  637.00	  613.10	-2249.35	  458.22
     36.8700	  637.00	  613.53	-2249.78	  458.29
     36.9700	  627.00	  613.97	-2260.22	  458.36
     37.0700	  617.00	  614.66	-2270.91	  458.43
     37.1700	  578.00	  615.68	-2310.93	  458.50
     37.2700	  620.00	  617.67	-2270.92	  458.58
     37.3700	  630.00	  619.88	-2263.13	  458.65
     37.4700	  641.00	  623.22	-2255.47	  458.73
     37.5700	  662.00	  628.39	-2239.64	  458.81
     37.6700	  661.00	  636.48	-2248.73	  458.89
     37.7700	  663.00	  649.01	-2259.26	  458.97
     37.8700	  709.00	  667.61	-2231.86	  459.06
     37.9700	  686.00	  693.48	-2280.73	  459.14
     38.0700	  757.00	  724.06	-2240.31	  459.23
     38.1700	  722.00	  759.79	-2311.04	  459.31
     38.2700	  784.00	  791.36	-2280.61	  459.40
     38.3700	  818.00	  808.09	-2263.34	  459.49
     38.4700	  756.00	  800.73	-2317.98	  459.58
     38.5700	  766.00	  771.17	-2278.42	  459.67
     38.6700	  730.00	  732.16	-2275.41	  459.76
     38.7700	  659.00	  695.44	-2309.69	  459.86
     38.8700	  655.00	  666.40	-2284.65	  459.95
     38.9700	  655.00	  645.93	-2264.18	  460.05
     39.0700	  621.00	  632.67	-2284.92	  460.14
     39.1700	  605.00	  624.51	-2292.76	  460.24
     39.2700	  661.00	  619.54	-2231.79	  460.34
     39.3700	  655.00	  616.40	-2234.65	  460.44
     39.4700	  616.00	  614.27	-2271.52	  460.54
     39.5700	  589.00	  611.55	-2295.80	  460.64
     39.6700	  591.00	  610.42	-2292.67	  460.74
     39.7700	  559.00	  609.55	-2323.80	  460.85
     39.8700	  637.00	  608.87	-2245.12	  460.95
     39.9700	  606.00	  608.34	-2275.59	  461.05
     40.0700	  603.00	  607.93	-2278.18	  461.16
     40.1700	  630.00	  607.61	-2250.86	  461.27
     40.2700	  603.00	  607.38	-2277.63	  461.37
     40.3700	  603.00	  607.22	-2277.47	  461.48
     40.4700	  622.00	  607.11	-2258.36	  461.59
     40.5700	  574.00	  607.05	-2306.30	  461.70
     40.6700	  550.00	  607.05	-2330.30	  461.81
     40.7700	  574.00	  607.62	-2306.87	  461.92
     40.8700	  610.00	  607.70	-2270.95	  462.03
     40.9700	  617.00	  607.83	-2264.08	  462.14
     41.0700	  647.00	  608.00	-2234.25	  462.25
     41.1700	  581.00	  608.27	-2300.52	  462.37
     41.2700	  591.00	  608.53	-2290.78	  462.48
     41.3700	  600.00	  608.85	-2282.10	  462.60
     41.4700	  595.00	  609.23	-2287.48	  462.71
     41.5700	  603.00	  609.69	-2279.94	  462.83
     41.6700	  657.00	  610.24	-2226.49	  462.94
     41.7700	  555.00	  610.91	-2329.16	  463.06
     41.8700	  615.00	  611.73	-2269.98	  463.17
     41.9700	  605.00	  612.78	-2281.03	  463.29
     42.0700	  623.00	  614.18	-2264.44	  463.41
     42.1700	  643.00	  616.19	-2246.44	  463.53
     42.2700	  600.00	  619.22	-2292.47	  463.64
     42.3700	  641.00	  623.92	-2256.17	  463.76
     42.4700	  607.00	  631.20	-2297.45	  463.88
     42.5700	  641.00	  641.97	-2274.22	  464.00
     42.6700	  615.00	  657.03	-2315.28	  464.12
     42.7700	  630.00	  676.14	-2319.39	  464.24
     42.8700	  629.00	  697.46	-2341.71	  464.36
     42.9700	  677.00	  716.84	-2313.09	  464.48
     43.0700	  717.00	  728.13	-2284.38	  464.60
     43.1700	  675.00	  726.18	-2324.43	  464.72
     43.2700	  713.00	  711.69	-2271.94	  464.84
     43.3700	  660.00	  690.87	-2304.12	  464.96
     43.4700	  659.00	  669.94	-2284.19	  465.08
     43.5700	  641.00	  652.40	-2284.65	  465.20
     43.6700	  640.00	  639.24	-2272.49	  465.32
     43.7700	  674.00	  630.15	-2229.40	  465.44
     43.8700	  663.00	  624.30	-2234.55	  465.57
     43.9700	  573.00	  620.69	-2320.94	  465.69
     44.0700	  622.00	  618.67	-2269.92	  465.81
     44.1700	  650.00	  617.28	-2240.53	  465.93
     44.2700	  578.00	  616.37	-2311.62	  466.05
     44.3700	  645.00	  615.75	-2244.00	  466.17
     44.4700	  675.00	  615.31	-2213.56	  466.30
     44.5700	  671.00	  615.02	-2217.27	  466.42
     44.6700	  615.00	  614.83	-2273.08	  466.54
     44.7700	  622.00	  614.73	-2265.98	  466.66
     44.8700	  615.00	  614.69	-2272.94	  466.78
     44.9700	  654.00	  614.70	-2233.95	  466.90
     45.0700	  592.00	  615.03	-2296.28	  467.02
     45.1700	  642.00	  615.13	-2246.38	  467.14
     45.2700	  620.00	  615.28	-2268.53	  467.27
     45.3700	  596.00	  615.46	-2292.71	  467.39
     45.4700	  638.00	  615.67	-2250.92	  467.51
     45.5700	  590.00	  615.91	-2299.16	  467.63
     45.6700	  665.00	  616.19	-2224.44	  467.75
     45.7700	  600.00	  616.58	-2289.83	  467.87
     45.8700	  613.00	  616.92	-2277.17	  467.99
     45.9700	  603.00	  617.28	-2287.53	  468.11
     46.0700	  630.00	  617.69	-2260.94	  468.23
     46.1700	  637.00	  618.12	-2254.37	  468.35
     46.2700	  640.00	  618.60	-2251.85	  468.46
     46.3700	  607.00	  619.12	-2285.37	  468.58
     46.4700	  600.00	  619.71	-2292.96	  468.70
     46.5700	  624.00	  620.34	-2269.59	  468.82
     46.6700	  591.00	  620.99	-2303.24	  468.94
     46.7700	  629.00	  621.77	-2266.02	  469.05
     46.8700	  598.00	  622.64	-2297.89	  469.17
     46.9700	  633.00	  623.62	-2263.87	  469.29
     47.0700	  613.00	  624.76	-2285.01	  469.40
     47.1700	  626.00	  626.12	-2273.37	  469.52
     47.2700	  613.00	  627.80	-2288.05	  469.63
     47.3700	  618.00	  630.01	-2285.26	  469.75
     47.4700	  635.00	  633.05	-2271.30	  469.86
     47.5700	  645.00	  637.39	-2265.64	  469.97
     47.6700	  628.00	  643.61	-2288.86	  470.09
     47.7700	  647.00	  652.36	-2278.61	  470.20
     47.8700	  662.00	  664.05	-2275.30	  470.31
     47.9700	  617.00	  678.66	-2334.91	  470.42
     48.0700	  694.00	  695.25	-2274.50	  470.54
     48.1700	  632.00	  711.58	-2352.83	  470.65
     48.2700	  711.00	  723.96	-2286.21	  470.76
     48.3700	  679.00	  728.48	-2322.73	  470.87
     48.4700	  698.00	  723.79	-2299.04	  470.98
     48.5700	  714.00	  713.02	-2272.27	  471.08
     48.6700	  690.00	  699.66	-2282.91	  471.19
     48.7700	  668.00	  687.46	-2292.71	  471.30
     48.8700	  639.00	  678.15	-2312.40	  471.41
     48.9700	  669.00	  672.29	-2276.54	  471.51
     49.0700	  662.00	  669.82	-2281.07	  471.62
     49.1700	  633.00	  670.32	-2310.57	  471.72
     49.2700	  664.00	  673.41	-2282.66	  471.83
     49.3700	  654.00	  678.89	-2298.14	  471.93
     49.4700	  659.00	  687.01	-2301.25	  472.03
     49.5700	  657.00	  698.83	-2315.08	  472.14
     49.6700	  731.00	  717.22	-2259.47	  472.24
     49.7700	  759.00	  748.61	-2262.86	  472.34
     49.8700	  785.00	  805.76	-2294.01	  472.44
     49.9700	  949.00	  910.40	-2234.65	  472.54
     50.0700	 1140.00	 1092.30	-2225.55	  472.64
     50.1700	 1576.00	 1381.25	-2078.50	  472.73
     50.2700	 1889.00	 1789.65	-2173.90	  472.83
     50.3700	 2484.00	 2289.89	-2079.14	  472.93
     50.4700	 2922.00	 2797.17	-2148.42	  473.02
     50.5700	 3193.00	 3170.80	-2251.05	  473.12
     50.6700	 3218.00	 3263.83	-2319.08	  473.21
     50.7700	 2856.00	 3029.68	-2446.93	  473.31
     50.8700	 2448.00	 2573.24	-2398.49	  473.40
     50.9700	 1960.00	 2055.46	-2368.71	  473.49
     51.0700	 1491.00	 1595.20	-2377.45	  473.58
     51.1700	 1187.00	 1249.27	-2335.52	  473.67
     51.2700	  996.00	 1023.09	-2300.34	  473.76
     51.3700	  866.00	  892.31	-2299.56	  473.85
     51.4700	  876.00	  823.81	-2221.06	  473.93
     51.5700	  765.00	  789.19	-2297.44	  474.02
     51.6700	  742.00	  769.41	-2300.66	  474.11
     51.7700	  774.00	  754.36	-2253.61	  474.19
     51.8700	  782.00	  740.84	-2232.09	  474.27
     51.9700	  754.00	  728.79	-2248.04	  474.36
     52.0700	  719.00	  718.91	-2273.16	  474.44
     52.1700	  726.00	  711.45	-2258.70	  474.52
     52.2700	  730.00	  706.00	-2249.25	  474.60
     52.3700	  727.00	  701.72	-2247.97	  474.68
     52.4700	  725.00	  697.88	-2246.13	  474.76
     52.5700	  710.00	  694.46	-2257.71	  474.84
     52.6700	  728.00	  692.07	-2237.32	  474.91
     52.7700	  679.00	  691.49	-2285.74	  474.99
     52.8700	  711.00	  693.55	-2255.80	  475.06
     52.9700	  698.00	  699.30	-2274.55	  475.13
     53.0700	  703.00	  710.23	-2280.48	  475.21
     53.1700	  748.00	  728.49	-2253.74	  475.28
     53.2700	  742.00	  756.90	-2288.15	  475.35
     53.3700	  795.00	  798.61	-2276.86	  475.42
     53.4700	  847.00	  856.31	-2282.56	  475.49
     53.5700	  930.00	  931.01	-2274.26	  475.55
     53.6700	  986.00	 1020.65	-2307.90	  475.62
     53.7700	 1127.00	 1117.79	-2264.04	  475.69
     53.8700	 1164.00	 1208.44	-2317.69	  475.75
     53.9700	 1363.00	 1271.69	-2181.94	  475.81
     54.0700	 1291.00	 1287.17	-2269.42	  475.88
     54.1700	 1235.00	 1248.85	-2287.10	  475.94
     54.2700	 1161.00	 1170.66	-2282.91	  476.00
     54.3700	 1070.00	 1075.15	-2278.40	  476.05
     54.4700	  962.00	  980.78	-2292.03	  476.11
     54.5700	  911.00	  898.27	-2260.52	  476.17
     54.6700	  791.00	  832.18	-2314.43	  476.23
     54.7700	  767.00	  782.93	-2289.18	  476.28
     54.8700	  744.00	  748.48	-2277.73	  476.33
     54.9700	  724.00	  725.67	-2274.92	  476.39
     55.0700	  701.00	  711.26	-2283.51	  476.44
     55.1700	  707.00	  702.58	-2268.83	  476.49
     55.2700	  713.00	  697.68	-2257.93	  476.54
     55.3700	  661.00	  695.31	-2307.56	  476.58
     55.4700	  668.00	  694.76	-2300.01	  476.63
     55.5700	  696.00	  695.66	-2272.91	  476.68
     55.6700	  677.00	  697.88	-2294.12	  476.72
     55.7700	  720.00	  701.41	-2254.66	  476.76
     55.8700	  684.00	  706.41	-2295.66	  476.81
     55.9700	  682.00	  713.21	-2304.46	  476.85
     56.0700	  732.00	  722.44	-2263.69	  476.89
     56.1700	  745.00	  735.34	-2263.59	  476.93
     56.2700	  722.00	  754.21	-2305.46	  476.96
     56.3700	  718.00	  783.17	-2338.42	  477.00
     56.4700	  796.00	  828.91	-2306.16	  477.03
     56.5700	  876.00	  901.25	-2298.50	  477.07
     56.6700	 1014.00	 1012.54	-2271.79	  477.10
     56.7700	 1210.00	 1175.65	-2238.90	  477.13
     56.8700	 1441.00	 1399.70	-2231.95	  477.16
     56.9700	 1776.00	 1684.30	-2181.55	  477.19
     57.0700	 1991.00	 2013.49	-2295.74	  477.22
     57.1700	 2397.00	 2349.94	-2226.19	  477.25
     57.2700	 2662.00	 2631.97	-2243.22	  477.27
     57.3700	 2856.00	 2783.56	-2200.81	  477.30
     57.4700	 2675.00	 2751.71	-2349.96	  477.32
     57.5700	 2448.00	 2548.05	-2373.30	  477.34
     57.6700	 2258.00	 2239.72	-2254.97	  477.36
     57.7700	 1812.00	 1901.53	-2362.78	  477.38
     57.8700	 1455.00	 1587.06	-2405.31	  477.40
     57.9700	 1222.00	 1325.66	-2376.91	  477.42
     58.0700	 1098.00	 1127.27	-2302.52	  477.43
     58.1700	  929.00	  988.65	-2332.90	  477.45
     58.2700	  881.00	  899.67	-2291.92	  477.46
     58.3700	  869.00	  848.85	-2253.10	  477.47
     58.4700	  798.00	  827.08	-2302.33	  477.48
     58.5700	  848.00	  829.09	-2254.34	  477.49
     58.6700	  873.00	  852.89	-2253.14	  477.50
     58.7700	  897.00	  898.10	-2274.35	  477.51
     58.8700	  983.00	  963.91	-2254.16	  477.51
     58.9700	 1045.00	 1046.75	-2275.00	  477.52
     59.0700	 1072.00	 1138.74	-2339.99	  477.52
     59.1700	 1240.00	 1227.55	-2260.80	  477.52
     59.2700	 1210.00	 1300.00	-2363.25	  477.53
     59.3700	 1306.00	 1348.64	-2315.89	  477.52
     59.4700	 1321.00	 1372.71	-2324.96	  477.52
     59.5700	 1370.00	 1372.28	-2275.53	  477.52
     59.6700	 1339.00	 1347.20	-2281.45	  477.52
     59.7700	 1362.00	 1303.92	-2215.17	  477.51
     59.8700	 1214.00	 1256.70	-2315.95	  477.50
     59.9700	 1285.00	 1220.63	-2208.88	  477.50
     60.0700	 1302.00	 1206.20	-2177.45	  477.49
     60.1700	 1317.00	 1219.21	-2175.46	  477.48
     60.2700	 1375.00	 1262.78	-2161.03	  477.46
     60.3700	 1386.00	 1337.17	-2224.42	  477.45
     60.4700	 1542.00	 1436.52	-2167.77	  477.44
     60.5700	 1574.00	 1545.31	-2244.56	  477.42
     60.6700	 1624.00	 1637.50	-2286.75	  477.40
     60.7700	 1724.00	 1681.43	-2230.68	  477.39
     60.8700	 1545.00	 1654.09	-2382.34	  477.37
     60.9700	 1506.00	 1557.54	-2324.79	  477.34
     61.0700	 1387.00	 1416.87	-2303.12	  477.32
     61.1700	 1209.00	 1262.66	-2326.91	  477.30
     61.2700	 1041.00	 1118.59	-2350.84	  477.27
     61.3700	  944.00	  999.02	-2328.27	  477.25
     61.4700	  910.00	  910.05	-2273.30	  477.22
     61.5700	  847.00	  851.94	-2278.19	  477.19
     61.6700	  867.00	  822.19	-2228.44	  477.16
     61.7700	  851.00	  818.34	-2240.59	  477.13
     61.8700	  901.00	  839.95	-2212.20	  477.10
     61.9700	  913.00	  889.18	-2249.43	  477.07
     62.0700	  988.00	  969.66	-2254.91	  477.03
     62.1700	 1196.00	 1084.34	-2161.59	  477.00
     62.2700	 1240.00	 1232.39	-2265.64	  476.96
     62.3700	 1466.00	 1406.21	-2213.46	  476.92
     62.4700	 1660.00	 1589.15	-2202.40	  476.88
     62.5700	 1873.00	 1754.01	-2154.26	  476.84
     62.6700	 1807.00	 1865.51	-2331.76	  476.80
     62.7700	 1820.00	 1891.78	-2345.03	  476.75
     62.8700	 1774.00	 1823.87	-2323.12	  476.71
     62.9700	 1640.00	 1682.69	-2315.94	  476.66
     63.0700	 1472.00	 1503.94	-2305.19	  476.61
     63.1700	 1301.00	 1320.14	-2292.39	  476.56
     63.2700	 1068.00	 1153.68	-2358.93	  476.51
     63.3700	 1055.00	 1016.72	-2234.97	  476.46
     63.4700	  914.00	  912.92	-2272.17	  476.41
     63.5700	  914.00	  839.95	-2199.20	  476.35
     63.6700	  783.00	  792.16	-2282.41	  476.30
     63.7700	  797.00	  763.19	-2239.44	  476.24
     63.8700	  759.00	  747.53	-2261.78	  476.18
     63.9700	  808.00	  741.36	-2206.61	  476.13
     64.0700	  783.00	  742.78	-2233.03	  476.07
     64.1700	  741.00	  751.12	-2283.37	  476.00
     64.2700	  818.00	  768.88	-2224.13	  475.94
     64.3700	  870.00	  798.23	-2201.48	  475.88
     64.4700	  875.00	  842.77	-2241.02	  475.81
     64.5700	  956.00	  906.39	-2223.64	  475.74
     64.6700	 1020.00	  992.17	-2245.42	  475.68
     64.7700	 1143.00	 1101.15	-2231.40	  475.61
     64.8700	 1162.00	 1230.72	-2341.97	  475.54
     64.9700	 1420.00	 1372.94	-2226.19	  475.47
     65.0700	 1533.00	 1513.70	-2253.95	  475.39
     65.1700	 1663.00	 1633.38	-2243.63	  475.32
     65.2700	 1545.00	 1710.92	-2439.17	  475.24
     65.3700	 1690.00	 1730.27	-2313.52	  475.17
     65.4700	 1623.00	 1686.53	-2336.78	  475.09
     65.5700	 1457.00	 1589.83	-2406.08	  475.01
     65.6700	 1404.00	 1461.44	-2330.69	  474.93
     65.7700	 1281.00	 1323.25	-2315.50	  474.85
     65.8700	 1152.00	 1191.86	-2313.11	  474.77
     65.9700	  976.00	 1076.91	-2374.16	  474.68
     66.0700	  943.00	  982.21	-2312.46	  474.60
     66.1700	  860.00	  907.71	-2320.96	  474.51
     66.2700	  857.00	  851.26	-2267.51	  474.42
     66.3700	  809.00	  809.71	-2273.96	  474.33
     66.4700	  736.00	  779.87	-2317.12	  474.24
     66.5700	  667.00	  758.81	-2365.06	  474.15
     66.6700	  687.00	  744.18	-2330.43	  474.06
     66.7700	  719.00	  734.33	-2288.58	  473.97
     66.8700	  713.00	  728.18	-2288.43	  473.87
     66.9700	  703.00	  725.11	-2295.36	  473.78
     67.0700	  727.00	  724.85	-2271.10	  473.68
     67.1700	  695.00	  727.55	-2305.80	  473.58
     67.2700	  697.00	  733.54	-2309.79	  473.48
     67.3700	  661.00	  744.01	-2356.26	  473.38
     67.4700	  716.00	  761.08	-2318.33	  473.28
     67.5700	  764.00	  787.71	-2296.96	  473.17
     67.6700	  829.00	  828.65	-2272.90	  473.07
     67.7700	  846.00	  890.02	-2317.27	  472.96
     67.8700	  969.00	  978.75	-2283.00	  472.86
     67.9700	 1078.00	 1101.77	-2297.02	  472.75
     68.0700	 1276.00	 1264.08	-2261.33	  472.64
     68.1700	 1506.00	 1466.64	-2233.89	  472.53
     68.2700	 1733.00	 1704.11	-2244.36	  472.42
     68.3700	 1977.00	 1962.73	-2258.98	  472.31
     68.4700	 2299.00	 2218.81	-2193.06	  472.20
     68.5700	 2499.00	 2438.24	-2212.49	  472.08
     68.6700	 2608.00	 2580.63	-2245.88	  471.97
     68.7700	 2573.00	 2612.26	-2312.51	  471.85
     68.8700	 2527.00	 2524.62	-2270.87	  471.73
     68.9700	 2358.00	 2340.02	-2255.27	  471.61
     69.0700	 2145.00	 2097.71	-2225.96	  471.49
     69.1700	 1848.00	 1836.20	-2261.45	  471.37
     69.2700	 1567.00	 1584.71	-2290.96	  471.25
     69.3700	 1363.00	 1362.01	-2272.26	  471.12
     69.4700	 1181.00	 1177.65	-2269.90	  471.00
     69.5700	 1112.00	 1033.73	-2194.98	  470.87
     69.6700	  973.00	  927.04	-2227.29	  470.75
     69.7700	  881.00	  851.38	-2243.63	  470.62
     69.8700	  844.00	  799.58	-2228.83	  470.49
     69.9700	  806.00	  764.95	-2232.20	  470.36
     70.0700	  827.00	  741.99	-2188.24	  470.23
     70.1700	  749.00	  726.67	-2250.92	  470.10
     70.2700	  773.00	  716.26	-2216.51	  469.97
     70.3700	  754.00	  709.04	-2228.29	  469.83
     70.4700	  769.00	  704.00	-2208.25	  469.70
     70.5700	  713.00	  700.54	-2260.79	  469.56
     70.6700	  715.00	  698.37	-2256.62	  469.42
     70.7700	  725.00	  697.36	-2245.61	  469.29
     70.8700	  736.00	  697.50	-2234.75	  469.15
     70.9700	  723.00	  698.92	-2249.17	  469.01
     71.0700	  718.00	  701.89	-2257.14	  468.87
     71.1700	  698.00	  706.94	-2282.19	  468.72
     71.2700	  741.00	  714.99	-2247.24	  468.58
     71.3700	  786.00	  727.23	-2214.48	  468.44
     71.4700	  748.00	  746.16	-2271.41	  468.29
     71.5700	  756.00	  774.44	-2291.69	  468.14
     71.6700	  834.00	  815.73	-2254.98	  468.00
     71.7700	  941.00	  874.14	-2206.39	  467.85
     71.8700	  989.00	  953.81	-2238.06	  467.70
     71.9700	 1097.00	 1057.99	-2234.24	  467.55
     72.0700	 1184.00	 1187.92	-2277.17	  467.40
     72.1700	 1378.00	 1341.78	-2237.03	  467.25
     72.2700	 1487.00	 1513.56	-2299.81	  467.10
     72.3700	 1667.00	 1692.14	-2298.39	  466.94
     72.4700	 1839.00	 1860.65	-2294.90	  466.79
     72.5700	 2075.00	 1996.97	-2195.22	  466.63
     72.6700	 2062.00	 2077.20	-2288.45	  466.48
     72.7700	 2004.00	 2084.08	-2353.33	  466.32
     72.8700	 1940.00	 2015.90	-2349.15	  466.16
     72.9700	 1871.00	 1887.67	-2289.92	  466.00
     73.0700	 1752.00	 1722.85	-2244.10	  465.84
     73.1700	 1453.00	 1544.97	-2365.22	  465.68
     73.2700	 1373.00	 1370.45	-2270.70	  465.52
     73.3700	 1174.00	 1212.07	-2311.32	  465.36
     73.4700	 1024.00	 1076.64	-2325.89	  465.19
     73.5700	 1025.00	  966.66	-2214.91	  465.03
     73.6700	  847.00	  881.28	-2307.53	  464.86
     73.7700	  834.00	  817.57	-2256.82	  464.70
     73.8700	  755.00	  771.60	-2289.85	  464.53
     73.9700	  764.00	  739.28	-2248.53	  464.36
     74.0700	  732.00	  716.95	-2258.20	  464.19
     74.1700	  747.00	  701.18	-2227.43	  464.02
     74.2700	  698.00	  690.88	-2266.13	  463.85
     74.3700	  708.00	  684.08	-2249.33	  463.68
     74.4700	  706.00	  679.85	-2247.10	  463.51
     74.5700	  717.00	  677.62	-2233.87	  463.34
     74.6700	  665.00	  677.02	-2285.27	  463.17
     74.7700	  687.00	  677.77	-2264.02	  462.99
     74.8700	  704.00	  679.58	-2248.83	  462.82
     74.9700	  665.00	  682.06	-2290.31	  462.64
     75.0700	  704.00	  684.89	-2254.14	  462.47
     75.1700	  709.00	  687.50	-2251.75	  462.29
     75.2700	  736.00	  689.29	-2226.54	  462.11
     75.3700	  832.00	  689.78	-2131.03	  461.93
     75.4700	  741.00	  688.82	-2221.07	  461.75
     75.5700	  706.00	  686.66	-2253.91	  461.57
     75.6700	  734.00	  683.98	-2223.23	  461.39
     75.7700	  719.00	  681.61	-2235.86	  461.21
     75.8700	  687.00	  680.40	-2266.65	  461.03
     75.9700	  775.00	  681.45	-2179.70	  460.85
     76.0700	  705.00	  685.71	-2253.96	  460.66
     76.1700	  701.00	  694.27	-2266.52	  460.48
     76.2700	  749.00	  708.26	-2232.51	  460.30
     76.3700	  743.00	  728.76	-2259.01	  460.11
     76.4700	  736.00	  756.60	-2293.85	  459.92
     76.5700	  787.00	  792.19	-2278.44	  459.74
     76.6700	  875.00	  835.25	-2233.50	  459.55
     76.7700	  882.00	  884.63	-2275.88	  459.36
     76.8700	  911.00	  938.06	-2300.31	  459.17
     76.9700	  949.00	  991.97	-2316.22	  458.99
     77.0700	  985.00	 1041.45	-2329.70	  458.80
     77.1700	 1042.00	 1080.44	-2311.69	  458.61
     77.2700	 1087.00	 1102.78	-2289.03	  458.41
     77.3700	 1082.00	 1104.20	-2295.45	  458.22
     77.4700	 1058.00	 1084.31	-2299.56	  458.03
     77.5700	 1018.00	 1046.79	-2302.04	  457.84
     77.6700	 1002.00	  997.45	-2268.70	  457.65
     77.7700	  936.00	  942.79	-2280.04	  457.45
     77.8700	  870.00	  887.73	-2290.98	  457.26
     77.9700	  829.00	  836.01	-2280.26	  457.06
     78.0700	  755.00	  790.03	-2308.28	  456.87
     78.1700	  764.00	  751.07	-2260.32	  456.67
     78.2700	  719.00	  719.42	-2273.67	  456.48
     78.3700	  679.00	  694.67	-2288.92	  456.28
     78.4700	  701.00	  675.97	-2248.22	  456.08
     78.5700	  670.00	  662.25	-2265.50	  455.89
     78.6700	  586.00	  652.42	-2339.67	  455.69
     78.7700	  704.00	  645.49	-2214.74	  455.49
     78.8700	  667.00	  640.64	-2246.89	  455.29
     78.9700	  630.00	  637.27	-2280.52	  455.09
     79.0700	  622.00	  634.93	-2286.18	  454.89
     79.1700	  641.00	  633.33	-2265.58	  454.69
     79.2700	  618.00	  632.21	-2287.46	  454.49
     79.3700	  648.00	  631.60	-2256.85	  454.29
     79.4700	  637.00	  631.38	-2267.63	  454.09
     79.5700	  672.00	  631.54	-2232.79	  453.89
     79.6700	  666.00	  632.11	-2239.36	  453.69
     79.7700	  603.00	  633.14	-2303.39	  453.48
     79.8700	  604.00	  634.72	-2303.97	  453.28
     79.9700	  632.00	  637.00	-2278.25	  453.08
     80.0700	  657.00	  640.22	-2256.47	  452.87
     80.1700	  655.00	  644.76	-2263.01	  452.67
     80.2700	  641.00	  651.18	-2283.43	  452.47
     80.3700	  693.00	  660.33	-2240.58	  452.26
     80.4700	  653.00	  673.38	-2293.63	  452.06
     80.5700	  690.00	  691.61	-2274.85	  451.85
     80.6700	  774.00	  717.41	-2216.66	  451.65
     80.7700	  775.00	  752.63	-2250.88	  451.44
     80.8700	  892.00	  799.36	-2180.61	  451.23
     80.9700	  920.00	  859.31	-2212.56	  451.03
     81.0700	  960.00	  933.42	-2246.67	  450.82
     81.1700	 1064.00	 1021.31	-2230.56	  450.61
     81.2700	 1251.00	 1120.79	-2143.04	  450.41
     81.3700	 1318.00	 1227.59	-2182.84	  450.20
     81.4700	 1359.00	 1335.09	-2249.34	  449.99
     81.5700	 1432.00	 1434.83	-2276.08	  449.79
     81.6700	 1591.00	 1517.41	-2199.66	  449.58
     81.7700	 1597.00	 1574.52	-2250.77	  449.37
     81.8700	 1615.00	 1601.03	-2259.28	  449.16
     81.9700	 1548.00	 1595.76	-2321.01	  448.95
     82.0700	 1626.00	 1560.92	-2208.17	  448.74
     82.1700	 1478.00	 1501.35	-2296.60	  448.54
     82.2700	 1348.00	 1423.92	-2349.17	  448.33
     82.3700	 1293.00	 1336.24	-2316.49	  448.12
     82.4700	 1256.00	 1245.32	-2262.57	  447.91
     82.5700	 1205.00	 1156.66	-2224.91	  447.70
     82.6700	 1062.00	 1074.21	-2285.46	  447.49
     82.7700	 1018.00	 1000.45	-2255.70	  447.28
     82.8700	  914.00	  936.49	-2295.74	  447.07
     82.9700	  841.00	  882.26	-2314.51	  446.86
     83.0700	  798.00	  836.77	-2312.02	  446.65
     83.1700	  736.00	  798.67	-2335.92	  446.44
     83.2700	  720.00	  766.68	-2319.93	  446.23
     83.3700	  718.00	  739.88	-2295.13	  446.02
     83.4700	  692.00	  717.67	-2298.92	  445.81
     83.5700	  666.00	  699.69	-2306.94	  445.61
     83.6700	  663.00	  685.72	-2295.97	  445.40
     83.7700	  657.00	  675.60	-2291.85	  445.19
     83.8700	  638.00	  669.19	-2304.44	  444.98
     83.9700	  666.00	  666.27	-2273.52	  444.77
     84.0700	  675.00	  666.56	-2264.81	  444.56
     84.1700	  657.00	  669.61	-2285.86	  444.35
     84.2700	  654.00	  674.82	-2294.07	  444.14
     84.3700	  638.00	  681.30	-2316.55	  443.93
     84.4700	  687.00	  688.45	-2274.70	  443.72
     84.5700	  756.00	  695.10	-2212.35	  443.51
     84.6700	  635.00	  700.16	-2338.41	  443.30
     84.7700	  684.00	  702.66	-2291.91	  443.09
     84.8700	  695.00	  701.86	-2280.11	  442.88
     84.9700	  658.00	  697.84	-2313.09	  442.67
     85.0700	  668.00	  690.94	-2296.19	  442.46
     85.1700	  696.00	  681.99	-2259.24	  442.26
     85.2700	  686.00	  671.92	-2259.17	  442.05
     85.3700	  662.00	  661.59	-2272.84	  441.84
     85.4700	  639.00	  651.73	-2285.98	  441.63
     85.5700	  637.00	  642.91	-2279.16	  441.42
     85.6700	  627.00	  635.52	-2281.77	  441.21
     85.7700	  643.00	  629.83	-2260.08	  441.01
     85.8700	  646.00	  625.99	-2253.24	  440.80
     85.9700	  626.00	  624.04	-2271.29	  440.59
     86.0700	  634.00	  624.02	-2263.27	  440.38
     86.1700	  638.00	  625.89	-2261.14	  440.18
     86.2700	  621.00	  629.61	-2281.86	  439.97
     86.3700	  607.00	  635.13	-2301.38	  439.77
     86.4700	  630.00	  642.32	-2285.57	  439.56
     86.5700	  640.00	  651.02	-2284.27	  439.35
     86.6700	  722.00	  660.98	-2212.23	  439.15
     86.7700	  690.00	  671.85	-2255.10	  438.94
     86.8700	  676.00	  683.19	-2280.44	  438.74
     86.9700	  693.00	  694.47	-2274.72	  438.53
     87.0700	  691.00	  705.08	-2287.33	  438.33
     87.1700	  709.00	  714.50	-2278.75	  438.13
     87.2700	  733.00	  722.38	-2262.63	  437.92
     87.3700	  734.00	  728.75	-2268.00	  437.72
     87.4700	  698.00	  733.97	-2309.22	  437.52
     87.5700	  692.00	  738.64	-2319.89	  437.31
     87.6700	  719.00	  743.26	-2297.51	  437.11
     87.7700	  720.00	  748.19	-2301.44	  436.91
     87.8700	  752.00	  753.49	-2274.74	  436.71
     87.9700	  743.00	  758.88	-2289.13	  436.51
     88.0700	  749.00	  763.81	-2288.06	  436.31
     88.1700	  738.00	  767.45	-2302.70	  436.11
     88.2700	  806.00	  768.85	-2236.10	  435.91
     88.3700	  752.00	  767.18	-2288.43	  435.71
     88.4700	  722.00	  762.05	-2313.30	  435.51
     88.5700	  738.00	  753.60	-2288.85	  435.31
     88.6700	  795.00	  742.46	-2220.71	  435.11
     88.7700	  712.00	  729.54	-2290.79	  434.92
     88.8700	  728.00	  715.78	-2261.03	  434.72
     88.9700	  679.00	  702.08	-2296.33	  434.52
     89.0700	  672.00	  688.77	-2290.02	  434.33
     89.1700	  715.00	  677.34	-2235.59	  434.13
     89.2700	  640.00	  667.79	-2301.04	  433.94
     89.3700	  694.00	  660.41	-2239.66	  433.75
     89.4700	  694.00	  655.29	-2234.54	  433.55
     89.5700	  690.00	  652.35	-2235.60	  433.36
     89.6700	  669.00	  651.35	-2255.60	  433.17
     89.7700	  679.00	  651.92	-2246.17	  432.98
     89.8700	  649.00	  653.60	-2277.85	  432.78
     89.9700	  726.00	  655.83	-2203.08	  432.59
     90.0700	  749.00	  658.00	-2182.25	  432.40
     90.1700	  691.00	  659.52	-2241.77	  432.22
     90.2700	  680.00	  659.85	-2253.10	  432.03
     90.3700	  708.00	  658.68	-2223.93	  431.84
     90.4700	  691.00	  655.92	-2238.17	  431.65
     90.5700	  695.00	  651.76	-2230.01	  431.47
     90.6700	  672.00	  646.54	-2247.79	  431.28
     90.7700	  680.00	  640.68	-2233.93	  431.09
     90.8700	  632.00	  634.56	-2275.81	  430.91
     90.9700	  557.00	  628.54	-2344.79	  430.73
     91.0700	  607.00	  622.88	-2289.13	  430.54
     91.1700	  620.00	  617.79	-2271.04	  430.36
     91.2700	  680.00	  613.37	-2206.62	  430.18
     91.3700	  625.00	  609.70	-2257.95	  430.00
     91.4700	  568.00	  606.79	-2312.04	  429.82
     91.5700	  596.00	  604.59	-2281.84	  429.64
     91.6700	  597.00	  603.07	-2279.32	  429.46
     91.7700	  631.00	  602.15	-2244.40	  429.28
     91.8700	  594.00	  601.78	-2281.03	  429.11
     91.9700	  606.00	  601.94	-2269.19	  428.93
     92.0700	  625.00	  602.63	-2250.88	  428.76
     92.1700	  576.00	  603.87	-2301.12	  428.58
     92.2700	  634.00	  605.74	-2244.99	  428.41
     92.3700	  571.00	  608.36	-2310.61	  428.24
     92.4700	  608.00	  611.89	-2277.14	  428.06
     92.5700	  576.00	  616.53	-2313.78	  427.89
     92.6700	  610.00	  622.50	-2285.75	  427.72
     92.7700	  580.00	  630.03	-2323.28	  427.56
     92.8700	  659.00	  639.35	-2253.60	  427.39
     92.9700	  647.00	  650.65	-2276.90	  427.22
     93.0700	  665.00	  664.07	-2272.32	  427.05
     93.1700	  681.00	  679.64	-2271.89	  426.89
     93.2700	  642.00	  697.32	-2328.57	  426.72
     93.3700	  693.00	  716.90	-2297.15	  426.56
     93.4700	  687.00	  738.03	-2324.28	  426.40
     93.5700	  713.00	  760.22	-2320.47	  426.24
     93.6700	  728.00	  782.81	-2328.06	  426.08
     93.7700	  748.00	  805.01	-2330.26	  425.92
     93.8700	  760.00	  825.97	-2339.22	  425.76
     93.9700	  809.00	  844.92	-2309.17	  425.60
     94.0700	  842.00	  861.41	-2292.66	  425.44
     94.1700	  841.00	  875.45	-2307.70	  425.29
     94.2700	  845.00	  887.52	-2315.77	  425.13
     94.3700	  860.00	  898.40	-2311.65	  424.98
     94.4700	  926.00	  909.00	-2256.25	  424.83
     94.5700	  897.00	  920.05	-2296.30	  424.68
     94.6700	  861.00	  931.78	-2344.03	  424.53
     94.7700	  978.00	  945.11	-2240.36	  424.38
     94.8700	  974.00	  959.83	-2259.08	  424.23
     94.9700	 1032.00	  975.97	-2217.22	  424.08
     95.0700	 1006.00	  993.47	-2260.72	  423.94
     95.1700	 1008.00	 1012.12	-2277.37	  423.80
     95.2700	 1025.00	 1031.40	-2279.65	  423.65
     95.3700	 1052.00	 1050.38	-2271.63	  423.51
     95.4700	 1049.00	 1067.64	-2291.89	  423.37
     95.5700	 1083.00	 1081.40	-2271.65	  423.23
     95.6700	 1082.00	 1089.72	-2280.97	  423.09
     95.7700	 1005.00	 1090.80	-2359.05	  422.95
     95.8700	 1113.00	 1083.43	-2243.68	  422.82
     95.9700	 1061.00	 1067.38	-2279.63	  422.68
     96.0700	 1045.00	 1043.47	-2271.72	  422.55
     96.1700	 1023.00	 1013.37	-2263.62	  422.42
     96.2700	  989.00	  979.32	-2263.57	  422.28
     96.3700	  988.00	  943.70	-2228.95	  422.15
     96.4700	  905.00	  908.90	-2277.15	  422.03
     96.5700	  956.00	  877.09	-2194.34	  421.90
     96.6700	  865.00	  850.23	-2258.48	  421.77
     96.7700	  840.00	  829.95	-2263.20	  421.65
     96.8700	  851.00	  817.63	-2239.88	  421.52
     96.9700	  862.00	  814.34	-2225.59	  421.40
     97.0700	  823.00	  820.87	-2271.12	  421.28
     97.1700	  859.00	  837.78	-2252.03	  421.16
     97.2700	  906.00	  865.40	-2232.65	  421.04
     97.3700	  960.00	  903.79	-2217.04	  420.93
     97.4700	  965.00	  952.74	-2260.99	  420.81
     97.5700	 1041.00	 1011.67	-2243.92	  420.70
     97.6700	 1109.00	 1079.58	-2243.83	  420.58
     97.7700	 1145.00	 1154.97	-2283.22	  420.47
     97.8700	 1242.00	 1235.81	-2267.06	  420.36
     97.9700	 1340.00	 1319.38	-2252.63	  420.25
     98.0700	 1320.00	 1402.41	-2355.66	  420.15
     98.1700	 1457.00	 1480.95	-2297.20	  420.04
     98.2700	 1483.00	 1550.59	-2340.84	  419.94
     98.3700	 1562.00	 1606.77	-2318.02	  419.83
     98.4700	 1589.00	 1645.33	-2329.58	  419.73
     98.5700	 1594.00	 1663.23	-2342.48	  419.63
     98.6700	 1653.00	 1659.27	-2279.52	  419.53
     98.7700	 1634.00	 1634.35	-2273.60	  419.44
     98.8700	 1562.00	 1591.16	-2302.41	  419.34
     98.9700	 1404.00	 1533.65	-2402.90	  419.25
     99.0700	 1425.00	 1466.19	-2314.44	  419.15
     99.1700	 1372.00	 1393.18	-2294.43	  419.06
     99.2700	 1305.00	 1318.74	-2286.99	  418.97
     99.3700	 1242.00	 1246.45	-2277.70	  418.89
     99.4700	 1179.00	 1179.42	-2273.67	  418.80
     99.5700	 1143.00	 1120.17	-2250.42	  418.71
     99.6700	 1059.00	 1070.77	-2285.02	  418.63
     99.7700	 1037.00	 1032.87	-2269.12	  418.55
     99.8700	 1013.00	 1007.68	-2267.93	  418.47
     99.9700	 1009.00	  996.10	-2260.35	  418.39
    100.0700	 1020.00	  998.70	-2251.95	  418.31
    100.1700	 1047.00	 1015.75	-2242.00	  418.24
    100.2700	  993.00	 1047.22	-2327.47	  418.16
    100.3700	 1120.00	 1092.77	-2246.02	  418.09
    100.4700	 1239.00	 1151.69	-2185.94	  418.02
    100.5700	 1239.00	 1222.93	-2257.18	  417.95
    100.6700	 1345.00	 1305.01	-2233.26	  417.89
    100.7700	 1372.00	 1396.01	-2297.26	  417.82
    100.8700	 1540.00	 1493.49	-2226.74	  417.76
    100.9700	 1583.00	 1594.49	-2284.74	  417.69
    101.0700	 1709.00	 1695.62	-2259.87	  417.63
    101.1700	 1762.00	 1793.08	-2304.33	  417.58
    101.2700	 1911.00	 1883.38	-2245.63	  417.52
    101.3700	 1978.00	 1963.14	-2258.39	  417.46
    101.4700	 1963.00	 2029.82	-2340.07	  417.41
    101.5700	 2065.00	 2081.92	-2290.17	  417.36
    101.6700	 2186.00	 2118.65	-2205.90	  417.31
    101.7700	 2123.00	 2139.67	-2289.92	  417.26
    101.8700	 2238.00	 2144.83	-2180.08	  417.21
    101.9700	 2076.00	 2134.00	-2331.25	  417.17
    102.0700	 2121.00	 2107.36	-2259.61	  417.12
    102.1700	 2070.00	 2065.74	-2268.99	  417.08
    102.2700	 2141.00	 2010.96	-2143.21	  417.04
    102.3700	 2008.00	 1945.88	-2211.13	  417.01
    102.4700	 1968.00	 1874.13	-2179.38	  416.97
    102.5700	 1819.00	 1799.53	-2253.78	  416.94
    102.6700	 1715.00	 1725.68	-2283.93	  416.90
    102.7700	 1763.00	 1655.54	-2165.79	  416.87
    102.8700	 1652.00	 1591.28	-2212.53	  416.84
    102.9700	 1576.00	 1534.27	-2231.52	  416.82
    103.0700	 1544.00	 1485.04	-2214.29	  416.79
    103.1700	 1509.00	 1443.42	-2207.67	  416.77
    103.2700	 1400.00	 1408.57	-2281.82	  416.75
    103.3700	 1394.00	 1379.11	-2258.36	  416.73
    103.4700	 1359.00	 1353.20	-2267.45	  416.71
    103.5700	 1298.00	 1328.75	-2304.00	  416.70
    103.6700	 1358.00	 1303.65	-2218.90	  416.68
    103.7700	 1191.00	 1276.12	-2358.37	  416.67
    103.8700	 1215.00	 1244.90	-2303.15	  416.66
    103.9700	 1124.00	 1209.50	-2358.75	  416.65
    104.0700	 1150.00	 1170.10	-2293.35	  416.65
    104.1700	 1116.00	 1127.46	-2284.71	  416.64
    104.2700	 1103.00	 1082.62	-2252.87	  416.64
    104.3700	 1047.00	 1036.74	-2262.99	  416.64
    104.4700	  981.00	  990.95	-2283.20	  416.64
    104.5700	  939.00	  946.28	-2280.53	  416.65
    104.6700	  956.00	  903.59	-2220.84	  416.65
    104.7700	  909.00	  863.58	-2227.83	  416.66
    104.8700	  857.00	  826.78	-2243.03	  416.67
    104.9700	  818.00	  793.47	-2248.72	  416.68
    105.0700	  827.00	  763.97	-2210.22	  416.70
    105.1700	  760.00	  738.24	-2251.49	  416.71
    105.2700	  742.00	  716.18	-2247.43	  416.73
    105.3700	  744.00	  697.58	-2226.83	  416.75
    105.4700	  707.00	  682.16	-2248.41	  416.77
    105.5700	  704.00	  669.61	-2238.86	  416.79
    105.6700	  704.00	  659.58	-2228.83	  416.82
    105.7700	  704.00	  651.69	-2220.94	  416.85
    105.8700	  657.00	  645.75	-2262.00	  416.88
    105.9700	  676.00	  641.43	-2238.69	  416.91
    106.0700	  686.00	  638.53	-2225.78	  416.95
    106.1700	  605.00	  636.86	-2305.11	  416.98
    106.2700	  674.00	  636.31	-2235.56	  417.02
    106.3700	  615.00	  636.81	-2295.06	  417.06
    106.4700	  592.00	  638.31	-2319.56	  417.10
    106.5700	  634.00	  640.83	-2280.08	  417.15
    106.6700	  675.00	  644.38	-2242.63	  417.19
    106.7700	  613.00	  649.02	-2309.27	  417.24
    106.8700	  616.00	  654.81	-2312.06	  417.29
    106.9700	  678.00	  661.81	-2257.06	  417.35
    107.0700	  637.00	  670.06	-2306.31	  417.40
    107.1700	  654.00	  679.60	-2298.85	  417.46
    107.2700	  674.00	  690.41	-2289.66	  417.52
    107.3700	  683.00	  702.44	-2292.69	  417.58
    107.4700	  736.00	  715.55	-2252.80	  417.65
    107.5700	  735.00	  729.59	-2267.84	  417.71
    107.6700	  703.00	  744.28	-2314.53	  417.78
    107.7700	  756.00	  759.33	-2276.58	  417.85
    107.8700	  775.00	  774.33	-2272.58	  417.93
    107.9700	  726.00	  788.85	-2336.10	  418.00
    108.0700	  812.00	  802.40	-2263.65	  418.08
    108.1700	  771.00	  814.51	-2316.76	  418.16
    108.2700	  743.00	  824.69	-2354.94	  418.24
    108.3700	  803.00	  832.59	-2302.84	  418.32
    108.4700	  857.00	  837.98	-2254.23	  418.41
    108.5700	  743.00	  840.86	-2371.11	  418.50
    108.6700	  805.00	  841.40	-2309.65	  418.59
    108.7700	  798.00	  840.03	-2315.28	  418.68
    108.8700	  835.00	  837.25	-2275.50	  418.78
    108.9700	  783.00	  833.60	-2323.85	  418.87
    109.0700	  800.00	  829.63	-2302.88	  418.97
    109.1700	  814.00	  825.80	-2285.05	  419.07
    109.2700	  760.00	  822.51	-2335.76	  419.18
    109.3700	  758.00	  820.01	-2335.26	  419.29
    109.4700	  746.00	  818.48	-2345.73	  419.39
    109.5700	  767.00	  817.93	-2324.18	  419.51
    109.6700	  725.00	  818.27	-2366.52	  419.62
    109.7700	  771.00	  819.30	-2321.55	  419.73
    109.8700	  761.00	  820.68	-2332.93	  419.85
    109.9700	  806.00	  822.02	-2289.27	  419.97
    110.0700	  783.00	  822.85	-2313.10	  420.10
    110.1700	  809.00	  822.70	-2286.95	  420.22
    110.2700	  815.00	  821.15	-2279.40	  420.35
    110.3700	  787.00	  817.92	-2304.17	  420.48
    110.4700	  798.00	  812.83	-2288.08	  420.61
    110.5700	  790.00	  805.90	-2289.15	  420.74
    110.6700	  777.00	  797.28	-2293.53	  420.88
    110.7700	  793.00	  787.24	-2267.49	  421.02
    110.8700	  755.00	  776.13	-2294.38	  421.16
    110.9700	  777.00	  764.29	-2260.54	  421.31
    111.0700	  754.00	  752.10	-2271.35	  421.45
    111.1700	  687.00	  739.86	-2326.11	  421.60
    111.2700	  729.00	  727.87	-2272.12	  421.75
    111.3700	  713.00	  716.39	-2276.64	  421.90
    111.4700	  706.00	  705.61	-2272.86	  422.06
    111.5700	  695.00	  695.69	-2273.94	  422.22
    111.6700	  663.00	  686.76	-2297.01	  422.38
    111.7700	  688.00	  678.87	-2264.12	  422.54
    111.8700	  634.00	  672.08	-2311.33	  422.71
    111.9700	  646.00	  666.38	-2293.63	  422.88
    112.0700	  658.00	  661.75	-2277.00	  423.05
    112.1700	  639.00	  658.12	-2292.37	  423.22
    112.2700	  652.00	  655.43	-2276.68	  423.39
    112.3700	  663.00	  653.58	-2263.83	  423.57
    112.4700	  625.00	  652.49	-2300.74	  423.75
    112.5700	  592.00	  652.05	-2333.30	  423.93
    112.6700	  656.00	  652.17	-2269.42	  424.12
    112.7700	  642.00	  652.74	-2283.99	  424.31
    112.8700	  601.00	  653.67	-2325.92	  424.49
    112.9700	  638.00	  654.88	-2290.13	  424.69
    113.0700	  655.00	  656.30	-2274.55	  424.88
    113.1700	  620.00	  657.88	-2311.13	  425.08
    113.2700	  642.00	  659.58	-2290.83	  425.28
    113.3700	  638.00	  661.37	-2296.62	  425.48
    113.4700	  606.00	  663.27	-2330.52	  425.68
    113.5700	  632.00	  665.28	-2306.53	  425.89
    113.6700	  596.00	  667.45	-2344.70	  426.10
    113.7700	  621.00	  669.81	-2322.06	  426.31
    113.8700	  657.00	  672.42	-2288.67	  426.53
    113.9700	  618.00	  675.34	-2330.59	  426.74
    114.0700	  629.00	  678.69	-2322.94	  426.96
    114.1700	  702.00	  682.55	-2253.80	  427.19
    114.2700	  672.00	  687.07	-2288.32	  427.41
    114.3700	  705.00	  692.42	-2260.67	  427.64
    114.4700	  685.00	  698.81	-2287.06	  427.87
    114.5700	  709.00	  706.53	-2270.78	  428.10
    114.6700	  700.00	  715.96	-2289.21	  428.33
    114.7700	  788.00	  727.56	-2212.81	  428.57
    114.8700	  749.00	  741.93	-2266.18	  428.81
    114.9700	  737.00	  759.82	-2296.07	  429.05
    115.0700	  833.00	  782.18	-2222.43	  429.29
    115.1700	  886.00	  810.14	-2197.39	  429.54
    115.2700	  866.00	  845.10	-2252.35	  429.79
    115.3700	 1013.00	  888.70	-2148.95	  430.04
    115.4700	 1024.00	  942.85	-2192.10	  430.30
    115.5700	 1206.00	 1009.72	-2076.97	  430.55
    115.6700	 1202.00	 1091.74	-2162.99	  430.81
    115.7700	 1400.00	 1191.57	-2064.82	  431.08
    115.8700	 1485.00	 1311.98	-2100.23	  431.34
    115.9700	 1599.00	 1455.82	-2130.07	  431.61
    116.0700	 1790.00	 1625.83	-2109.08	  431.88
    116.1700	 2105.00	 1824.60	-1992.85	  432.15
    116.2700	 2340.00	 2054.37	-1987.62	  432.42
    116.3700	 2636.00	 2316.70	-1953.95	  432.70
    116.4700	 2969.00	 2612.46	-1916.71	  432.98
    116.5700	 3253.00	 2941.49	-1961.74	  433.26
    116.6700	 3434.00	 3302.57	-2141.82	  433.55
    116.7700	 3736.00	 3693.21	-2230.46	  433.84
    116.8700	 4296.00	 4109.43	-2086.68	  434.13
    116.9700	 4552.00	 4545.79	-2267.04	  434.42
    117.0700	 5026.00	 4995.34	-2242.59	  434.71
    117.1700	 5322.00	 5449.83	-2401.08	  435.01
    117.2700	 5819.00	 5899.69	-2353.94	  435.31
    117.3700	 6136.00	 6334.18	-2471.43	  435.62
    117.4700	 6484.00	 6741.67	-2530.92	  435.92
    117.5700	 6981.00	 7110.05	-2402.30	  436.23
    117.6700	 7160.00	 7427.32	-2540.57	  436.54
    117.7700	 7387.00	 7682.17	-2568.42	  436.85
    117.8700	 7491.00	 7864.76	-2647.01	  437.17
    117.9700	 7630.00	 7967.69	-2610.94	  437.49
    118.0700	 7620.00	 7986.82	-2640.07	  437.81
    118.1700	 7714.00	 7921.74	-2480.99	  438.13
    118.2700	 7429.00	 7775.75	-2620.00	  438.46
    118.3700	 7210.00	 7555.55	-2618.80	  438.78
    118.4700	 7048.00	 7270.43	-2495.68	  439.12
    118.5700	 6692.00	 6931.43	-2512.68	  439.45
    118.6700	 6333.00	 6550.34	-2490.59	  439.79
    118.7700	 5986.00	 6139.06	-2426.31	  440.12
    118.8700	 5578.00	 5709.21	-2404.46	  440.47
    118.9700	 5303.00	 5271.55	-2241.80	  440.81
    119.0700	 4948.00	 4835.81	-2161.06	  441.16
    119.1700	 4642.00	 4410.28	-2041.53	  441.50
    119.2700	 4202.00	 4001.87	-2073.12	  441.86
    119.3700	 3935.00	 3616.13	-1954.38	  442.21
    119.4700	 3558.00	 3257.09	-1972.34	  442.57
    119.5700	 3298.00	 2927.45	-1902.70	  442.93
    119.6700	 2997.00	 2628.52	-1904.77	  443.29
    119.7700	 2698.00	 2360.54	-1935.79	  443.65
    119.8700	 2467.00	 2122.92	-1929.17	  444.02
    119.9700	 2160.00	 1914.30	-2027.55	  444.39
    120.0700	 1937.00	 1732.82	-2069.07	  444.76
    120.1700	 1858.00	 1576.19	-1991.44	  445.13
    120.2700	 1631.00	 1441.97	-2084.22	  445.51
    120.3700	 1549.00	 1327.66	-2051.91	  445.89
    120.4700	 1422.00	 1230.77	-2082.02	  446.27
    120.5700	 1323.00	 1148.97	-2099.22	  446.66
    120.6700	 1217.00	 1080.05	-2136.30	  447.04
    120.7700	 1135.00	 1022.04	-2160.29	  447.43
    120.8700	 1122.00	  973.21	-2124.46	  447.83
    120.9700	 1071.00	  932.07	-2134.32	  448.22
    121.0700	 1005.00	  897.35	-2165.60	  448.62
    121.1700	  919.00	  867.98	-2222.23	  449.02
    121.2700	  930.00	  843.09	-2186.34	  449.42
    121.3700	  867.00	  821.98	-2228.23	  449.83
    121.4700	  898.00	  804.09	-2179.34	  450.23
    121.5700	  795.00	  788.96	-2267.21	  450.64
    121.6700	  796.00	  776.22	-2253.47	  451.06
    121.7700	  765.00	  765.60	-2273.85	  451.47
    121.8700	  763.00	  756.86	-2267.11	  451.89
    121.9700	  680.00	  749.82	-2343.07	  452.31
    122.0700	  703.00	  744.34	-2314.59	  452.73
    122.1700	  789.00	  740.30	-2224.55	  453.16
    122.2700	  675.00	  737.60	-2335.85	  453.59
    122.3700	  722.00	  736.16	-2287.41	  454.02
    122.4700	  733.00	  735.91	-2276.16	  454.45
    122.5700	  707.00	  736.78	-2303.03	  454.88
    122.6700	  659.00	  738.72	-2352.97	  455.32
    122.7700	  685.00	  741.67	-2329.92	  455.76
    122.8700	  728.00	  745.58	-2290.83	  456.20
    122.9700	  693.00	  750.37	-2330.62	  456.65
    123.0700	  690.00	  755.99	-2339.24	  457.10
    123.1700	  691.00	  762.36	-2344.61	  457.55
    123.2700	  700.00	  769.40	-2342.65	  458.00
    123.3700	  756.00	  777.01	-2294.26	  458.46
    123.4700	  699.00	  785.09	-2359.34	  458.91
    123.5700	  703.00	  793.53	-2363.78	  459.37
    123.6700	  756.00	  802.22	-2319.47	  459.84
    123.7700	  762.00	  811.02	-2322.27	  460.30
    123.8700	  767.00	  819.81	-2326.06	  460.77
    123.9700	  727.00	  828.43	-2374.68	  461.24
    124.0700	  787.00	  836.77	-2323.02	  461.71
    124.1700	  785.00	  844.70	-2332.95	  462.19
    124.2700	  849.00	  852.10	-2276.35	  462.66
    124.3700	  844.00	  858.90	-2288.15	  463.14
    124.4700	  876.00	  865.02	-2262.27	  463.63
    124.5700	  819.00	  870.46	-2324.71	  464.11
    124.6700	  865.00	  875.19	-2283.44	  464.60
    124.7700	  842.00	  879.29	-2310.54	  465.09
    124.8700	  827.00	  882.81	-2329.06	  465.58
    124.9700	  844.00	  604.95	-2034.20	  466.07
    125.0700	  883.00	  605.45	-2273.25	  466.57
    125.1700	  827.00	  605.95	-2273.25	  467.07
    125.2700	  841.00	  606.45	-2273.25	  467.57
    125.3700	  851.00	  606.95	-2273.25	  468.07
    125.4700	  883.00	  607.46	-2273.25	  468.58
    125.5700	  765.00	  607.97	-2273.25	  469.09
    125.6700	  850.00	  608.48	-2273.25	  469.60
    125.7700	  868.00	  608.99	-2273.25	  470.11
    125.8700	  830.00	  609.51	-2273.25	  470.63
    125.9700	  822.00	  610.03	-2273.25	  471.15
    126.0700	  825.00	  610.55	-2273.25	  471.67
    126.1700	  858.00	  611.07	-2273.25	  472.19
    126.2700	  826.00	  611.60	-2273.25	  472.72
    126.3700	  812.00	  612.12	-2273.25	  473.24
    126.4700	  837.00	  612.65	-2273.25	  473.77
    126.5700	  816.00	  613.19	-2273.25	  474.30
    126.6700	  790.00	  613.72	-2273.25	  474.84
    126.7700	  762.00	  614.26	-2273.25	  475.38
    126.8700	  806.00	  614.80	-2273.25	  475.92
    126.9700	  748.00	  615.34	-2273.25	  476.46
    127.0700	  745.00	  615.88	-2273.25	  477.00
    127.1700	  764.00	  616.43	-2273.25	  477.55
    127.2700	  728.00	  616.97	-2273.25	  478.09
    127.3700	  719.00	  617.53	-2273.25	  478.64
    127.4700	  661.00	  618.08	-2273.25	  479.20
    127.5700	  706.00	  618.63	-2273.25	  479.75
    127.6700	  656.00	  619.19	-2273.25	  480.31
    127.7700	  737.00	  619.75	-2273.25	  480.87
    127.8700	  694.00	  620.31	-2273.25	  481.43
    127.9700	  663.00	  620.88	-2273.25	  481.99
    128.0700	  642.00	  621.44	-2273.25	  482.56
    128.1700	  682.00	  622.01	-2273.25	  483.13
    128.2700	  673.00	  622.58	-2273.25	  483.70
    128.3700	  678.00	  623.15	-2273.25	  484.27
    128.4700	  680.00	  623.73	-2273.25	  484.85
    128.5700	    0.00	  624.30	-2273.25	  485.42
    128.6700	    0.00	  624.88	-2273.25	  486.00
     12.4522	        	        	        	        	       0	(  0  0  2)	  0  1
     12.4522	        	        	        	        	    -568	(  0  0  2)	  0  1
     25.1434	        	        	        	        	       0	(  0  0  4)	  0  1
     25.1434	        	        	        	        	    -568	(  0  0  4)	  0  1
     28.5797	        	        	        	        	       0	(  1  0  0)	  0  1
     28.5797	        	        	        	        	    -568	(  1  0  0)	  0  1
     29.2839	        	        	        	        	       0	(  1  0  1)	  0  1
     29.2839	        	        	        	        	    -568	(  1  0  1)	  0  1
     31.3101	        	        	        	        	       0	(  1  0  2)	  0  1
     31.3101	        	        	        	        	    -568	(  1  0  2)	  0  1
     34.4493	        	        	        	        	       0	(  1  0  3)	  0  1
     34.4493	        	        	        	        	    -568	(  1  0  3)	  0  1
     38.1589	        	        	        	        	       0	(  0  0  6)	  0  1
     38.1589	        	        	        	        	    -568	(  0  0  6)	  0  1
     38.4659	        	        	        	        	       0	(  1  0  4)	  0  1
     38.4659	        	        	        	        	    -568	(  1  0  4)	  0  1
     43.1626	        	        	        	        	       0	(  1  0  5)	  0  1
     43.1626	        	        	        	        	    -568	(  1  0  5)	  0  1
     48.3996	        	        	        	        	       0	(  1  0  6)	  0  1
     48.3996	        	        	        	        	    -568	(  1  0  6)	  0  1
     50.6936	        	        	        	        	       0	(  1  1  0)	  0  1
     50.6936	        	        	        	        	    -568	(  1  1  0)	  0  1
     51.7116	        	        	        	        	       0	(  0  0  8)	  0  1
     51.7116	        	        	        	        	    -568	(  0  0  8)	  0  1
     52.4359	        	        	        	        	       0	(  1  1  2)	  0  1
     52.4359	        	        	        	        	    -568	(  1  1  2)	  0  1
     54.0895	        	        	        	        	       0	(  1  0  7)	  0  1
     54.0895	        	        	        	        	    -568	(  1  0  7)	  0  1
     57.4400	        	        	        	        	       0	(  1  1  4)	  0  1
     57.4400	        	        	        	        	    -568	(  1  1  4)	  0  1
     59.2674	        	        	        	        	       0	(  2  0  0)	  0  1
     59.2674	        	        	        	        	    -568	(  2  0  0)	  0  1
     59.6636	        	        	        	        	       0	(  2  0  1)	  0  1
     59.6636	        	        	        	        	    -568	(  2  0  1)	  0  1
     60.1864	        	        	        	        	       0	(  1  0  8)	  0  1
     60.1864	        	        	        	        	    -568	(  1  0  8)	  0  1
     60.8429	        	        	        	        	       0	(  2  0  2)	  0  1
     60.8429	        	        	        	        	    -568	(  2  0  2)	  0  1
     62.7792	        	        	        	        	       0	(  2  0  3)	  0  1
     62.7792	        	        	        	        	    -568	(  2  0  3)	  0  1
     65.2258	        	        	        	        	       0	(  1  1  6)	  0  1
     65.2258	        	        	        	        	    -568	(  1  1  6)	  0  1
     65.4354	        	        	        	        	       0	(  2  0  4)	  0  1
     65.4354	        	        	        	        	    -568	(  2  0  4)	  0  1
     66.0970	        	        	        	        	       0	(  0  0 10)	  0  1
     66.0970	        	        	        	        	    -568	(  0  0 10)	  0  1
     66.6775	        	        	        	        	       0	(  1  0  9)	  0  1
     66.6775	        	        	        	        	    -568	(  1  0  9)	  0  1
     68.7710	        	        	        	        	       0	(  2  0  5)	  0  1
     68.7710	        	        	        	        	    -568	(  2  0  5)	  0  1
     72.7495	        	        	        	        	       0	(  2  0  6)	  0  1
     72.7495	        	        	        	        	    -568	(  2  0  6)	  0  1
     73.5790	        	        	        	        	       0	(  1  0 10)	  0  1
     73.5790	        	        	        	        	    -568	(  1  0 10)	  0  1
     75.3921	        	        	        	        	       0	(  1  1  8)	  0  1
     75.3921	        	        	        	        	    -568	(  1  1  8)	  0  1
     77.3451	        	        	        	        	       0	(  2  0  7)	  0  1
     77.3451	        	        	        	        	    -568	(  2  0  7)	  0  1
     80.9360	        	        	        	        	       0	(  1  0 11)	  0  1
     80.9360	        	        	        	        	    -568	(  1  0 11)	  0  1
     81.7475	        	        	        	        	       0	(  2  1  0)	  0  1
     81.7475	        	        	        	        	    -568	(  2  1  0)	  0  1
     81.7795	        	        	        	        	       0	(  0  0 12)	  0  1
     81.7795	        	        	        	        	    -568	(  0  0 12)	  0  1
     82.0924	        	        	        	        	       0	(  2  1  1)	  0  1
     82.0924	        	        	        	        	    -568	(  2  1  1)	  0  1
     82.5492	        	        	        	        	       0	(  2  0  8)	  0  1
     82.5492	        	        	        	        	    -568	(  2  0  8)	  0  1
     83.1255	        	        	        	        	       0	(  2  1  2)	  0  1
     83.1255	        	        	        	        	    -568	(  2  1  2)	  0  1
     84.8427	        	        	        	        	       0	(  2  1  3)	  0  1
     84.8427	        	        	        	        	    -568	(  2  1  3)	  0  1
     87.2395	        	        	        	        	       0	(  2  1  4)	  0  1
     87.2395	        	        	        	        	    -568	(  2  1  4)	  0  1
     87.8437	        	        	        	        	       0	(  1  1 10)	  0  1
     87.8437	        	        	        	        	    -568	(  1  1 10)	  0  1
     88.3762	        	        	        	        	       0	(  2  0  9)	  0  1
     88.3762	        	        	        	        	    -568	(  2  0  9)	  0  1
     88.8291	        	        	        	        	       0	(  1  0 12)	  0  1
     88.8291	        	        	        	        	    -568	(  1  0 12)	  0  1
     90.3147	        	        	        	        	       0	(  2  1  5)	  0  1
     90.3147	        	        	        	        	    -568	(  2  1  5)	  0  1
     94.0758	        	        	        	        	       0	(  2  1  6)	  0  1
     94.0758	        	        	        	        	    -568	(  2  1  6)	  0  1
     94.8727	        	        	        	        	       0	(  2  0 10)	  0  1
     94.8727	        	        	        	        	    -568	(  2  0 10)	  0  1
     95.8303	        	        	        	        	       0	(  3  0  0)	  0  1
     95.8303	        	        	        	        	    -568	(  3  0  0)	  0  1
     96.1738	        	        	        	        	       0	(  3  0  1)	  0  1
     96.1738	        	        	        	        	    -568	(  3  0  1)	  0  1
     97.2058	        	        	        	        	       0	(  3  0  2)	  0  1
     97.2058	        	        	        	        	    -568	(  3  0  2)	  0  1
     97.3900	        	        	        	        	       0	(  1  0 13)	  0  1
     97.3900	        	        	        	        	    -568	(  1  0 13)	  0  1
     98.5453	        	        	        	        	       0	(  2  1  7)	  0  1
     98.5453	        	        	        	        	    -568	(  2  1  7)	  0  1
     98.9312	        	        	        	        	       0	(  3  0  3)	  0  1
     98.9312	        	        	        	        	    -568	(  3  0  3)	  0  1
     99.6155	        	        	        	        	       0	(  0  0 14)	  0  1
     99.6155	        	        	        	        	    -568	(  0  0 14)	  0  1
    101.3611	        	        	        	        	       0	(  3  0  4)	  0  1
    101.3611	        	        	        	        	    -568	(  3  0  4)	  0  1
    102.1322	        	        	        	        	       0	(  2  0 11)	  0  1
    102.1322	        	        	        	        	    -568	(  2  0 11)	  0  1
    102.9870	        	        	        	        	       0	(  1  1 12)	  0  1
    102.9870	        	        	        	        	    -568	(  1  1 12)	  0  1
    103.7712	        	        	        	        	       0	(  2  1  8)	  0  1
    103.7712	        	        	        	        	    -568	(  2  1  8)	  0  1
    104.5170	        	        	        	        	       0	(  3  0  5)	  0  1
    104.5170	        	        	        	        	    -568	(  3  0  5)	  0  1
    106.8365	        	        	        	        	       0	(  1  0 14)	  0  1
    106.8365	        	        	        	        	    -568	(  1  0 14)	  0  1
    108.4378	        	        	        	        	       0	(  3  0  6)	  0  1
    108.4378	        	        	        	        	    -568	(  3  0  6)	  0  1
    109.8428	        	        	        	        	       0	(  2  1  9)	  0  1
    109.8428	        	        	        	        	    -568	(  2  1  9)	  0  1
    110.3252	        	        	        	        	       0	(  2  0 12)	  0  1
    110.3252	        	        	        	        	    -568	(  2  0 12)	  0  1
    113.1926	        	        	        	        	       0	(  3  0  7)	  0  1
    113.1926	        	        	        	        	    -568	(  3  0  7)	  0  1
    116.9227	        	        	        	        	       0	(  2  1 10)	  0  1
    116.9227	        	        	        	        	    -568	(  2  1 10)	  0  1
    117.5575	        	        	        	        	       0	(  1  0 15)	  0  1
    117.5575	        	        	        	        	    -568	(  1  0 15)	  0  1
    117.9979	        	        	        	        	       0	(  2  2  0)	  0  1
    117.9979	        	        	        	        	    -568	(  2  2  0)	  0  1
    118.9021	        	        	        	        	       0	(  3  0  8)	  0  1
    118.9021	        	        	        	        	    -568	(  3  0  8)	  0  1
    119.5581	        	        	        	        	       0	(  2  2  2)	  0  1
    119.5581	        	        	        	        	    -568	(  2  2  2)	  0  1
    119.7685	        	        	        	        	       0	(  2  0 13)	  0  1
    119.7685	        	        	        	        	    -568	(  2  0 13)	  0  1
    121.6645	        	        	        	        	       0	(  0  0 16)	  0  1
    121.6645	        	        	        	        	    -568	(  0  0 16)	  0  1
    122.3396	        	        	        	        	       0	(  1  1 14)	  0  1
    122.3396	        	        	        	        	    -568	(  1  1 14)	  0  1
    124.3963	        	        	        	        	       0	(  2  2  4)	  0  1
    124.3963	        	        	        	        	    -568	(  2  2  4)	  0  1
    125.3169	        	        	        	        	       0	(  2  1 11)	  0  1
    125.3169	        	        	        	        	    -568	(  2  1 11)	  0  1
    125.7861	        	        	        	        	       0	(  3  0  9)	  0  1
    125.7861	        	        	        	        	    -568	(  3  0  9)	  0  1
    126.3075	        	        	        	        	       0	(  3  1  0)	  0  1
    126.3075	        	        	        	        	    -568	(  3  1  0)	  0  1
    126.7330	        	        	        	        	       0	(  3  1  1)	  0  1
    126.7330	        	        	        	        	    -568	(  3  1  1)	  0  1
    128.0240	        	        	        	        	       0	(  3  1  2)	  0  1
    128.0240	        	        	        	        	    -568	(  3  1  2)	  0  1
    130.2285	        	        	        	        	       0	(  3  1  3)	  0  1
    130.2285	        	        	        	        	    -568	(  3  1  3)	  0  1
    130.3639	        	        	        	        	       0	(  1  0 16)	  0  1
    130.3639	        	        	        	        	    -568	(  1  0 16)	  0  1
    131.1199	        	        	        	        	       0	(  2  0 14)	  0  1
    131.1199	        	        	        	        	    -568	(  2  0 14)	  0  1
    133.1801	        	        	        	        	       0	(  2  2  6)	  0  1
    133.1801	        	        	        	        	    -568	(  2  2  6)	  0  1
    133.4425	        	        	        	        	       0	(  3  1  4)	  0  1
    133.4425	        	        	        	        	    -568	(  3  1  4)	  0  1
    134.2810	        	        	        	        	       0	(  3  0 10)	  0  1
    134.2810	        	        	        	        	    -568	(  3  0 10)	  0  1
    135.6756	        	        	        	        	       0	(  2  1 12)	  0  1
    135.6756	        	        	        	        	    -568	(  2  1 12)	  0  1
    137.8477	        	        	        	        	       0	(  3  1  5)	  0  1
    137.8477	        	        	        	        	    -568	(  3  1  5)	  0  1
    143.8101	        	        	        	        	       0	(  3  1  6)	  0  1
    143.8101	        	        	        	        	    -568	(  3  1  6)	  0  1
    145.4465	        	        	        	        	       0	(  3  0 11)	  0  1
    145.4465	        	        	        	        	    -568	(  3  0 11)	  0  1
    146.1833	        	        	        	        	       0	(  2  0 15)	  0  1
    146.1833	        	        	        	        	    -568	(  2  0 15)	  0  1
    147.6417	        	        	        	        	       0	(  1  0 17)	  0  1
    147.6417	        	        	        	        	    -568	(  1  0 17)	  0  1
    148.3784	        	        	        	        	       0	(  2  2  8)	  0  1
    148.3784	        	        	        	        	    -568	(  2  2  8)	  0  1
    149.8523	        	        	        	        	       0	(  2  1 13)	  0  1
    149.8523	        	        	        	        	    -568	(  2  1 13)	  0  1
    152.2212	        	        	        	        	       0	(  3  1  7)	  0  1
    152.2212	        	        	        	        	    -568	(  3  1  7)	  0  1
    153.2825	        	        	        	        	       0	(  1  1 16)	  0  1
    153.2825	        	        	        	        	    -568	(  1  1 16)	  0  1
    158.6025	        	        	        	        	       0	(  0  0 18)	  0  1
    158.6025	        	        	        	        	    -568	(  0  0 18)	  0  1
    163.8624	        	        	        	        	       0	(  4  0  0)	  0  1
    163.8624	        	        	        	        	    -568	(  4  0  0)	  0  1
    163.9775	        	        	        	        	       0	(  3  0 12)	  0  1
    163.9775	        	        	        	        	    -568	(  3  0 12)	  0  1
    165.1480	        	        	        	        	       0	(  4  0  1)	  0  1
    165.1480	        	        	        	        	    -568	(  4  0  1)	  0  1
    167.0438	        	        	        	        	       0	(  3  1  8)	  0  1
    167.0438	        	        	        	        	    -568	(  3  1  8)	  0  1
