MSG Master    CELL:    5.91802   5.91802  23.26392   90.0000   90.0000  120.0000   SPGR: P 63/m m c             TEMP:   1046.75
  1   1280     2.52000     0.00000    -0.12534     0.00000     0.00000    0
    99     0     2
       0.00000      10.00000
     125.00000     130.00000
 2Theta	Yobs	Ycal	Yobs-Ycal	Backg	Posr	(hkl)	K
      0.7700	    0.00	  567.07	-1766.75	  450.13
      0.8700	    0.00	  567.56	-1766.75	  450.62
      0.9700	   52.00	  568.04	-1766.75	  451.10
      1.0700	   39.00	  568.52	-1766.75	  451.57
      1.1700	   49.00	  568.98	-1766.75	  452.04
      1.2700	   40.00	  569.43	-1766.75	  452.49
      1.3700	   40.00	  569.88	-1766.75	  452.94
      1.4700	   99.00	  570.32	-1766.75	  453.37
      1.5700	  276.00	  570.75	-1766.75	  453.80
      1.6700	  444.00	  571.16	-1766.75	  454.22
      1.7700	  606.00	  571.57	-1766.75	  454.63
      1.8700	  660.00	  571.98	-1766.75	  455.03
      1.9700	  758.00	  572.37	-1766.75	  455.42
      2.0700	  820.00	  572.75	-1766.75	  455.81
      2.1700	  765.00	  573.13	-1766.75	  456.18
      2.2700	  783.00	  573.50	-1766.75	  456.55
      2.3700	  757.00	  573.86	-1766.75	  456.91
      2.4700	  681.00	  574.21	-1766.75	  457.26
      2.5700	  715.00	  574.55	-1766.75	  457.60
      2.6700	  685.00	  574.88	-1766.75	  457.94
      2.7700	  656.00	  575.21	-1766.75	  458.27
      2.8700	  594.00	  575.53	-1766.75	  458.58
      2.9700	  632.00	  575.84	-1766.75	  458.89
      3.0700	  572.00	  576.14	-1766.75	  459.20
      3.1700	  581.00	  576.43	-1766.75	  459.49
      3.2700	  610.00	  576.72	-1766.75	  459.78
      3.3700	  656.00	  577.00	-1766.75	  460.06
      3.4700	  741.00	  577.27	-1766.75	  460.33
      3.5700	  825.00	  577.53	-1766.75	  460.59
      3.6700	  854.00	  577.79	-1766.75	  460.85
      3.7700	  930.00	  578.04	-1766.75	  461.09
      3.8700	  962.00	  578.28	-1766.75	  461.34
      3.9700	 1046.00	  578.51	-1766.75	  461.57
      4.0700	 1092.00	  578.74	-1766.75	  461.80
      4.1700	 1069.00	  578.96	-1766.75	  462.01
      4.2700	 1149.00	  579.17	-1766.75	  462.23
      4.3700	 1021.00	  579.38	-1766.75	  462.43
      4.4700	 1023.00	  579.57	-1766.75	  462.63
      4.5700	 1003.00	  579.76	-1766.75	  462.82
      4.6700	 1074.00	  579.95	-1766.75	  463.00
      4.7700	 1044.00	  580.12	-1766.75	  463.18
      4.8700	 1000.00	  580.29	-1766.75	  463.35
      4.9700	  958.00	  580.46	-1766.75	  463.51
      5.0700	  956.00	  580.61	-1766.75	  463.67
      5.1700	  986.00	  580.76	-1766.75	  463.82
      5.2700	  933.00	  580.90	-1766.75	  463.96
      5.3700	  869.00	  581.04	-1766.75	  464.10
      5.4700	  871.00	  581.17	-1766.75	  464.23
      5.5700	  857.00	  581.29	-1766.75	  464.35
      5.6700	  803.00	  581.41	-1766.75	  464.47
      5.7700	  794.00	  581.52	-1766.75	  464.58
      5.8700	  783.00	  581.62	-1766.75	  464.68
      5.9700	  783.00	  581.72	-1766.75	  464.78
      6.0700	  799.00	  581.81	-1766.75	  464.87
      6.1700	  812.00	  581.90	-1766.75	  464.96
      6.2700	  823.00	  581.98	-1766.75	  465.03
      6.3700	  767.00	  582.05	-1766.75	  465.11
      6.4700	  735.00	  582.12	-1766.75	  465.18
      6.5700	  766.00	  582.18	-1766.75	  465.24
      6.6700	  798.00	  582.24	-1766.75	  465.29
      6.7700	  739.00	  582.29	-1766.75	  465.34
      6.8700	  697.00	  582.33	-1766.75	  465.39
      6.9700	  698.00	  582.37	-1766.75	  465.42
      7.0700	  696.00	  582.40	-1766.75	  465.46
      7.1700	  664.00	  582.43	-1766.75	  465.48
      7.2700	  709.00	  582.45	-1766.75	  465.51
      7.3700	  653.00	  582.47	-1766.75	  465.52
      7.4700	  695.00	  582.48	-1766.75	  465.53
      7.5700	  621.00	  582.48	-1766.75	  465.54
      7.6700	  620.00	  582.48	-1766.75	  465.54
      7.7700	  644.00	  582.48	-1766.75	  465.53
      7.8700	  662.00	  582.47	-1766.75	  465.52
      7.9700	  650.00	  582.45	-1766.75	  465.50
      8.0700	  645.00	  582.43	-1766.75	  465.48
      8.1700	  641.00	  582.40	-1766.75	  465.46
      8.2700	  637.00	  582.37	-1766.75	  465.43
      8.3700	  654.00	  582.33	-1766.75	  465.39
      8.4700	  616.00	  582.29	-1766.75	  465.35
      8.5700	  652.00	  582.25	-1766.75	  465.30
      8.6700	  659.00	  582.20	-1766.75	  465.25
      8.7700	  620.00	  582.14	-1766.75	  465.19
      8.8700	  615.00	  582.08	-1766.75	  465.13
      8.9700	  643.00	  582.01	-1766.75	  465.07
      9.0700	  625.00	  581.94	-1766.75	  465.00
      9.1700	  569.00	  581.87	-1766.75	  464.92
      9.2700	  618.00	  581.79	-1766.75	  464.84
      9.3700	  618.00	  581.71	-1766.75	  464.76
      9.4700	  577.00	  581.62	-1766.75	  464.67
      9.5700	  617.00	  581.52	-1766.75	  464.58
      9.6700	  600.00	  581.43	-1766.75	  464.48
      9.7700	  615.00	  581.33	-1766.75	  464.38
      9.8700	  604.00	  581.22	-1766.75	  464.28
      9.9700	  632.00	  581.11	-1766.75	  464.17
     10.0700	  600.00	  581.65	-1748.40	  464.05
     10.1700	  577.00	  581.60	-1771.35	  463.93
     10.2700	  628.00	  581.55	-1720.30	  463.81
     10.3700	  615.00	  581.53	-1733.28	  463.68
     10.4700	  613.00	  581.55	-1735.30	  463.55
     10.5700	  586.00	  581.65	-1762.40	  463.42
     10.6700	  588.00	  581.93	-1760.68	  463.28
     10.7700	  581.00	  582.50	-1768.25	  463.14
     10.8700	  600.00	  583.43	-1750.18	  462.99
     10.9700	  568.00	  584.71	-1783.46	  462.84
     11.0700	  566.00	  586.31	-1787.06	  462.69
     11.1700	  612.00	  588.20	-1742.95	  462.53
     11.2700	  623.00	  590.42	-1734.17	  462.37
     11.3700	  592.00	  593.05	-1767.80	  462.21
     11.4700	  587.00	  596.18	-1775.93	  462.04
     11.5700	  594.00	  600.01	-1772.76	  461.87
     11.6700	  676.00	  604.84	-1695.59	  461.69
     11.7700	  680.00	  611.22	-1697.97	  461.51
     11.8700	  655.00	  620.07	-1731.82	  461.33
     11.9700	  642.00	  632.32	-1757.07	  461.14
     12.0700	  682.00	  647.00	-1731.75	  460.96
     12.1700	  622.00	  658.31	-1803.06	  460.76
     12.2700	  679.00	  656.19	-1743.94	  460.57
     12.3700	  621.00	  636.68	-1782.43	  460.37
     12.4700	  608.00	  612.09	-1770.84	  460.17
     12.5700	  600.00	  594.35	-1761.10	  459.96
     12.6700	  574.00	  585.16	-1777.91	  459.76
     12.7700	  598.00	  581.25	-1750.00	  459.54
     12.8700	  537.00	  579.54	-1809.29	  459.33
     12.9700	  542.00	  578.57	-1803.32	  459.11
     13.0700	  608.00	  577.86	-1736.61	  458.89
     13.1700	  549.00	  577.30	-1795.05	  458.67
     13.2700	  533.00	  576.82	-1810.57	  458.44
     13.3700	  552.00	  576.40	-1791.15	  458.22
     13.4700	  509.00	  576.01	-1833.76	  457.99
     13.5700	  547.00	  575.66	-1795.41	  457.75
     13.6700	  584.00	  575.32	-1758.07	  457.51
     13.7700	  543.00	  575.00	-1798.75	  457.28
     13.8700	  601.00	  574.69	-1740.44	  457.03
     13.9700	  551.00	  574.39	-1790.14	  456.79
     14.0700	  527.00	  574.10	-1813.85	  456.54
     14.1700	  542.00	  573.81	-1798.56	  456.29
     14.2700	  595.00	  573.52	-1745.27	  456.04
     14.3700	  567.00	  573.23	-1772.98	  455.79
     14.4700	  578.00	  572.95	-1761.70	  455.53
     14.5700	  579.00	  572.67	-1760.42	  455.27
     14.6700	  547.00	  572.38	-1792.13	  455.01
     14.7700	  540.00	  572.10	-1798.85	  454.75
     14.8700	  592.00	  571.82	-1746.57	  454.48
     14.9700	  564.00	  571.54	-1774.29	  454.21
     15.0700	  598.00	  571.25	-1740.00	  453.94
     15.1700	  554.00	  570.97	-1783.72	  453.67
     15.2700	  571.00	  570.68	-1766.43	  453.39
     15.3700	  541.00	  570.40	-1796.15	  453.12
     15.4700	  566.00	  570.11	-1770.86	  452.84
     15.5700	  547.00	  569.82	-1789.57	  452.56
     15.6700	  531.00	  569.53	-1805.28	  452.28
     15.7700	  587.00	  569.24	-1748.99	  451.99
     15.8700	  568.00	  568.95	-1767.70	  451.70
     15.9700	  573.00	  568.65	-1762.40	  451.42
     16.0700	  576.00	  568.36	-1759.11	  451.13
     16.1700	  523.00	  568.06	-1811.81	  450.83
     16.2700	  606.00	  567.76	-1728.51	  450.54
     16.3700	  546.00	  567.46	-1788.21	  450.24
     16.4700	  589.00	  567.16	-1744.91	  449.95
     16.5700	  566.00	  566.88	-1767.63	  449.65
     16.6700	  529.00	  566.58	-1804.33	  449.35
     16.7700	  564.00	  566.27	-1769.02	  449.05
     16.8700	  583.00	  565.97	-1749.72	  448.74
     16.9700	  536.00	  565.66	-1796.41	  448.44
     17.0700	  549.00	  565.35	-1783.10	  448.13
     17.1700	  587.00	  565.04	-1744.79	  447.82
     17.2700	  524.00	  564.73	-1807.48	  447.51
     17.3700	  573.00	  564.42	-1758.17	  447.20
     17.4700	  591.00	  564.11	-1739.86	  446.89
     17.5700	  567.00	  563.79	-1763.54	  446.58
     17.6700	  559.00	  563.48	-1771.23	  446.26
     17.7700	  592.00	  563.16	-1737.91	  445.95
     17.8700	  639.00	  562.94	-1690.69	  445.63
     17.9700	  540.00	  562.62	-1789.37	  445.31
     18.0700	  565.00	  562.31	-1764.06	  444.99
     18.1700	  563.00	  561.99	-1765.74	  444.67
     18.2700	  581.00	  561.67	-1747.42	  444.35
     18.3700	  562.00	  561.35	-1766.10	  444.02
     18.4700	  558.00	  561.02	-1769.77	  443.70
     18.5700	  538.00	  560.70	-1789.45	  443.37
     18.6700	  576.00	  560.38	-1751.13	  443.05
     18.7700	  543.00	  560.05	-1783.80	  442.72
     18.8700	  565.00	  559.81	-1761.56	  442.39
     18.9700	  540.00	  559.49	-1786.24	  442.06
     19.0700	  551.00	  559.16	-1774.91	  441.73
     19.1700	  565.00	  558.84	-1760.59	  441.40
     19.2700	  578.00	  558.51	-1747.26	  441.07
     19.3700	  550.00	  558.19	-1774.94	  440.74
     19.4700	  513.00	  557.86	-1811.61	  440.40
     19.5700	  528.00	  557.53	-1796.28	  440.07
     19.6700	  563.00	  557.20	-1760.95	  439.74
     19.7700	  538.00	  556.88	-1785.63	  439.40
     19.8700	  582.00	  556.55	-1741.30	  439.06
     19.9700	  539.00	  556.22	-1783.97	  438.73
     20.0700	  515.00	  555.89	-1807.64	  438.39
     20.1700	  564.00	  555.56	-1758.31	  438.05
     20.2700	  557.00	  555.21	-1764.96	  437.71
     20.3700	  557.00	  554.88	-1764.63	  437.37
     20.4700	  562.00	  554.55	-1759.30	  437.03
     20.5700	  515.00	  554.22	-1805.97	  436.69
     20.6700	  552.00	  553.89	-1768.64	  436.35
     20.7700	  562.00	  553.57	-1758.32	  436.01
     20.8700	  516.00	  553.24	-1803.99	  435.67
     20.9700	  524.00	  552.95	-1795.70	  435.33
     21.0700	  570.00	  552.62	-1749.37	  434.99
     21.1700	  561.00	  552.30	-1758.05	  434.64
     21.2700	  525.00	  551.97	-1793.72	  434.30
     21.3700	  559.00	  551.65	-1759.40	  433.96
     21.4700	  557.00	  551.33	-1761.08	  433.61
     21.5700	  584.00	  551.00	-1733.75	  433.27
     21.6700	  565.00	  550.68	-1752.43	  432.92
     21.7700	  541.00	  550.36	-1776.11	  432.58
     21.8700	  544.00	  550.05	-1772.80	  432.24
     21.9700	  545.00	  549.73	-1771.48	  431.89
     22.0700	  511.00	  549.42	-1805.17	  431.55
     22.1700	  543.00	  549.11	-1772.86	  431.20
     22.2700	  544.00	  548.80	-1771.55	  430.86
     22.3700	  570.00	  548.49	-1745.24	  430.51
     22.4700	  604.00	  548.19	-1710.94	  430.17
     22.5700	  542.00	  547.89	-1772.64	  429.82
     22.6700	  544.00	  547.60	-1770.35	  429.48
     22.7700	  541.00	  547.32	-1773.07	  429.13
     22.8700	  557.00	  547.04	-1756.79	  428.79
     22.9700	  545.00	  546.77	-1768.52	  428.44
     23.0700	  540.00	  546.51	-1773.26	  428.10
     23.1700	  571.00	  546.26	-1742.01	  427.75
     23.2700	  560.00	  546.03	-1752.78	  427.41
     23.3700	  524.00	  545.83	-1788.58	  427.07
     23.4700	  514.00	  545.65	-1798.40	  426.72
     23.5700	  552.00	  545.51	-1760.26	  426.38
     23.6700	  540.00	  545.42	-1772.17	  426.03
     23.7700	  549.00	  545.42	-1763.17	  425.69
     23.8700	  563.00	  545.72	-1749.47	  425.35
     23.9700	  550.00	  546.26	-1763.01	  425.01
     24.0700	  527.00	  547.56	-1787.31	  424.66
     24.1700	  542.00	  550.29	-1775.04	  424.32
     24.2700	  580.00	  555.28	-1742.03	  423.98
     24.3700	  597.00	  563.51	-1733.26	  423.64
     24.4700	  618.00	  576.16	-1724.91	  423.30
     24.5700	  575.00	  594.02	-1785.77	  422.96
     24.6700	  582.00	  614.95	-1799.70	  422.62
     24.7700	  606.00	  631.01	-1791.76	  422.28
     24.8700	  561.00	  630.23	-1835.98	  421.94
     24.9700	  609.00	  609.18	-1766.93	  421.60
     25.0700	  599.00	  581.86	-1749.61	  421.26
     25.1700	  608.00	  561.29	-1720.04	  420.92
     25.2700	  567.00	  550.04	-1749.79	  420.59
     25.3700	  569.00	  545.06	-1742.81	  420.25
     25.4700	  557.00	  542.94	-1752.69	  419.91
     25.5700	  565.00	  541.86	-1743.61	  419.58
     25.6700	  579.00	  541.15	-1728.90	  419.24
     25.7700	  517.00	  540.63	-1790.38	  418.91
     25.8700	  546.00	  540.23	-1760.98	  418.57
     25.9700	  595.00	  539.93	-1711.68	  418.24
     26.0700	  574.00	  539.71	-1732.46	  417.91
     26.1700	  564.00	  539.56	-1742.31	  417.58
     26.2700	  566.00	  539.48	-1740.23	  417.25
     26.3700	  551.00	  539.48	-1755.23	  416.92
     26.4700	  531.00	  539.56	-1775.31	  416.59
     26.5700	  499.00	  539.73	-1807.48	  416.26
     26.6700	  554.00	  540.01	-1752.76	  415.93
     26.7700	  559.00	  540.43	-1748.18	  415.60
     26.8700	  574.00	  541.02	-1733.77	  415.28
     26.9700	  589.00	  541.84	-1719.59	  414.95
     27.0700	  540.00	  542.95	-1769.70	  414.63
     27.1700	  573.00	  544.48	-1738.23	  414.30
     27.2700	  496.00	  546.69	-1817.44	  413.98
     27.3700	  580.00	  550.06	-1736.81	  413.66
     27.4700	  570.00	  555.51	-1752.26	  413.34
     27.5700	  546.00	  564.70	-1785.45	  413.02
     27.6700	  593.00	  580.26	-1754.01	  412.70
     27.7700	  554.00	  605.55	-1818.30	  412.38
     27.8700	  602.00	  643.52	-1808.27	  412.06
     27.9700	  667.00	  694.38	-1794.13	  411.75
     28.0700	  758.00	  752.57	-1761.32	  411.43
     28.1700	  895.00	  804.19	-1675.94	  411.12
     28.2700	  934.00	  827.90	-1660.65	  410.80
     28.3700	  941.00	  809.80	-1635.55	  410.49
     28.4700	  829.00	  768.27	-1706.02	  410.18
     28.5700	  713.00	  737.36	-1791.11	  409.87
     28.6700	  727.00	  733.99	-1773.74	  409.56
     28.7700	  730.00	  754.88	-1791.63	  409.25
     28.8700	  796.00	  781.90	-1752.65	  408.94
     28.9700	  761.00	  788.31	-1794.06	  408.64
     29.0700	  766.00	  755.40	-1756.15	  408.33
     29.1700	  721.00	  695.91	-1741.66	  408.03
     29.2700	  627.00	  637.66	-1777.41	  407.73
     29.3700	  610.00	  594.94	-1751.69	  407.43
     29.4700	  544.00	  568.79	-1791.54	  407.13
     29.5700	  647.00	  554.54	-1674.29	  406.83
     29.6700	  646.00	  547.01	-1667.76	  406.53
     29.7700	  647.00	  542.78	-1662.53	  406.23
     29.8700	  569.00	  540.17	-1737.92	  405.94
     29.9700	  594.00	  538.53	-1711.28	  405.64
     30.0700	  554.00	  537.70	-1750.45	  405.35
     30.1700	  556.00	  537.83	-1748.58	  405.06
     30.2700	  577.00	  539.48	-1729.23	  404.77
     30.3700	  600.00	  543.73	-1710.48	  404.48
     30.4700	  606.00	  552.28	-1713.03	  404.19
     30.5700	  538.00	  567.05	-1795.80	  403.91
     30.6700	  613.00	  588.78	-1742.53	  403.62
     30.7700	  569.00	  615.10	-1812.85	  403.34
     30.8700	  586.00	  638.89	-1819.64	  403.06
     30.9700	  582.00	  648.77	-1833.52	  402.77
     31.0700	  633.00	  636.03	-1769.78	  402.49
     31.1700	  618.00	  607.00	-1755.75	  402.22
     31.2700	  572.00	  576.90	-1771.65	  401.94
     31.3700	  505.00	  554.38	-1816.13	  401.66
     31.4700	  532.00	  540.60	-1775.35	  401.39
     31.5700	  563.00	  533.26	-1737.01	  401.12
     31.6700	  523.00	  529.52	-1773.27	  400.85
     31.7700	  535.00	  527.48	-1759.23	  400.58
     31.8700	  518.00	  526.20	-1774.95	  400.31
     31.9700	  506.00	  525.31	-1786.06	  400.04
     32.0700	  556.00	  524.67	-1735.42	  399.77
     32.1700	  522.00	  524.21	-1768.96	  399.51
     32.2700	  528.00	  523.91	-1762.66	  399.25
     32.3700	  590.00	  523.77	-1700.52	  398.99
     32.4700	  548.00	  523.77	-1742.52	  398.73
     32.5700	  523.00	  523.93	-1767.68	  398.47
     32.6700	  555.00	  524.27	-1736.02	  398.21
     32.7700	  507.00	  524.83	-1784.58	  397.96
     32.8700	  546.00	  525.68	-1746.43	  397.70
     32.9700	  514.00	  526.90	-1779.65	  397.45
     33.0700	  563.00	  528.68	-1732.43	  397.20
     33.1700	  553.00	  531.40	-1745.15	  396.95
     33.2700	  553.00	  535.98	-1749.73	  396.70
     33.3700	  547.00	  544.38	-1764.13	  396.46
     33.4700	  541.00	  560.67	-1786.42	  396.21
     33.5700	  582.00	  591.47	-1776.22	  395.97
     33.6700	  640.00	  645.03	-1771.78	  395.73
     33.7700	  743.00	  726.16	-1749.91	  395.49
     33.8700	  830.00	  827.75	-1764.50	  395.25
     33.9700	  993.00	  924.05	-1697.80	  395.01
     34.0700	 1028.00	  973.01	-1711.76	  394.78
     34.1700	 1025.00	  939.58	-1681.33	  394.54
     34.2700	  898.00	  839.62	-1708.37	  394.31
     34.3700	  762.00	  727.09	-1731.84	  394.08
     34.4700	  601.00	  638.48	-1804.23	  393.85
     34.5700	  565.00	  582.56	-1784.31	  393.63
     34.6700	  560.00	  552.50	-1759.25	  393.40
     34.7700	  567.00	  537.67	-1737.42	  393.18
     34.8700	  550.00	  530.12	-1746.87	  392.95
     34.9700	  551.00	  525.70	-1741.45	  392.73
     35.0700	  517.00	  522.67	-1772.42	  392.52
     35.1700	  558.00	  520.40	-1729.15	  392.30
     35.2700	  572.00	  518.61	-1713.36	  392.08
     35.3700	  527.00	  517.16	-1756.91	  391.87
     35.4700	  504.00	  515.97	-1778.72	  391.66
     35.5700	  514.00	  514.95	-1767.70	  391.45
     35.6700	  509.00	  514.08	-1771.83	  391.24
     35.7700	  493.00	  513.33	-1787.08	  391.03
     35.8700	  554.00	  513.15	-1725.90	  390.83
     35.9700	  543.00	  512.57	-1736.32	  390.62
     36.0700	  475.00	  512.05	-1803.80	  390.42
     36.1700	  523.00	  511.58	-1755.33	  390.22
     36.2700	  581.00	  511.15	-1696.90	  390.02
     36.3700	  533.00	  510.77	-1744.52	  389.83
     36.4700	  530.00	  510.42	-1747.17	  389.63
     36.5700	  529.00	  510.11	-1747.86	  389.44
     36.6700	  513.00	  509.83	-1763.58	  389.25
     36.7700	  505.00	  509.59	-1771.34	  389.06
     36.8700	  484.00	  509.41	-1792.16	  388.87
     36.9700	  533.00	  509.31	-1743.06	  388.68
     37.0700	  504.00	  509.40	-1772.15	  388.50
     37.1700	  494.00	  509.85	-1782.60	  388.31
     37.2700	  470.00	  511.01	-1807.76	  388.13
     37.3700	  509.00	  513.26	-1771.01	  387.95
     37.4700	  519.00	  516.82	-1764.57	  387.78
     37.5700	  507.00	  521.34	-1781.09	  387.60
     37.6700	  485.00	  525.75	-1807.50	  387.43
     37.7700	  518.00	  528.53	-1777.28	  387.25
     37.8700	  537.00	  528.88	-1758.63	  387.08
     37.9700	  508.00	  527.34	-1786.09	  386.91
     38.0700	  484.00	  524.51	-1807.26	  386.75
     38.1700	  529.00	  520.53	-1758.28	  386.58
     38.2700	  520.00	  516.07	-1762.82	  386.42
     38.3700	  511.00	  512.15	-1767.90	  386.26
     38.4700	  468.00	  509.27	-1808.02	  386.10
     38.5700	  499.00	  507.42	-1775.17	  385.94
     38.6700	  505.00	  506.34	-1768.09	  385.78
     38.7700	  525.00	  505.71	-1747.46	  385.63
     38.8700	  500.00	  505.22	-1771.97	  385.48
     38.9700	  492.00	  504.93	-1779.68	  385.32
     39.0700	  513.00	  504.69	-1758.44	  385.18
     39.1700	  524.00	  504.48	-1747.23	  385.03
     39.2700	  435.00	  504.21	-1835.96	  384.88
     39.3700	  497.00	  504.04	-1773.79	  384.74
     39.4700	  492.00	  503.89	-1778.64	  384.60
     39.5700	  501.00	  503.74	-1769.49	  384.46
     39.6700	  521.00	  503.61	-1749.36	  384.32
     39.7700	  500.00	  503.49	-1770.24	  384.18
     39.8700	  509.00	  503.49	-1761.24	  384.05
     39.9700	  480.00	  503.39	-1790.14	  383.91
     40.0700	  538.00	  503.30	-1732.05	  383.78
     40.1700	  498.00	  503.22	-1771.97	  383.65
     40.2700	  501.00	  503.15	-1768.90	  383.52
     40.3700	  499.00	  503.09	-1770.84	  383.40
     40.4700	  458.00	  503.04	-1811.79	  383.27
     40.5700	  570.00	  503.01	-1699.76	  383.15
     40.6700	  483.00	  503.00	-1786.75	  383.03
     40.7700	  497.00	  503.00	-1772.75	  382.91
     40.8700	  486.00	  503.02	-1783.77	  382.80
     40.9700	  534.00	  503.07	-1735.82	  382.68
     41.0700	  474.00	  503.15	-1795.90	  382.57
     41.1700	  516.00	  503.24	-1753.99	  382.46
     41.2700	  495.00	  503.40	-1775.15	  382.35
     41.3700	  483.00	  503.63	-1787.38	  382.24
     41.4700	  484.00	  503.93	-1786.68	  382.13
     41.5700	  523.00	  504.33	-1748.08	  382.03
     41.6700	  450.00	  505.30	-1822.05	  381.92
     41.7700	  494.00	  506.13	-1778.88	  381.82
     41.8700	  519.00	  507.49	-1755.24	  381.72
     41.9700	  512.00	  510.01	-1764.76	  381.63
     42.0700	  493.00	  515.00	-1788.75	  381.53
     42.1700	  522.00	  524.75	-1769.50	  381.44
     42.2700	  505.00	  542.06	-1803.81	  381.34
     42.3700	  528.00	  569.12	-1807.87	  381.25
     42.4700	  577.00	  604.71	-1794.46	  381.17
     42.5700	  594.00	  641.79	-1814.54	  381.08
     42.6700	  603.00	  667.68	-1831.43	  380.99
     42.7700	  606.00	  669.20	-1829.95	  380.91
     42.8700	  553.00	  644.65	-1858.40	  380.83
     42.9700	  521.00	  606.72	-1852.47	  380.75
     43.0700	  524.00	  569.89	-1812.64	  380.67
     43.1700	  561.00	  541.91	-1747.66	  380.60
     43.2700	  525.00	  524.18	-1765.93	  380.52
     43.3700	  524.00	  514.45	-1757.20	  380.45
     43.4700	  496.00	  509.57	-1780.32	  380.38
     43.5700	  538.00	  507.14	-1735.89	  380.31
     43.6700	  486.00	  505.81	-1786.56	  380.24
     43.7700	  499.00	  505.15	-1772.90	  380.18
     43.8700	  483.00	  504.56	-1788.31	  380.11
     43.9700	  520.00	  504.12	-1750.87	  380.05
     44.0700	  533.00	  503.79	-1737.54	  379.99
     44.1700	  530.00	  503.54	-1740.29	  379.93
     44.2700	  554.00	  503.35	-1716.10	  379.87
     44.3700	  492.00	  503.24	-1777.99	  379.82
     44.4700	  489.00	  503.03	-1780.78	  379.76
     44.5700	  518.00	  502.97	-1751.72	  379.71
     44.6700	  508.00	  502.94	-1761.69	  379.66
     44.7700	  485.00	  502.94	-1784.69	  379.61
     44.8700	  526.00	  502.97	-1743.72	  379.57
     44.9700	  506.00	  503.02	-1763.77	  379.52
     45.0700	  511.00	  503.09	-1758.84	  379.48
     45.1700	  508.00	  503.19	-1761.94	  379.44
     45.2700	  530.00	  503.48	-1740.23	  379.40
     45.3700	  516.00	  503.62	-1754.37	  379.36
     45.4700	  522.00	  503.78	-1748.53	  379.32
     45.5700	  477.00	  503.96	-1793.71	  379.29
     45.6700	  489.00	  504.17	-1781.92	  379.25
     45.7700	  507.00	  504.40	-1764.15	  379.22
     45.8700	  518.00	  504.66	-1753.41	  379.19
     45.9700	  489.00	  504.95	-1782.70	  379.16
     46.0700	  564.00	  505.27	-1708.02	  379.14
     46.1700	  499.00	  505.63	-1773.38	  379.11
     46.2700	  485.00	  506.03	-1787.78	  379.09
     46.3700	  467.00	  506.48	-1806.23	  379.07
     46.4700	  502.00	  506.98	-1771.73	  379.05
     46.5700	  517.00	  507.55	-1757.30	  379.03
     46.6700	  499.00	  508.19	-1775.94	  379.01
     46.7700	  498.00	  508.93	-1777.68	  378.99
     46.8700	  486.00	  509.81	-1790.56	  378.98
     46.9700	  549.00	  510.92	-1728.67	  378.97
     47.0700	  536.00	  512.47	-1743.22	  378.96
     47.1700	  471.00	  514.91	-1810.66	  378.95
     47.2700	  498.00	  519.07	-1787.82	  378.94
     47.3700	  544.00	  526.10	-1748.85	  378.94
     47.4700	  528.00	  537.33	-1776.08	  378.93
     47.5700	  534.00	  553.21	-1785.96	  378.93
     47.6700	  525.00	  572.55	-1814.30	  378.93
     47.7700	  610.00	  591.61	-1748.36	  378.93
     47.8700	  614.00	  604.52	-1757.27	  378.93
     47.9700	  587.00	  606.04	-1785.79	  378.94
     48.0700	  558.00	  596.09	-1804.84	  378.94
     48.1700	  574.00	  580.08	-1772.83	  378.95
     48.2700	  569.00	  564.23	-1761.98	  378.96
     48.3700	  536.00	  552.33	-1783.08	  378.96
     48.4700	  526.00	  545.59	-1786.34	  378.98
     48.5700	  537.00	  543.49	-1773.24	  378.99
     48.6700	  514.00	  544.86	-1797.61	  379.00
     48.7700	  537.00	  548.70	-1778.45	  379.02
     48.8700	  494.00	  554.47	-1827.22	  379.04
     48.9700	  531.00	  562.24	-1797.99	  379.06
     49.0700	  571.00	  572.67	-1768.42	  379.08
     49.1700	  611.00	  587.38	-1743.13	  379.10
     49.2700	  599.00	  609.77	-1777.52	  379.12
     49.3700	  660.00	  646.23	-1752.98	  379.14
     49.4700	  744.00	  707.51	-1730.26	  379.17
     49.5700	  770.00	  809.04	-1805.79	  379.20
     49.6700	  939.00	  968.89	-1796.64	  379.23
     49.7700	 1137.00	 1200.26	-1830.01	  379.26
     49.8700	 1433.00	 1503.27	-1837.02	  379.29
     49.9700	 1839.00	 1852.28	-1780.03	  379.32
     50.0700	 2194.00	 2186.79	-1759.54	  379.36
     50.1700	 2435.00	 2413.32	-1745.07	  379.39
     50.2700	 2529.00	 2441.98	-1679.73	  379.43
     50.3700	 2366.00	 2257.40	-1658.15	  379.47
     50.4700	 1928.00	 1937.67	-1776.42	  379.51
     50.5700	 1468.00	 1585.18	-1883.93	  379.55
     50.6700	 1112.00	 1271.02	-1925.77	  379.59
     50.7700	  862.00	 1028.36	-1933.11	  379.64
     50.8700	  724.00	  861.77	-1904.52	  379.68
     50.9700	  673.00	  758.34	-1852.09	  379.73
     51.0700	  658.00	  698.02	-1806.77	  379.78
     51.1700	  649.00	  661.63	-1779.38	  379.83
     51.2700	  579.00	  635.67	-1823.42	  379.88
     51.3700	  593.00	  613.82	-1787.57	  379.93
     51.4700	  606.00	  594.83	-1755.58	  379.99
     51.5700	  565.00	  579.20	-1780.95	  380.04
     51.6700	  509.00	  567.28	-1825.03	  380.10
     51.7700	  515.00	  558.84	-1810.59	  380.16
     51.8700	  557.00	  553.10	-1762.85	  380.21
     51.9700	  533.00	  549.17	-1782.92	  380.27
     52.0700	  558.00	  546.36	-1755.11	  380.34
     52.1700	  541.00	  544.36	-1770.11	  380.40
     52.2700	  583.00	  543.13	-1726.88	  380.46
     52.3700	  595.00	  542.79	-1714.54	  380.53
     52.4700	  564.00	  543.89	-1746.64	  380.59
     52.5700	  602.00	  546.76	-1711.51	  380.66
     52.6700	  563.00	  553.32	-1757.07	  380.73
     52.7700	  611.00	  566.96	-1722.71	  380.80
     52.8700	  618.00	  593.33	-1742.08	  380.87
     52.9700	  695.00	  640.12	-1711.87	  380.94
     53.0700	  779.00	  714.88	-1702.63	  381.02
     53.1700	  925.00	  820.58	-1662.33	  381.09
     53.2700	 1000.00	  950.12	-1716.87	  381.17
     53.3700	 1132.00	 1082.37	-1717.12	  381.24
     53.4700	 1089.00	 1183.11	-1860.86	  381.32
     53.5700	 1161.00	 1215.91	-1821.66	  381.40
     53.6700	 1074.00	 1166.01	-1858.76	  381.48
     53.7700	 1054.00	 1054.43	-1767.18	  381.56
     53.8700	  835.00	  919.72	-1851.47	  381.64
     53.9700	  728.00	  794.06	-1832.81	  381.73
     54.0700	  646.00	  695.30	-1816.05	  381.81
     54.1700	  664.00	  627.74	-1730.49	  381.90
     54.2700	  583.00	  586.77	-1770.52	  381.98
     54.3700	  575.00	  564.34	-1756.09	  382.07
     54.4700	  595.00	  553.06	-1724.81	  382.16
     54.5700	  575.00	  547.71	-1739.46	  382.25
     54.6700	  539.00	  545.36	-1773.11	  382.34
     54.7700	  561.00	  544.58	-1750.33	  382.43
     54.8700	  533.00	  544.77	-1778.52	  382.53
     54.9700	  569.00	  545.68	-1743.43	  382.62
     55.0700	  599.00	  547.26	-1715.01	  382.72
     55.1700	  538.00	  549.52	-1778.27	  382.81
     55.2700	  573.00	  552.50	-1746.25	  382.91
     55.3700	  598.00	  556.32	-1725.07	  383.01
     55.4700	  570.00	  561.19	-1757.94	  383.11
     55.5700	  593.00	  567.39	-1741.14	  383.21
     55.6700	  548.00	  575.63	-1794.38	  383.31
     55.7700	  561.00	  587.29	-1793.04	  383.41
     55.8700	  625.00	  605.22	-1746.97	  383.51
     55.9700	  623.00	  634.91	-1778.66	  383.61
     56.0700	  611.00	  685.83	-1841.58	  383.72
     56.1700	  711.00	  772.28	-1828.03	  383.82
     56.2700	  829.00	  912.18	-1849.93	  383.93
     56.3700	 1043.00	 1122.47	-1846.22	  384.04
     56.4700	 1307.00	 1410.79	-1870.54	  384.15
     56.5700	 1738.00	 1765.30	-1794.05	  384.25
     56.6700	 2058.00	 2146.33	-1855.08	  384.36
     56.7700	 2438.00	 2482.67	-1811.42	  384.47
     56.8700	 2607.00	 2682.40	-1842.15	  384.59
     56.9700	 2571.00	 2673.60	-1869.35	  384.70
     57.0700	 2341.00	 2459.39	-1885.14	  384.81
     57.1700	 2121.00	 2116.38	-1762.13	  384.92
     57.2700	 1715.00	 1737.22	-1788.97	  385.04
     57.3700	 1268.00	 1390.59	-1889.34	  385.15
     57.4700	 1070.00	 1113.30	-1810.05	  385.27
     57.5700	  869.00	  915.07	-1812.82	  385.39
     57.6700	  816.00	  787.22	-1737.97	  385.50
     57.7700	  780.00	  713.15	-1699.90	  385.62
     57.8700	  737.00	  676.35	-1706.10	  385.74
     57.9700	  689.00	  664.90	-1742.65	  385.86
     58.0700	  663.00	  672.28	-1776.03	  385.98
     58.1700	  676.00	  696.20	-1786.95	  386.10
     58.2700	  763.00	  736.70	-1740.45	  386.22
     58.3700	  867.00	  794.23	-1693.98	  386.35
     58.4700	  915.00	  867.87	-1719.62	  386.47
     58.5700	 1082.00	  953.71	-1638.46	  386.59
     58.6700	 1291.00	 1043.96	-1519.71	  386.72
     58.7700	 1438.00	 1128.69	-1457.44	  386.84
     58.8700	 1549.00	 1200.24	-1417.99	  386.97
     58.9700	 1558.00	 1254.13	-1462.88	  387.09
     59.0700	 1661.00	 1285.03	-1390.78	  387.22
     59.1700	 1567.00	 1287.45	-1487.20	  387.35
     59.2700	 1521.00	 1263.69	-1509.44	  387.48
     59.3700	 1408.00	 1225.99	-1584.74	  387.60
     59.4700	 1252.00	 1188.42	-1703.17	  387.73
     59.5700	 1203.00	 1160.50	-1724.25	  387.86
     59.6700	 1155.00	 1149.05	-1760.80	  387.99
     59.7700	 1176.00	 1161.72	-1752.47	  388.12
     59.8700	 1172.00	 1204.67	-1799.42	  388.25
     59.9700	 1241.00	 1276.23	-1801.98	  388.39
     60.0700	 1439.00	 1362.97	-1690.72	  388.52
     60.1700	 1498.00	 1439.55	-1708.30	  388.65
     60.2700	 1634.00	 1474.09	-1606.84	  388.78
     60.3700	 1564.00	 1443.55	-1646.30	  388.92
     60.4700	 1387.00	 1349.86	-1729.61	  389.05
     60.5700	 1274.00	 1216.80	-1709.55	  389.19
     60.6700	 1112.00	 1072.68	-1727.43	  389.32
     60.7700	  924.00	  939.19	-1781.94	  389.46
     60.8700	  795.00	  829.12	-1800.87	  389.59
     60.9700	  730.00	  747.48	-1784.23	  389.73
     61.0700	  648.00	  693.86	-1812.61	  389.87
     61.1700	  658.00	  665.29	-1774.04	  390.00
     61.2700	  569.00	  659.07	-1856.82	  390.14
     61.3700	  590.00	  674.56	-1851.31	  390.28
     61.4700	  688.00	  713.63	-1792.38	  390.41
     61.5700	  733.00	  779.61	-1813.36	  390.55
     61.6700	  815.00	  874.96	-1826.71	  390.69
     61.7700	  906.00	  998.42	-1859.17	  390.83
     61.8700	 1023.00	 1142.04	-1885.79	  390.97
     61.9700	 1227.00	 1289.29	-1829.04	  391.11
     62.0700	 1360.00	 1414.70	-1821.45	  391.25
     62.1700	 1382.00	 1487.67	-1872.42	  391.39
     62.2700	 1410.00	 1485.20	-1841.95	  391.53
     62.3700	 1308.00	 1407.55	-1866.30	  391.67
     62.4700	 1181.00	 1278.14	-1863.89	  391.81
     62.5700	 1071.00	 1127.62	-1823.37	  391.95
     62.6700	  960.00	  981.19	-1787.94	  392.09
     62.7700	  803.00	  854.78	-1818.53	  392.23
     62.8700	  670.00	  755.68	-1852.43	  392.38
     62.9700	  614.00	  684.19	-1836.94	  392.52
     63.0700	  599.00	  636.27	-1804.02	  392.66
     63.1700	  597.00	  606.15	-1775.90	  392.80
     63.2700	  601.00	  588.23	-1753.98	  392.94
     63.3700	  610.00	  578.25	-1735.00	  393.09
     63.4700	  584.00	  573.54	-1756.29	  393.23
     63.5700	  527.00	  572.97	-1812.72	  393.37
     63.6700	  599.00	  576.70	-1744.45	  393.51
     63.7700	  605.00	  585.96	-1747.71	  393.66
     63.8700	  568.00	  602.78	-1801.53	  393.80
     63.9700	  659.00	  629.46	-1737.21	  393.94
     64.0700	  733.00	  667.82	-1701.57	  394.09
     64.1700	  775.00	  718.22	-1709.97	  394.23
     64.2700	  830.00	  778.44	-1715.19	  394.37
     64.3700	  937.00	  843.01	-1672.76	  394.52
     64.4700	 1000.00	  903.07	-1669.82	  394.66
     64.5700	  981.00	  947.38	-1733.13	  394.80
     64.6700	 1042.00	  966.21	-1690.96	  394.95
     64.7700	 1019.00	  955.54	-1703.29	  395.09
     64.8700	 1021.00	  920.32	-1666.07	  395.23
     64.9700	  921.00	  868.81	-1714.56	  395.37
     65.0700	  823.00	  811.10	-1754.85	  395.52
     65.1700	  841.00	  755.71	-1681.46	  395.66
     65.2700	  705.00	  707.85	-1769.60	  395.80
     65.3700	  719.00	  669.28	-1717.03	  395.95
     65.4700	  703.00	  639.32	-1703.07	  396.09
     65.5700	  616.00	  616.40	-1767.15	  396.23
     65.6700	  641.00	  598.99	-1724.74	  396.38
     65.7700	  597.00	  585.96	-1755.71	  396.52
     65.8700	  600.00	  576.47	-1743.22	  396.66
     65.9700	  616.00	  569.89	-1720.64	  396.80
     66.0700	  503.00	  565.75	-1829.50	  396.94
     66.1700	  615.00	  563.62	-1715.37	  397.09
     66.2700	  527.00	  563.14	-1802.89	  397.23
     66.3700	  543.00	  564.05	-1787.80	  397.37
     66.4700	  540.00	  566.16	-1792.91	  397.51
     66.5700	  504.00	  569.50	-1832.25	  397.65
     66.6700	  554.00	  574.37	-1787.12	  397.79
     66.7700	  545.00	  581.48	-1803.23	  397.93
     66.8700	  575.00	  592.39	-1784.15	  398.07
     66.9700	  576.00	  609.50	-1800.25	  398.21
     67.0700	  568.00	  637.13	-1835.88	  398.35
     67.1700	  631.00	  681.54	-1817.29	  398.49
     67.2700	  731.00	  750.99	-1786.74	  398.63
     67.3700	  832.00	  854.84	-1789.59	  398.77
     67.4700	  991.00	 1001.40	-1777.15	  398.91
     67.5700	 1186.00	 1195.33	-1776.08	  399.05
     67.6700	 1416.00	 1432.97	-1783.72	  399.19
     67.7700	 1758.00	 1700.34	-1709.09	  399.33
     67.8700	 2050.00	 1970.90	-1687.65	  399.46
     67.9700	 2182.00	 2205.93	-1790.68	  399.60
     68.0700	 2458.00	 2359.75	-1668.50	  399.74
     68.1700	 2459.00	 2394.39	-1702.14	  399.87
     68.2700	 2251.00	 2300.21	-1815.96	  400.01
     68.3700	 2025.00	 2102.45	-1844.20	  400.15
     68.4700	 1890.00	 1845.35	-1722.10	  400.28
     68.5700	 1572.00	 1572.47	-1767.22	  400.42
     68.6700	 1304.00	 1317.05	-1779.80	  400.55
     68.7700	 1026.00	 1099.60	-1840.35	  400.68
     68.8700	  932.00	  928.84	-1763.59	  400.82
     68.9700	  773.00	  803.85	-1797.60	  400.95
     69.0700	  752.00	  718.04	-1732.79	  401.08
     69.1700	  681.00	  662.11	-1747.86	  401.21
     69.2700	  628.00	  627.08	-1765.83	  401.35
     69.3700	  609.00	  605.59	-1763.34	  401.48
     69.4700	  574.00	  592.37	-1785.12	  401.61
     69.5700	  592.00	  584.01	-1758.76	  401.74
     69.6700	  538.00	  578.50	-1807.25	  401.87
     69.7700	  618.00	  574.72	-1723.47	  402.00
     69.8700	  585.00	  572.10	-1753.85	  402.13
     69.9700	  585.00	  570.34	-1752.09	  402.25
     70.0700	  576.00	  569.29	-1760.04	  402.38
     70.1700	  597.00	  568.90	-1738.65	  402.51
     70.2700	  596.00	  569.17	-1739.92	  402.63
     70.3700	  547.00	  570.18	-1789.93	  402.76
     70.4700	  598.00	  572.09	-1740.84	  402.88
     70.5700	  592.00	  575.29	-1750.04	  403.01
     70.6700	  585.00	  580.50	-1762.25	  403.13
     70.7700	  594.00	  589.01	-1761.76	  403.25
     70.8700	  554.00	  602.92	-1815.67	  403.38
     70.9700	  598.00	  625.49	-1794.24	  403.50
     71.0700	  666.00	  661.24	-1761.99	  403.62
     71.1700	  712.00	  715.80	-1770.55	  403.74
     71.2700	  778.00	  796.10	-1784.85	  403.86
     71.3700	  837.00	  905.54	-1835.29	  403.98
     71.4700	 1067.00	 1047.27	-1747.02	  404.10
     71.5700	 1181.00	 1218.70	-1804.45	  404.22
     71.6700	 1314.00	 1410.66	-1863.41	  404.33
     71.7700	 1593.00	 1606.44	-1780.19	  404.45
     71.8700	 1742.00	 1782.19	-1806.94	  404.56
     71.9700	 1846.00	 1909.39	-1830.14	  404.68
     72.0700	 1861.00	 1961.96	-1867.71	  404.79
     72.1700	 1942.00	 1927.56	-1752.31	  404.90
     72.2700	 1757.00	 1814.44	-1824.19	  405.02
     72.3700	 1721.00	 1647.93	-1693.68	  405.13
     72.4700	 1635.00	 1456.35	-1588.10	  405.24
     72.5700	 1416.00	 1264.49	-1615.24	  405.35
     72.6700	 1243.00	 1090.10	-1613.85	  405.46
     72.7700	 1130.00	  943.46	-1580.21	  405.57
     72.8700	  962.00	  827.94	-1632.69	  405.67
     72.9700	  916.00	  741.96	-1592.71	  405.78
     73.0700	  838.00	  680.91	-1609.66	  405.89
     73.1700	  786.00	  639.12	-1619.87	  405.99
     73.2700	  732.00	  611.20	-1645.95	  406.10
     73.3700	  728.00	  592.71	-1631.46	  406.20
     73.4700	  678.00	  580.41	-1669.16	  406.30
     73.5700	  634.00	  572.12	-1704.87	  406.40
     73.6700	  593.00	  566.49	-1740.24	  406.50
     73.7700	  592.00	  562.71	-1737.46	  406.60
     73.8700	  576.00	  560.29	-1751.04	  406.70
     73.9700	  612.00	  558.97	-1713.72	  406.80
     74.0700	  594.00	  558.53	-1731.28	  406.89
     74.1700	  584.00	  558.78	-1741.53	  406.99
     74.2700	  572.00	  559.52	-1754.27	  407.08
     74.3700	  595.00	  560.50	-1732.25	  407.18
     74.4700	  534.00	  561.40	-1794.15	  407.27
     74.5700	  624.00	  561.90	-1704.65	  407.36
     74.6700	  649.00	  561.73	-1679.48	  407.45
     74.7700	  666.00	  560.76	-1661.51	  407.54
     74.8700	  600.00	  559.09	-1725.84	  407.63
     74.9700	  680.00	  556.97	-1643.72	  407.72
     75.0700	  586.00	  554.81	-1735.56	  407.81
     75.1700	  560.00	  552.95	-1759.70	  407.89
     75.2700	  565.00	  551.75	-1753.50	  407.98
     75.3700	  545.00	  551.60	-1773.35	  408.06
     75.4700	  580.00	  552.84	-1739.59	  408.14
     75.5700	  532.00	  556.08	-1790.83	  408.22
     75.6700	  573.00	  561.76	-1755.51	  408.30
     75.7700	  556.00	  570.29	-1781.04	  408.38
     75.8700	  560.00	  582.24	-1788.99	  408.46
     75.9700	  611.00	  597.61	-1753.36	  408.54
     76.0700	  649.00	  616.05	-1733.80	  408.61
     76.1700	  603.00	  636.64	-1800.39	  408.69
     76.2700	  681.00	  657.79	-1743.54	  408.76
     76.3700	  737.00	  677.31	-1707.06	  408.84
     76.4700	  708.00	  692.59	-1751.34	  408.91
     76.5700	  741.00	  701.03	-1726.78	  408.98
     76.6700	  682.00	  700.94	-1785.69	  409.05
     76.7700	  689.00	  692.31	-1770.06	  409.11
     76.8700	  650.00	  676.84	-1793.59	  409.18
     76.9700	  621.00	  657.09	-1802.84	  409.25
     77.0700	  621.00	  635.52	-1781.27	  409.31
     77.1700	  599.00	  614.66	-1782.41	  409.37
     77.2700	  562.00	  595.88	-1800.63	  409.44
     77.3700	  572.00	  580.08	-1774.83	  409.50
     77.4700	  545.00	  567.57	-1789.32	  409.56
     77.5700	  548.00	  558.20	-1776.95	  409.61
     77.6700	  484.00	  551.53	-1834.28	  409.67
     77.7700	  504.00	  546.98	-1809.73	  409.73
     77.8700	  512.00	  543.99	-1798.74	  409.78
     77.9700	  494.00	  542.08	-1814.83	  409.84
     78.0700	  481.00	  540.89	-1826.64	  409.89
     78.1700	  483.00	  540.15	-1823.90	  409.94
     78.2700	  532.00	  539.70	-1774.45	  409.99
     78.3700	  519.00	  539.42	-1787.17	  410.04
     78.4700	  553.00	  539.27	-1753.02	  410.08
     78.5700	  550.00	  539.22	-1755.97	  410.13
     78.6700	  533.00	  539.26	-1773.01	  410.17
     78.7700	  519.00	  539.38	-1787.13	  410.22
     78.8700	  529.00	  539.62	-1777.37	  410.26
     78.9700	  511.00	  539.99	-1795.74	  410.30
     79.0700	  529.00	  540.53	-1778.28	  410.34
     79.1700	  512.00	  541.30	-1796.05	  410.38
     79.2700	  550.00	  542.35	-1759.10	  410.41
     79.3700	  539.00	  543.57	-1771.32	  410.45
     79.4700	  527.00	  545.39	-1785.14	  410.48
     79.5700	  513.00	  547.73	-1801.48	  410.51
     79.6700	  505.00	  550.69	-1812.44	  410.54
     79.7700	  536.00	  554.39	-1785.14	  410.57
     79.8700	  533.00	  559.01	-1792.76	  410.60
     79.9700	  565.00	  564.73	-1766.48	  410.63
     80.0700	  559.00	  571.81	-1779.56	  410.65
     80.1700	  616.00	  580.53	-1731.28	  410.68
     80.2700	  574.00	  591.22	-1783.97	  410.70
     80.3700	  571.00	  604.13	-1799.88	  410.72
     80.4700	  589.00	  619.38	-1797.13	  410.74
     80.5700	  605.00	  636.81	-1798.56	  410.76
     80.6700	  652.00	  655.89	-1770.64	  410.78
     80.7700	  631.00	  675.70	-1811.45	  410.79
     80.8700	  629.00	  694.92	-1832.67	  410.81
     80.9700	  673.00	  712.00	-1805.75	  410.82
     81.0700	  732.00	  725.47	-1760.22	  410.83
     81.1700	  766.00	  734.18	-1734.93	  410.84
     81.2700	  781.00	  737.40	-1723.15	  410.85
     81.3700	  752.00	  734.91	-1749.66	  410.86
     81.4700	  773.00	  727.00	-1720.75	  410.86
     81.5700	  763.00	  714.52	-1718.27	  410.87
     81.6700	  733.00	  698.61	-1732.36	  410.87
     81.7700	  719.00	  680.50	-1728.25	  410.87
     81.8700	  705.00	  661.30	-1723.05	  410.87
     81.9700	  704.00	  642.22	-1704.97	  410.87
     82.0700	  659.00	  624.16	-1731.91	  410.87
     82.1700	  669.00	  607.82	-1705.57	  410.86
     82.2700	  689.00	  593.61	-1671.36	  410.85
     82.3700	  633.00	  581.72	-1715.47	  410.85
     82.4700	  576.00	  572.11	-1762.86	  410.84
     82.5700	  553.00	  564.64	-1778.39	  410.83
     82.6700	  581.00	  559.15	-1744.90	  410.82
     82.7700	  512.00	  555.44	-1810.19	  410.80
     82.8700	  593.00	  553.30	-1727.05	  410.79
     82.9700	  551.00	  552.59	-1768.34	  410.77
     83.0700	  548.00	  553.18	-1771.93	  410.75
     83.1700	  557.00	  554.99	-1764.74	  410.73
     83.2700	  551.00	  557.91	-1773.66	  410.71
     83.3700	  543.00	  561.81	-1785.56	  410.69
     83.4700	  543.00	  566.49	-1790.24	  410.66
     83.5700	  540.00	  571.67	-1798.42	  410.64
     83.6700	  533.00	  576.97	-1810.72	  410.61
     83.7700	  538.00	  581.92	-1810.67	  410.58
     83.8700	  541.00	  585.97	-1811.72	  410.55
     83.9700	  587.00	  588.57	-1768.32	  410.52
     84.0700	  575.00	  589.31	-1781.06	  410.48
     84.1700	  568.00	  588.03	-1786.78	  410.45
     84.2700	  595.00	  584.90	-1756.65	  410.41
     84.3700	  531.00	  580.36	-1816.11	  410.37
     84.4700	  556.00	  574.94	-1785.69	  410.33
     84.5700	  535.00	  569.18	-1800.93	  410.29
     84.6700	  553.00	  563.49	-1777.24	  410.25
     84.7700	  536.00	  558.23	-1788.98	  410.20
     84.8700	  576.00	  553.62	-1744.37	  410.16
     84.9700	  521.00	  549.79	-1795.54	  410.11
     85.0700	  529.00	  546.77	-1784.52	  410.06
     85.1700	  529.00	  544.54	-1782.29	  410.01
     85.2700	  534.00	  543.03	-1775.78	  409.96
     85.3700	  568.00	  542.17	-1740.92	  409.90
     85.4700	  554.00	  541.86	-1754.61	  409.85
     85.5700	  513.00	  542.04	-1795.79	  409.79
     85.6700	  525.00	  542.63	-1784.38	  409.73
     85.7700	  478.00	  543.60	-1832.35	  409.67
     85.8700	  541.00	  544.92	-1770.67	  409.61
     85.9700	  515.00	  546.58	-1798.33	  409.55
     86.0700	  568.00	  548.60	-1747.35	  409.48
     86.1700	  518.00	  551.01	-1799.76	  409.41
     86.2700	  496.00	  553.84	-1824.59	  409.35
     86.3700	  582.00	  557.19	-1741.94	  409.28
     86.4700	  563.00	  561.13	-1764.88	  409.20
     86.5700	  552.00	  565.80	-1780.55	  409.13
     86.6700	  547.00	  571.28	-1791.03	  409.06
     86.7700	  586.00	  577.30	-1758.05	  408.98
     86.8700	  590.00	  584.35	-1761.10	  408.90
     86.9700	  633.00	  591.88	-1725.63	  408.82
     87.0700	  616.00	  599.49	-1750.24	  408.74
     87.1700	  641.00	  606.62	-1732.37	  408.66
     87.2700	  616.00	  612.64	-1763.39	  408.57
     87.3700	  593.00	  616.85	-1790.60	  408.49
     87.4700	  631.00	  618.66	-1754.41	  408.40
     87.5700	  654.00	  617.78	-1730.53	  408.31
     87.6700	  640.00	  614.27	-1741.02	  408.22
     87.7700	  637.00	  608.61	-1738.36	  408.13
     87.8700	  631.00	  601.53	-1737.28	  408.03
     87.9700	  651.00	  593.83	-1709.58	  407.94
     88.0700	  620.00	  586.28	-1733.03	  407.84
     88.1700	  645.00	  579.56	-1701.31	  407.74
     88.2700	  565.00	  574.19	-1775.94	  407.64
     88.3700	  596.00	  570.57	-1741.32	  407.54
     88.4700	  593.00	  568.90	-1742.65	  407.44
     88.5700	  567.00	  569.23	-1768.98	  407.33
     88.6700	  596.00	  571.45	-1742.20	  407.23
     88.7700	  578.00	  575.32	-1764.07	  407.12
     88.8700	  605.00	  580.45	-1742.20	  407.01
     88.9700	  539.00	  586.37	-1814.12	  406.90
     89.0700	  571.00	  592.50	-1788.25	  406.78
     89.1700	  573.00	  598.23	-1791.98	  406.67
     89.2700	  639.00	  602.88	-1730.63	  406.55
     89.3700	  579.00	  605.86	-1793.61	  406.44
     89.4700	  612.00	  606.71	-1761.46	  406.32
     89.5700	  551.00	  605.28	-1821.03	  406.20
     89.6700	  600.00	  601.72	-1768.47	  406.07
     89.7700	  608.00	  596.45	-1755.20	  405.95
     89.8700	  548.00	  590.01	-1808.76	  405.82
     89.9700	  569.00	  582.97	-1780.72	  405.70
     90.0700	  555.00	  575.82	-1787.57	  405.57
     90.1700	  600.00	  568.97	-1735.72	  405.44
     90.2700	  537.00	  562.72	-1792.47	  405.31
     90.3700	  575.00	  557.26	-1749.01	  405.17
     90.4700	  564.00	  552.70	-1755.45	  405.04
     90.5700	  533.00	  549.03	-1782.78	  404.90
     90.6700	  479.00	  546.21	-1833.96	  404.76
     90.7700	  497.00	  544.15	-1813.90	  404.62
     90.8700	  536.00	  542.74	-1773.49	  404.48
     90.9700	  514.00	  541.87	-1794.62	  404.34
     91.0700	  520.00	  541.47	-1788.22	  404.20
     91.1700	  519.00	  541.47	-1789.22	  404.05
     91.2700	  511.00	  541.85	-1797.60	  403.90
     91.3700	  496.00	  542.63	-1813.38	  403.75
     91.4700	  504.00	  543.87	-1806.62	  403.60
     91.5700	  521.00	  545.68	-1791.43	  403.45
     91.6700	  512.00	  548.17	-1802.92	  403.30
     91.7700	  504.00	  551.53	-1814.28	  403.14
     91.8700	  519.00	  555.73	-1803.48	  402.99
     91.9700	  545.00	  561.38	-1783.13	  402.83
     92.0700	  568.00	  568.45	-1767.20	  402.67
     92.1700	  615.00	  577.05	-1728.80	  402.51
     92.2700	  533.00	  587.26	-1821.01	  402.35
     92.3700	  628.00	  599.02	-1737.77	  402.19
     92.4700	  587.00	  612.19	-1791.94	  402.02
     92.5700	  626.00	  626.50	-1767.25	  401.85
     92.6700	  675.00	  641.53	-1733.28	  401.69
     92.7700	  654.00	  656.75	-1769.50	  401.52
     92.8700	  673.00	  671.57	-1765.32	  401.35
     92.9700	  745.00	  685.33	-1707.08	  401.17
     93.0700	  749.00	  697.47	-1715.22	  401.00
     93.1700	  754.00	  707.67	-1720.42	  400.82
     93.2700	  791.00	  716.00	-1691.75	  400.65
     93.3700	  817.00	  722.87	-1672.62	  400.47
     93.4700	  798.00	  728.98	-1697.73	  400.29
     93.5700	  804.00	  735.12	-1697.87	  400.11
     93.6700	  909.00	  742.05	-1599.80	  399.93
     93.7700	  817.00	  750.43	-1700.18	  399.74
     93.8700	  885.00	  760.77	-1642.52	  399.56
     93.9700	  883.00	  773.49	-1657.24	  399.37
     94.0700	  842.00	  788.83	-1713.58	  399.19
     94.1700	  821.00	  806.81	-1752.56	  399.00
     94.2700	  890.00	  827.09	-1703.84	  398.81
     94.3700	  891.00	  848.92	-1724.67	  398.61
     94.4700	  893.00	  871.10	-1744.85	  398.42
     94.5700	  880.00	  892.03	-1778.78	  398.23
     94.6700	  895.00	  909.82	-1781.57	  398.03
     94.7700	  932.00	  922.43	-1757.18	  397.84
     94.8700	  908.00	  928.05	-1786.80	  397.64
     94.9700	  876.00	  925.54	-1816.29	  397.44
     95.0700	  846.00	  914.69	-1835.44	  397.24
     95.1700	  915.00	  896.35	-1748.10	  397.03
     95.2700	  821.00	  872.14	-1817.89	  396.83
     95.3700	  831.00	  844.11	-1779.86	  396.63
     95.4700	  801.00	  814.40	-1780.15	  396.42
     95.5700	  774.00	  785.07	-1777.82	  396.21
     95.6700	  747.00	  758.02	-1777.77	  396.01
     95.7700	  732.00	  734.94	-1769.69	  395.80
     95.8700	  687.00	  717.36	-1797.11	  395.58
     95.9700	  672.00	  706.60	-1801.35	  395.37
     96.0700	  665.00	  703.82	-1805.57	  395.16
     96.1700	  707.00	  709.99	-1769.74	  394.95
     96.2700	  742.00	  725.91	-1750.66	  394.73
     96.3700	  737.00	  752.14	-1781.89	  394.51
     96.4700	  717.00	  788.93	-1838.68	  394.30
     96.5700	  802.00	  836.13	-1800.88	  394.08
     96.6700	  884.00	  893.10	-1775.85	  393.86
     96.7700	  961.00	  958.61	-1764.36	  393.64
     96.8700	 1024.00	 1030.70	-1773.45	  393.41
     96.9700	 1075.00	 1106.75	-1798.50	  393.19
     97.0700	 1173.00	 1183.42	-1777.17	  392.96
     97.1700	 1321.00	 1256.77	-1702.52	  392.74
     97.2700	 1384.00	 1322.38	-1705.13	  392.51
     97.3700	 1300.00	 1375.70	-1842.45	  392.28
     97.4700	 1349.00	 1412.55	-1830.30	  392.06
     97.5700	 1452.00	 1429.87	-1744.62	  391.83
     97.6700	 1464.00	 1426.35	-1729.10	  391.60
     97.7700	 1448.00	 1402.72	-1721.47	  391.36
     97.8700	 1278.00	 1361.55	-1850.30	  391.13
     97.9700	 1282.00	 1306.66	-1791.41	  390.90
     98.0700	 1228.00	 1242.35	-1781.10	  390.66
     98.1700	 1136.00	 1172.97	-1803.72	  390.43
     98.2700	 1116.00	 1102.63	-1753.38	  390.19
     98.3700	  999.00	 1034.96	-1802.71	  389.95
     98.4700	  983.00	  973.06	-1756.81	  389.71
     98.5700	  930.00	  919.41	-1756.16	  389.47
     98.6700	  835.00	  875.93	-1807.68	  389.23
     98.7700	  810.00	  844.10	-1800.85	  388.99
     98.8700	  802.00	  824.97	-1789.72	  388.75
     98.9700	  757.00	  819.26	-1829.01	  388.51
     99.0700	  775.00	  827.45	-1819.20	  388.26
     99.1700	  730.00	  849.79	-1886.54	  388.02
     99.2700	  836.00	  886.35	-1817.10	  387.77
     99.3700	  865.00	  937.02	-1838.77	  387.53
     99.4700	  992.00	 1001.38	-1776.13	  387.28
     99.5700	 1040.00	 1078.70	-1805.45	  387.03
     99.6700	 1143.00	 1167.80	-1791.55	  386.78
     99.7700	 1195.00	 1266.94	-1838.69	  386.53
     99.8700	 1299.00	 1373.77	-1841.52	  386.28
     99.9700	 1493.00	 1485.21	-1758.96	  386.03
    100.0700	 1547.00	 1597.50	-1817.25	  385.78
    100.1700	 1690.00	 1706.30	-1783.05	  385.53
    100.2700	 1881.00	 1807.03	-1692.78	  385.28
    100.3700	 1950.00	 1895.44	-1712.19	  385.02
    100.4700	 1974.00	 1967.94	-1760.69	  384.77
    100.5700	 2136.00	 2021.95	-1652.70	  384.51
    100.6700	 2152.00	 2055.79	-1670.54	  384.26
    100.7700	 2109.00	 2068.41	-1726.16	  384.00
    100.8700	 2155.00	 2059.35	-1671.10	  383.74
    100.9700	 2091.00	 2028.80	-1704.55	  383.49
    101.0700	 2059.00	 1977.95	-1685.70	  383.23
    101.1700	 1991.00	 1909.38	-1685.13	  382.97
    101.2700	 1940.00	 1826.97	-1653.72	  382.71
    101.3700	 1731.00	 1735.50	-1771.25	  382.45
    101.4700	 1638.00	 1640.13	-1768.88	  382.19
    101.5700	 1532.00	 1545.68	-1780.43	  381.93
    101.6700	 1453.00	 1456.32	-1770.07	  381.67
    101.7700	 1347.00	 1375.27	-1795.02	  381.41
    101.8700	 1323.00	 1304.65	-1748.40	  381.15
    101.9700	 1307.00	 1245.53	-1705.28	  380.89
    102.0700	 1176.00	 1197.89	-1788.64	  380.63
    102.1700	 1170.00	 1160.77	-1757.52	  380.36
    102.2700	 1106.00	 1132.40	-1793.15	  380.10
    102.3700	 1109.00	 1110.38	-1768.13	  379.84
    102.4700	 1102.00	 1092.00	-1756.75	  379.57
    102.5700	 1078.00	 1074.50	-1763.25	  379.31
    102.6700	 1039.00	 1055.43	-1783.18	  379.05
    102.7700	 1057.00	 1033.02	-1742.77	  378.78
    102.8700	  994.00	 1006.31	-1779.06	  378.52
    102.9700	 1012.00	  975.22	-1729.97	  378.25
    103.0700	  906.00	  940.29	-1801.04	  377.99
    103.1700	  868.00	  902.55	-1801.30	  377.72
    103.2700	  864.00	  863.20	-1765.95	  377.46
    103.3700	  853.00	  823.49	-1737.24	  377.19
    103.4700	  799.00	  784.63	-1752.38	  376.93
    103.5700	  732.00	  747.63	-1782.38	  376.66
    103.6700	  737.00	  713.33	-1743.08	  376.39
    103.7700	  687.00	  682.37	-1762.12	  376.13
    103.8700	  677.00	  655.10	-1744.85	  375.86
    103.9700	  608.00	  631.70	-1790.45	  375.60
    104.0700	  612.00	  612.14	-1766.89	  375.33
    104.1700	  599.00	  596.23	-1763.98	  375.07
    104.2700	  572.00	  583.69	-1778.44	  374.80
    104.3700	  542.00	  574.15	-1798.90	  374.53
    104.4700	  548.00	  567.23	-1785.98	  374.27
    104.5700	  493.00	  562.52	-1836.27	  374.00
    104.6700	  511.00	  559.66	-1815.41	  373.74
    104.7700	  542.00	  558.31	-1783.06	  373.47
    104.8700	  566.00	  558.14	-1758.89	  373.21
    104.9700	  576.00	  558.90	-1749.65	  372.94
    105.0700	  558.00	  560.36	-1769.11	  372.68
    105.1700	  546.00	  562.33	-1783.08	  372.42
    105.2700	  534.00	  564.70	-1797.45	  372.15
    105.3700	  551.00	  567.33	-1783.08	  371.89
    105.4700	  578.00	  570.17	-1758.92	  371.63
    105.5700	  552.00	  573.23	-1787.98	  371.36
    105.6700	  552.00	  576.54	-1791.29	  371.10
    105.7700	  526.00	  580.18	-1820.93	  370.84
    105.8700	  573.00	  584.29	-1778.04	  370.58
    105.9700	  540.00	  589.00	-1815.75	  370.32
    106.0700	  581.00	  594.44	-1780.19	  370.05
    106.1700	  629.00	  600.71	-1738.46	  369.79
    106.2700	  554.00	  607.84	-1820.59	  369.53
    106.3700	  568.00	  615.81	-1814.56	  369.28
    106.4700	  624.00	  624.52	-1767.27	  369.02
    106.5700	  607.00	  633.79	-1793.54	  368.76
    106.6700	  607.00	  643.37	-1803.12	  368.50
    106.7700	  591.00	  652.92	-1828.67	  368.24
    106.8700	  651.00	  662.07	-1777.82	  367.99
    106.9700	  607.00	  670.41	-1830.16	  367.73
    107.0700	  648.00	  677.53	-1796.28	  367.48
    107.1700	  665.00	  683.09	-1784.84	  367.22
    107.2700	  681.00	  686.82	-1772.57	  366.97
    107.3700	  671.00	  688.66	-1784.41	  366.72
    107.4700	  696.00	  688.69	-1759.44	  366.47
    107.5700	  700.00	  687.18	-1753.93	  366.22
    107.6700	  665.00	  684.53	-1786.28	  365.97
    107.7700	  668.00	  681.20	-1779.95	  365.72
    107.8700	  677.00	  677.63	-1767.38	  365.47
    107.9700	  688.00	  674.24	-1752.99	  365.22
    108.0700	  660.00	  671.35	-1778.10	  364.98
    108.1700	  664.00	  669.19	-1771.94	  364.73
    108.2700	  678.00	  667.84	-1756.59	  364.49
    108.3700	  670.00	  667.31	-1764.06	  364.25
    108.4700	  633.00	  667.45	-1801.20	  364.00
    108.5700	  694.00	  668.04	-1740.79	  363.76
    108.6700	  691.00	  668.75	-1744.50	  363.52
    108.7700	  708.00	  669.22	-1727.97	  363.28
    108.8700	  649.00	  669.04	-1786.79	  363.05
    108.9700	  638.00	  667.86	-1796.61	  362.81
    109.0700	  732.00	  665.39	-1700.14	  362.58
    109.1700	  642.00	  661.48	-1786.23	  362.34
    109.2700	  704.00	  656.09	-1718.84	  362.11
    109.3700	  647.00	  649.33	-1769.08	  361.88
    109.4700	  659.00	  641.41	-1749.16	  361.65
    109.5700	  638.00	  632.61	-1761.36	  361.42
    109.6700	  583.00	  623.23	-1806.98	  361.20
    109.7700	  640.00	  613.59	-1740.34	  360.97
    109.8700	  614.00	  603.99	-1756.74	  360.75
    109.9700	  615.00	  594.69	-1746.44	  360.53
    110.0700	  520.00	  585.94	-1832.69	  360.31
    110.1700	  591.00	  577.91	-1753.66	  360.09
    110.2700	  585.00	  570.73	-1752.48	  359.87
    110.3700	  557.00	  564.48	-1774.23	  359.66
    110.4700	  568.00	  559.20	-1757.95	  359.44
    110.5700	  549.00	  554.88	-1772.63	  359.23
    110.6700	  501.00	  551.49	-1817.24	  359.02
    110.7700	  559.00	  548.96	-1756.71	  358.81
    110.8700	  573.00	  547.21	-1740.96	  358.61
    110.9700	  512.00	  546.17	-1800.92	  358.40
    111.0700	  582.00	  545.73	-1730.48	  358.20
    111.1700	  569.00	  545.83	-1743.58	  358.00
    111.2700	  550.00	  546.39	-1763.14	  357.80
    111.3700	  556.00	  547.34	-1758.09	  357.60
    111.4700	  555.00	  548.62	-1760.37	  357.41
    111.5700	  522.00	  550.20	-1794.95	  357.22
    111.6700	  547.00	  552.04	-1771.79	  357.03
    111.7700	  558.00	  554.13	-1762.88	  356.84
    111.8700	  560.00	  556.44	-1763.19	  356.65
    111.9700	  540.00	  558.98	-1785.73	  356.47
    112.0700	  567.00	  561.74	-1761.49	  356.29
    112.1700	  543.00	  564.74	-1788.49	  356.11
    112.2700	  568.00	  567.99	-1766.74	  355.93
    112.3700	  597.00	  571.53	-1741.28	  355.75
    112.4700	  595.00	  575.39	-1747.14	  355.58
    112.5700	  633.00	  579.61	-1713.36	  355.41
    112.6700	  609.00	  584.27	-1742.02	  355.24
    112.7700	  578.00	  589.43	-1778.18	  355.08
    112.8700	  636.00	  595.21	-1725.96	  354.92
    112.9700	  638.00	  601.74	-1730.49	  354.76
    113.0700	  713.00	  609.22	-1662.97	  354.60
    113.1700	  732.00	  617.87	-1652.62	  354.44
    113.2700	  743.00	  628.00	-1651.75	  354.29
    113.3700	  761.00	  640.00	-1645.75	  354.14
    113.4700	  830.00	  654.35	-1591.10	  353.99
    113.5700	  868.00	  671.67	-1570.42	  353.85
    113.6700	  904.00	  692.71	-1555.46	  353.71
    113.7700	  950.00	  718.39	-1535.14	  353.57
    113.8700	  975.00	  749.82	-1541.57	  353.44
    113.9700	  960.00	  788.31	-1595.06	  353.30
    114.0700	 1075.00	  835.37	-1527.12	  353.17
    114.1700	 1152.00	  892.74	-1507.49	  353.05
    114.2700	 1141.00	  962.33	-1588.08	  352.92
    114.3700	 1226.00	 1046.27	-1587.02	  352.80
    114.4700	 1315.00	 1146.77	-1598.52	  352.69
    114.5700	 1455.00	 1266.15	-1577.90	  352.57
    114.6700	 1615.00	 1406.70	-1558.45	  352.46
    114.7700	 1700.00	 1570.53	-1637.28	  352.35
    114.8700	 1893.00	 1759.60	-1633.35	  352.25
    114.9700	 2113.00	 1975.36	-1629.11	  352.15
    115.0700	 2346.00	 2218.84	-1639.59	  352.05
    115.1700	 2471.00	 2490.26	-1786.01	  351.96
    115.2700	 2877.00	 2789.00	-1678.75	  351.87
    115.3700	 2951.00	 3113.59	-1929.34	  351.78
    115.4700	 3419.00	 3461.29	-1809.04	  351.70
    115.5700	 3628.00	 3828.41	-1967.16	  351.62
    115.6700	 3946.00	 4209.90	-2030.65	  351.54
    115.7700	 4355.00	 4599.50	-2011.25	  351.47
    115.8700	 4659.00	 4989.91	-2097.66	  351.40
    115.9700	 5068.00	 5372.51	-2071.26	  351.33
    116.0700	 5525.00	 5737.92	-1979.67	  351.27
    116.1700	 5768.00	 6075.80	-2074.55	  351.21
    116.2700	 6176.00	 6375.37	-1966.12	  351.16
    116.3700	 6555.00	 6626.08	-1837.83	  351.11
    116.4700	 6774.00	 6817.98	-1810.73	  351.06
    116.5700	 7028.00	 6942.98	-1681.73	  351.02
    116.6700	 7067.00	 6995.41	-1695.16	  350.98
    116.7700	 7051.00	 6972.94	-1688.69	  350.95
    116.8700	 7000.00	 6876.83	-1643.58	  350.92
    116.9700	 6743.00	 6711.80	-1735.55	  350.90
    117.0700	 6678.00	 6485.29	-1574.04	  350.87
    117.1700	 6207.00	 6206.77	-1766.52	  350.86
    117.2700	 5867.00	 5886.75	-1786.50	  350.85
    117.3700	 5526.00	 5535.85	-1776.60	  350.84
    117.4700	 5264.00	 5164.59	-1667.34	  350.83
    117.5700	 4931.00	 4782.54	-1618.29	  350.83
    117.6700	 4480.00	 4398.48	-1685.23	  350.84
    117.7700	 4205.00	 4020.10	-1581.85	  350.85
    117.8700	 3878.00	 3653.71	-1542.46	  350.86
    117.9700	 3521.00	 3304.63	-1550.38	  350.88
    118.0700	 3053.00	 2976.76	-1690.51	  350.91
    118.1700	 2677.00	 2672.99	-1762.74	  350.93
    118.2700	 2384.00	 2395.13	-1777.88	  350.97
    118.3700	 2061.00	 2143.91	-1849.66	  351.00
    118.4700	 1859.00	 1919.38	-1827.13	  351.05
    118.5700	 1608.00	 1720.75	-1879.50	  351.10
    118.6700	 1430.00	 1546.80	-1883.55	  351.15
    118.7700	 1312.00	 1395.89	-1850.64	  351.21
    118.8700	 1164.00	 1266.05	-1868.80	  351.27
    118.9700	 1015.00	 1155.21	-1906.96	  351.34
    119.0700	  926.00	 1061.21	-1901.96	  351.41
    119.1700	  854.00	  981.98	-1894.73	  351.49
    119.2700	  868.00	  915.53	-1814.28	  351.57
    119.3700	  761.00	  859.99	-1865.74	  351.66
    119.4700	  734.00	  813.71	-1846.46	  351.75
    119.5700	  736.00	  775.20	-1805.95	  351.85
    119.6700	  642.00	  743.19	-1867.94	  351.96
    119.7700	  639.00	  716.58	-1844.33	  352.07
    119.8700	  654.00	  694.43	-1807.18	  352.19
    119.9700	  627.00	  675.97	-1815.72	  352.31
    120.0700	  605.00	  660.57	-1822.32	  352.44
    120.1700	  574.00	  647.70	-1840.45	  352.57
    120.2700	  559.00	  636.93	-1844.68	  352.71
    120.3700	  600.00	  627.93	-1794.68	  352.85
    120.4700	  574.00	  620.43	-1813.18	  353.00
    120.5700	  561.00	  614.21	-1819.96	  353.16
    120.6700	  551.00	  609.10	-1824.85	  353.32
    120.7700	  563.00	  604.97	-1808.72	  353.49
    120.8700	  571.00	  601.71	-1797.46	  353.67
    120.9700	  589.00	  599.25	-1777.00	  353.85
    121.0700	  596.00	  597.53	-1768.28	  354.04
    121.1700	  587.00	  596.49	-1776.24	  354.23
    121.2700	  609.00	  596.09	-1753.84	  354.43
    121.3700	  587.00	  596.28	-1776.03	  354.63
    121.4700	  567.00	  597.04	-1796.79	  354.85
    121.5700	  607.00	  598.30	-1758.05	  355.07
    121.6700	  609.00	  600.03	-1757.78	  355.29
    121.7700	  612.00	  602.16	-1756.91	  355.52
    121.8700	  643.00	  604.62	-1728.37	  355.76
    121.9700	  582.00	  607.36	-1792.11	  356.01
    122.0700	  608.00	  610.28	-1769.03	  356.26
    122.1700	  600.00	  613.29	-1780.04	  356.52
    122.2700	  659.00	  616.29	-1724.04	  356.78
    122.3700	  622.00	  619.19	-1763.94	  357.06
    122.4700	  604.00	  621.87	-1784.62	  357.34
    122.5700	  642.00	  624.23	-1748.98	  357.62
    122.6700	  627.00	  626.18	-1765.93	  357.92
    122.7700	  650.00	  627.64	-1744.39	  358.22
    122.8700	  651.00	  628.52	-1744.27	  358.53
    122.9700	  626.00	  628.81	-1769.56	  358.84
    123.0700	  627.00	  628.48	-1768.23	  359.16
    123.1700	  645.00	  627.54	-1749.29	  359.49
    123.2700	  651.00	  626.03	-1741.78	  359.83
    123.3700	  655.00	  624.01	-1735.76	  360.18
    123.4700	  616.00	  621.53	-1772.28	  360.53
    123.5700	  657.00	  618.68	-1728.43	  360.89
    123.6700	  625.00	  615.52	-1757.27	  361.26
    123.7700	  620.00	  612.14	-1758.89	  361.63
    123.8700	  688.00	  608.60	-1687.35	  362.02
    123.9700	  613.00	  604.98	-1758.73	  362.41
    124.0700	  642.00	  601.35	-1726.10	  362.81
    124.1700	  702.00	  597.75	-1662.50	  363.21
    124.2700	  570.00	  594.24	-1790.99	  363.63
    124.3700	  572.00	  590.86	-1785.61	  364.05
    124.4700	  566.00	  587.64	-1788.39	  364.48
    124.5700	  570.00	  584.61	-1781.36	  364.92
    124.6700	  622.00	  581.77	-1726.52	  365.37
    124.7700	  592.00	  579.16	-1753.91	  365.83
    124.8700	  547.00	  576.77	-1796.52	  366.29
    124.9700	  584.00	  483.71	-1666.46	  366.76
    125.0700	  603.00	  484.19	-1766.75	  367.24
    125.1700	  558.00	  484.68	-1766.75	  367.73
    125.2700	  611.00	  485.18	-1766.75	  368.23
    125.3700	  590.00	  485.68	-1766.75	  368.74
    125.4700	  576.00	  486.20	-1766.75	  369.26
    125.5700	  577.00	  486.73	-1766.75	  369.78
    125.6700	  575.00	  487.26	-1766.75	  370.32
    125.7700	  563.00	  487.80	-1766.75	  370.86
    125.8700	  556.00	  488.35	-1766.75	  371.41
    125.9700	  576.00	  488.92	-1766.75	  371.97
    126.0700	  584.00	  489.49	-1766.75	  372.54
    126.1700	  588.00	  490.06	-1766.75	  373.12
    126.2700	  565.00	  490.65	-1766.75	  373.71
    126.3700	  599.00	  491.25	-1766.75	  374.31
    126.4700	  585.00	  491.86	-1766.75	  374.91
    126.5700	  564.00	  492.48	-1766.75	  375.53
    126.6700	  562.00	  493.10	-1766.75	  376.16
    126.7700	  569.00	  493.74	-1766.75	  376.79
    126.8700	  661.00	  494.38	-1766.75	  377.44
    126.9700	  604.00	  495.04	-1766.75	  378.10
    127.0700	  638.00	  495.71	-1766.75	  378.76
    127.1700	  681.00	  496.38	-1766.75	  379.44
    127.2700	  613.00	  497.07	-1766.75	  380.12
    127.3700	  669.00	  497.76	-1766.75	  380.82
    127.4700	  614.00	  498.47	-1766.75	  381.52
    127.5700	  659.00	  499.18	-1766.75	  382.24
    127.6700	  662.00	  499.91	-1766.75	  382.96
    127.7700	  716.00	  500.64	-1766.75	  383.70
    127.8700	  687.00	  501.39	-1766.75	  384.45
    127.9700	  749.00	  502.15	-1766.75	  385.20
    128.0700	  747.00	  502.92	-1766.75	  385.97
    128.1700	  804.00	  503.69	-1766.75	  386.75
    128.2700	  796.00	  504.48	-1766.75	  387.54
    128.3700	  796.00	  505.28	-1766.75	  388.34
    128.4700	  772.00	  506.09	-1766.75	  389.15
    128.5700	    0.00	  506.91	-1766.75	  389.97
    128.6700	    0.00	  507.75	-1766.75	  390.80
     12.3120	        	        	        	        	       0	(  0  0  2)	  0  1
     24.8989	        	        	        	        	       0	(  0  0  4)	  0  1
     28.3383	        	        	        	        	       0	(  1  0  0)	  0  1
     29.0358	        	        	        	        	       0	(  1  0  1)	  0  1
     31.0429	        	        	        	        	       0	(  1  0  2)	  0  1
     34.1524	        	        	        	        	       0	(  1  0  3)	  0  1
     37.8021	        	        	        	        	       0	(  0  0  6)	  0  1
     38.1310	        	        	        	        	       0	(  1  0  4)	  0  1
     42.7829	        	        	        	        	       0	(  1  0  5)	  0  1
     47.9688	        	        	        	        	       0	(  1  0  6)	  0  1
     50.2796	        	        	        	        	       0	(  1  1  0)	  0  1
     51.2281	        	        	        	        	       0	(  0  0  8)	  0  1
     52.0033	        	        	        	        	       0	(  1  1  2)	  0  1
     53.6013	        	        	        	        	       0	(  1  0  7)	  0  1
     56.9533	        	        	        	        	       0	(  1  1  4)	  0  1
     58.7784	        	        	        	        	       0	(  2  0  0)	  0  1
     59.1702	        	        	        	        	       0	(  2  0  1)	  0  1
     59.6339	        	        	        	        	       0	(  1  0  8)	  0  1
     60.3361	        	        	        	        	       0	(  2  0  2)	  0  1
     62.2502	        	        	        	        	       0	(  2  0  3)	  0  1
     64.6513	        	        	        	        	       0	(  1  1  6)	  0  1
     64.8754	        	        	        	        	       0	(  2  0  4)	  0  1
     65.4621	        	        	        	        	       0	(  0  0 10)	  0  1
     66.0527	        	        	        	        	       0	(  1  0  9)	  0  1
     68.1712	        	        	        	        	       0	(  2  0  5)	  0  1
     72.1004	        	        	        	        	       0	(  2  0  6)	  0  1
     72.8716	        	        	        	        	       0	(  1  0 10)	  0  1
     74.6935	        	        	        	        	       0	(  1  1  8)	  0  1
     76.6367	        	        	        	        	       0	(  2  0  7)	  0  1
     80.1323	        	        	        	        	       0	(  1  0 11)	  0  1
     80.9487	        	        	        	        	       0	(  0  0 12)	  0  1
     81.0254	        	        	        	        	       0	(  2  1  0)	  0  1
     81.3654	        	        	        	        	       0	(  2  1  1)	  0  1
     81.7694	        	        	        	        	       0	(  2  0  8)	  0  1
     82.3838	        	        	        	        	       0	(  2  1  2)	  0  1
     84.0760	        	        	        	        	       0	(  2  1  3)	  0  1
     86.4369	        	        	        	        	       0	(  2  1  4)	  0  1
     86.9707	        	        	        	        	       0	(  1  1 10)	  0  1
     87.5103	        	        	        	        	       0	(  2  0  9)	  0  1
     87.9103	        	        	        	        	       0	(  1  0 12)	  0  1
     89.4643	        	        	        	        	       0	(  2  1  5)	  0  1
     93.1638	        	        	        	        	       0	(  2  1  6)	  0  1
     93.9012	        	        	        	        	       0	(  2  0 10)	  0  1
     94.9189	        	        	        	        	       0	(  3  0  0)	  0  1
     95.2565	        	        	        	        	       0	(  3  0  1)	  0  1
     96.2703	        	        	        	        	       0	(  3  0  2)	  0  1
     96.3281	        	        	        	        	       0	(  1  0 13)	  0  1
     97.5550	        	        	        	        	       0	(  2  1  7)	  0  1
     97.9647	        	        	        	        	       0	(  3  0  3)	  0  1
     98.4972	        	        	        	        	       0	(  0  0 14)	  0  1
    100.3491	        	        	        	        	       0	(  3  0  4)	  0  1
    101.0274	        	        	        	        	       0	(  2  0 11)	  0  1
    101.8496	        	        	        	        	       0	(  1  1 12)	  0  1
    102.6806	        	        	        	        	       0	(  2  1  8)	  0  1
    103.4427	        	        	        	        	       0	(  3  0  5)	  0  1
    105.5868	        	        	        	        	       0	(  1  0 14)	  0  1
    107.2804	        	        	        	        	       0	(  3  0  6)	  0  1
    108.6216	        	        	        	        	       0	(  2  1  9)	  0  1
    109.0442	        	        	        	        	       0	(  2  0 12)	  0  1
    111.9241	        	        	        	        	       0	(  3  0  7)	  0  1
    115.5239	        	        	        	        	       0	(  2  1 10)	  0  1
    116.0389	        	        	        	        	       0	(  1  0 15)	  0  1
    116.6548	        	        	        	        	       0	(  2  2  0)	  0  1
    117.4821	        	        	        	        	       0	(  3  0  8)	  0  1
    118.1712	        	        	        	        	       0	(  2  2  2)	  0  1
    118.2365	        	        	        	        	       0	(  2  0 13)	  0  1
    120.0032	        	        	        	        	       0	(  0  0 16)	  0  1
    120.7095	        	        	        	        	       0	(  1  1 14)	  0  1
    122.8610	        	        	        	        	       0	(  2  2  4)	  0  1
    123.6589	        	        	        	        	       0	(  2  1 11)	  0  1
    124.1486	        	        	        	        	       0	(  3  0  9)	  0  1
    124.7260	        	        	        	        	       0	(  3  1  0)	  0  1
    125.1366	        	        	        	        	       0	(  3  1  1)	  0  1
    126.3813	        	        	        	        	       0	(  3  1  2)	  0  1
    128.3972	        	        	        	        	       0	(  1  0 16)	  0  1
    128.5019	        	        	        	        	       0	(  3  1  3)	  0  1
    129.1795	        	        	        	        	       0	(  2  0 14)	  0  1
    131.3103	        	        	        	        	       0	(  2  2  6)	  0  1
    131.5815	        	        	        	        	       0	(  3  1  4)	  0  1
    132.2995	        	        	        	        	       0	(  3  0 10)	  0  1
    133.5845	        	        	        	        	       0	(  2  1 12)	  0  1
    135.7744	        	        	        	        	       0	(  3  1  5)	  0  1
    141.3794	        	        	        	        	       0	(  3  1  6)	  0  1
    142.7978	        	        	        	        	       0	(  3  0 11)	  0  1
    143.3488	        	        	        	        	       0	(  2  0 15)	  0  1
    144.6039	        	        	        	        	       0	(  1  0 17)	  0  1
    145.5701	        	        	        	        	       0	(  2  2  8)	  0  1
    146.7707	        	        	        	        	       0	(  2  1 13)	  0  1
    149.0713	        	        	        	        	       0	(  3  1  7)	  0  1
    149.7099	        	        	        	        	       0	(  1  1 16)	  0  1
    154.1506	        	        	        	        	       0	(  0  0 18)	  0  1
    158.7452	        	        	        	        	       0	(  3  0 12)	  0  1
    158.9564	        	        	        	        	       0	(  4  0  0)	  0  1
    159.9191	        	        	        	        	       0	(  4  0  1)	  0  1
    161.1254	        	        	        	        	       0	(  3  1  8)	  0  1
    163.1221	        	        	        	        	       0	(  4  0  2)	  0  1
    170.0936	        	        	        	        	       0	(  2  0 16)	  0  1
    170.5880	        	        	        	        	       0	(  4  0  3)	  0  1
    174.8053	        	        	        	        	       0	(  2  1 14)	  0  1
