MSG Master    CELL:    5.91919   5.91919  23.27360   90.0000   90.0000  120.0000   SPGR: P 63/m m c             TEMP:   1074.85
  1   1280     2.52000     0.00000    -0.12512     0.00000     0.00000    0
    99     0     2
       0.00000      10.00000
     125.00000     130.00000
 2Theta	Yobs	Ycal	Yobs-Ycal	Backg	Posr	(hkl)	K
      0.7700	    0.00	  538.13	-1759.00	  419.89
      0.8700	    0.00	  538.89	-1759.00	  420.66
      0.9700	   36.00	  539.65	-1759.00	  421.41
      1.0700	   40.00	  540.39	-1759.00	  422.15
      1.1700	   41.00	  541.12	-1759.00	  422.88
      1.2700	   31.00	  541.84	-1759.00	  423.60
      1.3700	   47.00	  542.55	-1759.00	  424.31
      1.4700	   99.00	  543.25	-1759.00	  425.01
      1.5700	  272.00	  543.94	-1759.00	  425.70
      1.6700	  468.00	  544.61	-1759.00	  426.38
      1.7700	  592.00	  545.28	-1759.00	  427.04
      1.8700	  657.00	  545.94	-1759.00	  427.70
      1.9700	  728.00	  546.59	-1759.00	  428.35
      2.0700	  761.00	  547.22	-1759.00	  428.98
      2.1700	  816.00	  547.85	-1759.00	  429.61
      2.2700	  787.00	  548.46	-1759.00	  430.23
      2.3700	  758.00	  549.07	-1759.00	  430.83
      2.4700	  690.00	  549.67	-1759.00	  431.43
      2.5700	  740.00	  550.25	-1759.00	  432.02
      2.6700	  687.00	  550.83	-1759.00	  432.59
      2.7700	  661.00	  551.40	-1759.00	  433.16
      2.8700	  658.00	  551.96	-1759.00	  433.72
      2.9700	  639.00	  552.50	-1759.00	  434.27
      3.0700	  591.00	  553.04	-1759.00	  434.80
      3.1700	  599.00	  553.57	-1759.00	  435.33
      3.2700	  600.00	  554.09	-1759.00	  435.85
      3.3700	  688.00	  554.60	-1759.00	  436.36
      3.4700	  724.00	  555.10	-1759.00	  436.87
      3.5700	  804.00	  555.60	-1759.00	  437.36
      3.6700	  849.00	  556.08	-1759.00	  437.84
      3.7700	  897.00	  556.55	-1759.00	  438.31
      3.8700	  962.00	  557.02	-1759.00	  438.78
      3.9700	  990.00	  557.47	-1759.00	  439.23
      4.0700	 1101.00	  557.92	-1759.00	  439.68
      4.1700	 1063.00	  558.36	-1759.00	  440.12
      4.2700	 1097.00	  558.79	-1759.00	  440.55
      4.3700	 1121.00	  559.21	-1759.00	  440.97
      4.4700	 1043.00	  559.62	-1759.00	  441.38
      4.5700	 1132.00	  560.03	-1759.00	  441.79
      4.6700	 1036.00	  560.42	-1759.00	  442.18
      4.7700	  985.00	  560.81	-1759.00	  442.57
      4.8700	  955.00	  561.19	-1759.00	  442.95
      4.9700	 1000.00	  561.56	-1759.00	  443.32
      5.0700	  999.00	  561.92	-1759.00	  443.68
      5.1700	  906.00	  562.28	-1759.00	  444.04
      5.2700	  927.00	  562.62	-1759.00	  444.38
      5.3700	  904.00	  562.96	-1759.00	  444.72
      5.4700	  877.00	  563.29	-1759.00	  445.05
      5.5700	  852.00	  563.61	-1759.00	  445.38
      5.6700	  856.00	  563.93	-1759.00	  445.69
      5.7700	  848.00	  564.23	-1759.00	  446.00
      5.8700	  826.00	  564.53	-1759.00	  446.30
      5.9700	  858.00	  564.83	-1759.00	  446.59
      6.0700	  782.00	  565.11	-1759.00	  446.87
      6.1700	  764.00	  565.39	-1759.00	  447.15
      6.2700	  769.00	  565.66	-1759.00	  447.42
      6.3700	  778.00	  565.92	-1759.00	  447.68
      6.4700	  792.00	  566.17	-1759.00	  447.93
      6.5700	  693.00	  566.42	-1759.00	  448.18
      6.6700	  756.00	  566.66	-1759.00	  448.42
      6.7700	  742.00	  566.89	-1759.00	  448.65
      6.8700	  711.00	  567.12	-1759.00	  448.88
      6.9700	  689.00	  567.34	-1759.00	  449.10
      7.0700	  675.00	  567.55	-1759.00	  449.31
      7.1700	  767.00	  567.75	-1759.00	  449.52
      7.2700	  709.00	  567.95	-1759.00	  449.71
      7.3700	  687.00	  568.14	-1759.00	  449.90
      7.4700	  659.00	  568.33	-1759.00	  450.09
      7.5700	  661.00	  568.51	-1759.00	  450.27
      7.6700	  632.00	  568.68	-1759.00	  450.44
      7.7700	  694.00	  568.84	-1759.00	  450.60
      7.8700	  617.00	  569.00	-1759.00	  450.76
      7.9700	  653.00	  569.15	-1759.00	  450.91
      8.0700	  638.00	  569.30	-1759.00	  451.06
      8.1700	  626.00	  569.44	-1759.00	  451.20
      8.2700	  647.00	  569.57	-1759.00	  451.33
      8.3700	  631.00	  569.69	-1759.00	  451.46
      8.4700	  590.00	  569.81	-1759.00	  451.58
      8.5700	  585.00	  569.93	-1759.00	  451.69
      8.6700	  625.00	  570.04	-1759.00	  451.80
      8.7700	  652.00	  570.14	-1759.00	  451.90
      8.8700	  597.00	  570.24	-1759.00	  452.00
      8.9700	  648.00	  570.33	-1759.00	  452.09
      9.0700	  615.00	  570.41	-1759.00	  452.17
      9.1700	  616.00	  570.49	-1759.00	  452.25
      9.2700	  642.00	  570.56	-1759.00	  452.32
      9.3700	  642.00	  570.63	-1759.00	  452.39
      9.4700	  604.00	  570.69	-1759.00	  452.45
      9.5700	  632.00	  570.75	-1759.00	  452.51
      9.6700	  615.00	  570.80	-1759.00	  452.56
      9.7700	  584.00	  570.84	-1759.00	  452.60
      9.8700	  585.00	  570.88	-1759.00	  452.64
      9.9700	  592.00	  570.92	-1759.00	  452.68
     10.0700	  559.00	  571.73	-1771.73	  452.71
     10.1700	  608.00	  571.84	-1722.84	  452.73
     10.2700	  586.00	  571.96	-1744.96	  452.75
     10.3700	  594.00	  572.11	-1737.11	  452.76
     10.4700	  561.00	  572.31	-1770.31	  452.77
     10.5700	  593.00	  572.61	-1738.61	  452.77
     10.6700	  613.00	  573.12	-1719.12	  452.77
     10.7700	  575.00	  573.94	-1757.94	  452.76
     10.8700	  576.00	  575.15	-1758.15	  452.75
     10.9700	  567.00	  576.72	-1768.72	  452.74
     11.0700	  620.00	  578.64	-1717.64	  452.71
     11.1700	  589.00	  580.89	-1750.89	  452.69
     11.2700	  559.00	  583.51	-1783.51	  452.66
     11.3700	  591.00	  586.58	-1754.58	  452.62
     11.4700	  609.00	  590.22	-1740.22	  452.58
     11.5700	  603.00	  594.63	-1750.63	  452.54
     11.6700	  601.00	  600.16	-1758.16	  452.49
     11.7700	  624.00	  607.40	-1742.40	  452.43
     11.8700	  670.00	  617.27	-1706.27	  452.37
     11.9700	  640.00	  630.42	-1749.42	  452.31
     12.0700	  627.00	  645.32	-1777.32	  452.24
     12.1700	  638.00	  655.92	-1776.92	  452.17
     12.2700	  650.00	  652.62	-1761.62	  452.10
     12.3700	  660.00	  632.52	-1731.52	  452.02
     12.4700	  633.00	  607.94	-1733.94	  451.93
     12.5700	  593.00	  589.99	-1755.99	  451.85
     12.6700	  578.00	  580.26	-1761.26	  451.75
     12.7700	  575.00	  575.88	-1759.88	  451.66
     12.8700	  508.00	  573.91	-1824.91	  451.56
     12.9700	  553.00	  572.84	-1778.84	  451.45
     13.0700	  579.00	  572.12	-1752.12	  451.35
     13.1700	  555.00	  571.57	-1775.57	  451.23
     13.2700	  574.00	  571.13	-1756.13	  451.12
     13.3700	  603.00	  570.76	-1726.76	  451.00
     13.4700	  563.00	  570.44	-1766.44	  450.88
     13.5700	  567.00	  570.15	-1762.15	  450.75
     13.6700	  608.00	  569.90	-1720.90	  450.62
     13.7700	  583.00	  569.66	-1745.66	  450.49
     13.8700	  541.00	  569.44	-1787.44	  450.35
     13.9700	  598.00	  569.22	-1730.22	  450.21
     14.0700	  537.00	  569.01	-1791.01	  450.06
     14.1700	  553.00	  568.81	-1774.81	  449.92
     14.2700	  572.00	  568.62	-1755.62	  449.77
     14.3700	  524.00	  568.42	-1803.42	  449.61
     14.4700	  554.00	  568.23	-1773.23	  449.45
     14.5700	  564.00	  568.04	-1763.04	  449.29
     14.6700	  583.00	  567.85	-1743.85	  449.13
     14.7700	  534.00	  567.66	-1792.66	  448.96
     14.8700	  528.00	  567.46	-1798.46	  448.79
     14.9700	  543.00	  567.27	-1783.27	  448.62
     15.0700	  520.00	  567.08	-1806.08	  448.44
     15.1700	  557.00	  566.88	-1768.88	  448.26
     15.2700	  561.00	  566.69	-1764.69	  448.08
     15.3700	  521.00	  566.49	-1804.49	  447.90
     15.4700	  545.00	  566.29	-1780.29	  447.71
     15.5700	  572.00	  566.09	-1753.09	  447.52
     15.6700	  579.00	  565.88	-1745.88	  447.32
     15.7700	  549.00	  565.68	-1775.68	  447.13
     15.8700	  603.00	  565.47	-1721.47	  446.93
     15.9700	  603.00	  565.26	-1721.26	  446.73
     16.0700	  583.00	  565.05	-1741.05	  446.52
     16.1700	  534.00	  564.86	-1789.86	  446.31
     16.2700	  599.00	  564.65	-1724.65	  446.10
     16.3700	  579.00	  564.43	-1744.43	  445.89
     16.4700	  505.00	  564.21	-1818.21	  445.68
     16.5700	  564.00	  563.99	-1758.99	  445.46
     16.6700	  568.00	  563.77	-1754.77	  445.24
     16.7700	  570.00	  563.54	-1752.54	  445.02
     16.8700	  609.00	  563.31	-1713.31	  444.80
     16.9700	  520.00	  563.08	-1802.08	  444.57
     17.0700	  544.00	  562.85	-1777.85	  444.34
     17.1700	  534.00	  562.62	-1787.62	  444.11
     17.2700	  565.00	  562.38	-1756.38	  443.88
     17.3700	  567.00	  562.15	-1754.15	  443.64
     17.4700	  580.00	  561.91	-1740.91	  443.40
     17.5700	  576.00	  561.67	-1744.67	  443.16
     17.6700	  513.00	  561.42	-1807.42	  442.92
     17.7700	  548.00	  561.18	-1772.18	  442.68
     17.8700	  518.00	  560.93	-1801.93	  442.43
     17.9700	  594.00	  560.68	-1725.68	  442.19
     18.0700	  531.00	  560.53	-1788.53	  441.94
     18.1700	  568.00	  560.28	-1751.28	  441.69
     18.2700	  595.00	  560.03	-1724.03	  441.43
     18.3700	  583.00	  559.77	-1735.77	  441.18
     18.4700	  579.00	  559.52	-1739.52	  440.92
     18.5700	  552.00	  559.26	-1766.26	  440.66
     18.6700	  521.00	  559.00	-1797.00	  440.40
     18.7700	  555.00	  558.75	-1762.75	  440.14
     18.8700	  573.00	  558.48	-1744.48	  439.88
     18.9700	  545.00	  558.31	-1772.31	  439.61
     19.0700	  576.00	  558.05	-1741.05	  439.35
     19.1700	  519.00	  557.79	-1797.79	  439.08
     19.2700	  527.00	  557.52	-1789.52	  438.81
     19.3700	  541.00	  557.26	-1775.26	  438.54
     19.4700	  531.00	  556.99	-1784.99	  438.27
     19.5700	  506.00	  556.72	-1809.72	  437.99
     19.6700	  553.00	  556.46	-1762.46	  437.72
     19.7700	  532.00	  556.19	-1783.19	  437.44
     19.8700	  566.00	  555.92	-1748.92	  437.16
     19.9700	  563.00	  555.64	-1751.64	  436.88
     20.0700	  560.00	  555.37	-1754.37	  436.60
     20.1700	  591.00	  555.10	-1723.10	  436.32
     20.2700	  528.00	  554.83	-1785.83	  436.04
     20.3700	  555.00	  554.55	-1758.55	  435.75
     20.4700	  544.00	  554.28	-1769.28	  435.47
     20.5700	  588.00	  554.00	-1725.00	  435.18
     20.6700	  555.00	  553.70	-1757.70	  434.90
     20.7700	  537.00	  553.42	-1775.42	  434.61
     20.8700	  555.00	  553.18	-1757.18	  434.32
     20.9700	  536.00	  552.91	-1775.91	  434.03
     21.0700	  541.00	  552.63	-1770.63	  433.74
     21.1700	  569.00	  552.36	-1742.36	  433.44
     21.2700	  573.00	  552.09	-1738.09	  433.15
     21.3700	  561.00	  551.81	-1749.81	  432.86
     21.4700	  605.00	  551.54	-1705.54	  432.56
     21.5700	  563.00	  551.26	-1747.26	  432.27
     21.6700	  550.00	  550.99	-1759.99	  431.97
     21.7700	  533.00	  550.72	-1776.72	  431.67
     21.8700	  529.00	  550.45	-1780.45	  431.37
     21.9700	  559.00	  550.18	-1750.18	  431.08
     22.0700	  495.00	  549.91	-1813.91	  430.78
     22.1700	  526.00	  549.65	-1782.65	  430.48
     22.2700	  561.00	  549.39	-1747.39	  430.18
     22.3700	  567.00	  549.13	-1741.13	  429.87
     22.4700	  558.00	  548.87	-1749.87	  429.57
     22.5700	  561.00	  548.62	-1746.62	  429.27
     22.6700	  565.00	  548.37	-1742.37	  428.97
     22.7700	  585.00	  548.13	-1722.13	  428.66
     22.8700	  551.00	  547.90	-1755.90	  428.36
     22.9700	  511.00	  547.68	-1795.68	  428.06
     23.0700	  556.00	  547.46	-1750.46	  427.75
     23.1700	  524.00	  547.27	-1782.27	  427.45
     23.2700	  542.00	  547.09	-1764.09	  427.14
     23.3700	  528.00	  546.93	-1777.93	  426.83
     23.4700	  578.00	  546.81	-1727.81	  426.53
     23.5700	  575.00	  546.73	-1730.73	  426.22
     23.6700	  551.00	  546.72	-1754.72	  425.91
     23.7700	  525.00	  546.94	-1780.94	  425.61
     23.8700	  570.00	  547.23	-1736.23	  425.30
     23.9700	  499.00	  547.92	-1807.92	  424.99
     24.0700	  547.00	  549.42	-1761.42	  424.69
     24.1700	  548.00	  552.33	-1763.33	  424.38
     24.2700	  571.00	  557.44	-1745.44	  424.07
     24.3700	  581.00	  565.64	-1743.64	  423.76
     24.4700	  543.00	  577.88	-1793.88	  423.45
     24.5700	  629.00	  594.40	-1724.40	  423.15
     24.6700	  607.00	  612.59	-1764.59	  422.84
     24.7700	  606.00	  625.15	-1778.15	  422.53
     24.8700	  601.00	  622.30	-1780.30	  422.22
     24.9700	  568.00	  602.84	-1793.84	  421.91
     25.0700	  627.00	  579.25	-1711.25	  421.60
     25.1700	  559.00	  561.61	-1761.61	  421.30
     25.2700	  622.00	  551.66	-1688.66	  420.99
     25.3700	  618.00	  546.98	-1687.98	  420.68
     25.4700	  545.00	  544.85	-1758.85	  420.37
     25.5700	  625.00	  543.72	-1677.72	  420.07
     25.6700	  554.00	  542.99	-1747.99	  419.76
     25.7700	  555.00	  542.45	-1746.45	  419.45
     25.8700	  575.00	  542.04	-1726.04	  419.14
     25.9700	  582.00	  541.73	-1718.73	  418.84
     26.0700	  544.00	  541.50	-1756.50	  418.53
     26.1700	  526.00	  541.34	-1774.34	  418.23
     26.2700	  594.00	  541.26	-1706.26	  417.92
     26.3700	  573.00	  541.24	-1727.24	  417.61
     26.4700	  534.00	  541.30	-1766.30	  417.31
     26.5700	  497.00	  541.45	-1803.45	  417.00
     26.6700	  540.00	  541.71	-1760.71	  416.70
     26.7700	  570.00	  542.09	-1731.09	  416.39
     26.8700	  549.00	  542.62	-1752.62	  416.09
     26.9700	  519.00	  543.37	-1783.37	  415.79
     27.0700	  550.00	  544.38	-1753.38	  415.49
     27.1700	  565.00	  545.80	-1739.80	  415.18
     27.2700	  532.00	  547.83	-1774.83	  414.88
     27.3700	  567.00	  550.94	-1742.94	  414.58
     27.4700	  536.00	  556.01	-1779.01	  414.28
     27.5700	  581.00	  564.63	-1742.63	  413.98
     27.6700	  592.00	  579.32	-1746.32	  413.68
     27.7700	  561.00	  603.37	-1801.37	  413.38
     27.8700	  609.00	  639.65	-1789.65	  413.08
     27.9700	  637.00	  688.39	-1810.39	  412.78
     28.0700	  770.00	  744.12	-1733.12	  412.49
     28.1700	  885.00	  793.10	-1667.10	  412.19
     28.2700	  949.00	  814.61	-1624.61	  411.89
     28.3700	  881.00	  796.44	-1674.44	  411.60
     28.4700	  782.00	  758.57	-1735.57	  411.30
     28.5700	  695.00	  734.01	-1798.01	  411.01
     28.6700	  748.00	  737.82	-1748.82	  410.72
     28.7700	  749.00	  765.13	-1775.13	  410.42
     28.8700	  789.00	  796.03	-1766.03	  410.13
     28.9700	  810.00	  802.22	-1751.22	  409.84
     29.0700	  776.00	  765.56	-1748.56	  409.55
     29.1700	  707.00	  702.01	-1754.01	  409.26
     29.2700	  647.00	  641.19	-1753.19	  408.97
     29.3700	  651.00	  597.33	-1705.33	  408.69
     29.4700	  594.00	  570.90	-1735.90	  408.40
     29.5700	  608.00	  556.70	-1707.70	  408.11
     29.6700	  608.00	  549.27	-1700.27	  407.83
     29.7700	  621.00	  545.10	-1683.10	  407.54
     29.8700	  557.00	  542.53	-1744.53	  407.26
     29.9700	  548.00	  540.92	-1751.92	  406.98
     30.0700	  546.00	  540.11	-1753.11	  406.70
     30.1700	  556.00	  540.28	-1743.28	  406.42
     30.2700	  563.00	  541.96	-1737.96	  406.14
     30.3700	  506.00	  546.22	-1799.22	  405.86
     30.4700	  564.00	  554.69	-1749.69	  405.58
     30.5700	  608.00	  569.10	-1720.10	  405.31
     30.6700	  607.00	  589.97	-1741.97	  405.03
     30.7700	  577.00	  614.74	-1796.74	  404.76
     30.8700	  622.00	  636.42	-1773.42	  404.48
     30.9700	  652.00	  644.25	-1751.25	  404.21
     31.0700	  579.00	  630.84	-1810.84	  403.94
     31.1700	  575.00	  603.14	-1787.14	  403.67
     31.2700	  535.00	  575.24	-1799.24	  403.40
     31.3700	  506.00	  554.63	-1807.63	  403.13
     31.4700	  523.00	  542.11	-1778.11	  402.87
     31.5700	  526.00	  535.44	-1768.44	  402.60
     31.6700	  521.00	  532.02	-1770.02	  402.34
     31.7700	  560.00	  530.15	-1729.15	  402.07
     31.8700	  560.00	  528.98	-1727.98	  401.81
     31.9700	  506.00	  528.17	-1781.17	  401.55
     32.0700	  537.00	  527.60	-1749.60	  401.29
     32.1700	  545.00	  527.22	-1741.22	  401.03
     32.2700	  536.00	  526.99	-1749.99	  400.77
     32.3700	  611.00	  526.92	-1674.92	  400.52
     32.4700	  547.00	  527.00	-1739.00	  400.26
     32.5700	  550.00	  527.26	-1736.26	  400.01
     32.6700	  521.00	  527.71	-1765.71	  399.76
     32.7700	  587.00	  528.41	-1700.41	  399.50
     32.8700	  544.00	  529.41	-1744.41	  399.26
     32.9700	  585.00	  530.85	-1704.85	  399.01
     33.0700	  565.00	  532.92	-1726.92	  398.76
     33.1700	  533.00	  536.10	-1762.10	  398.51
     33.2700	  573.00	  541.42	-1727.42	  398.27
     33.3700	  520.00	  551.17	-1790.17	  398.03
     33.4700	  544.00	  569.77	-1784.77	  397.78
     33.5700	  586.00	  604.20	-1777.20	  397.54
     33.6700	  642.00	  662.68	-1779.68	  397.30
     33.7700	  716.00	  748.92	-1791.92	  397.07
     33.8700	  920.00	  853.73	-1692.73	  396.83
     33.9700	 1025.00	  949.20	-1683.20	  396.59
     34.0700	 1008.00	  992.10	-1743.10	  396.36
     34.1700	 1056.00	  950.19	-1653.19	  396.13
     34.2700	  884.00	  844.99	-1719.99	  395.90
     34.3700	  775.00	  731.21	-1715.21	  395.67
     34.4700	  673.00	  642.90	-1728.90	  395.44
     34.5700	  591.00	  587.32	-1755.32	  395.21
     34.6700	  565.00	  557.24	-1751.24	  394.99
     34.7700	  505.00	  542.16	-1796.16	  394.76
     34.8700	  568.00	  534.32	-1725.32	  394.54
     34.9700	  527.00	  529.66	-1761.66	  394.32
     35.0700	  580.00	  526.46	-1705.46	  394.10
     35.1700	  505.00	  524.05	-1778.05	  393.88
     35.2700	  514.00	  522.16	-1767.16	  393.67
     35.3700	  514.00	  520.62	-1765.62	  393.45
     35.4700	  533.00	  519.33	-1745.33	  393.24
     35.5700	  534.00	  518.26	-1743.26	  393.02
     35.6700	  551.00	  517.33	-1725.33	  392.81
     35.7700	  543.00	  516.53	-1732.53	  392.61
     35.8700	  492.00	  515.83	-1782.83	  392.40
     35.9700	  522.00	  515.20	-1752.20	  392.19
     36.0700	  492.00	  515.13	-1782.13	  391.99
     36.1700	  508.00	  514.63	-1765.63	  391.78
     36.2700	  518.00	  514.19	-1755.19	  391.58
     36.3700	  505.00	  513.79	-1767.79	  391.38
     36.4700	  527.00	  513.42	-1745.42	  391.19
     36.5700	  525.00	  513.10	-1747.10	  390.99
     36.6700	  520.00	  512.81	-1751.81	  390.79
     36.7700	  509.00	  512.57	-1762.57	  390.60
     36.8700	  512.00	  512.40	-1759.40	  390.41
     36.9700	  543.00	  512.33	-1728.33	  390.22
     37.0700	  493.00	  512.50	-1778.50	  390.03
     37.1700	  510.00	  513.12	-1762.12	  389.84
     37.2700	  505.00	  514.51	-1768.51	  389.66
     37.3700	  528.00	  517.01	-1748.01	  389.47
     37.4700	  522.00	  520.65	-1757.65	  389.29
     37.5700	  538.00	  524.85	-1745.85	  389.11
     37.6700	  499.00	  528.37	-1788.37	  388.93
     37.7700	  561.00	  529.72	-1727.72	  388.75
     37.8700	  536.00	  528.48	-1751.48	  388.58
     37.9700	  457.00	  525.73	-1827.73	  388.40
     38.0700	  523.00	  522.37	-1758.37	  388.23
     38.1700	  524.00	  518.78	-1753.78	  388.06
     38.2700	  515.00	  515.39	-1759.39	  387.89
     38.3700	  504.00	  512.68	-1767.68	  387.72
     38.4700	  498.00	  510.75	-1771.75	  387.56
     38.5700	  511.00	  509.51	-1757.51	  387.39
     38.6700	  533.00	  508.65	-1734.65	  387.23
     38.7700	  491.00	  508.17	-1776.17	  387.07
     38.8700	  458.00	  507.83	-1808.83	  386.91
     38.9700	  488.00	  507.57	-1778.57	  386.75
     39.0700	  518.00	  507.34	-1748.34	  386.59
     39.1700	  496.00	  507.14	-1770.14	  386.44
     39.2700	  534.00	  506.87	-1731.87	  386.29
     39.3700	  505.00	  506.70	-1760.70	  386.14
     39.4700	  509.00	  506.54	-1756.54	  385.99
     39.5700	  481.00	  506.52	-1784.52	  385.84
     39.6700	  470.00	  506.39	-1795.39	  385.69
     39.7700	  497.00	  506.26	-1768.26	  385.55
     39.8700	  516.00	  506.15	-1749.15	  385.41
     39.9700	  476.00	  506.05	-1789.05	  385.26
     40.0700	  482.00	  505.95	-1782.95	  385.13
     40.1700	  530.00	  505.87	-1734.87	  384.99
     40.2700	  496.00	  505.79	-1768.79	  384.85
     40.3700	  451.00	  505.73	-1813.73	  384.72
     40.4700	  501.00	  505.68	-1763.68	  384.59
     40.5700	  492.00	  505.65	-1772.65	  384.45
     40.6700	  500.00	  505.63	-1764.63	  384.33
     40.7700	  490.00	  505.64	-1774.64	  384.20
     40.8700	  498.00	  505.66	-1766.66	  384.07
     40.9700	  546.00	  505.72	-1718.72	  383.95
     41.0700	  508.00	  505.80	-1756.80	  383.83
     41.1700	  523.00	  505.93	-1741.93	  383.71
     41.2700	  481.00	  506.07	-1784.07	  383.59
     41.3700	  499.00	  506.32	-1766.32	  383.47
     41.4700	  503.00	  506.65	-1762.65	  383.35
     41.5700	  504.00	  507.52	-1762.52	  383.24
     41.6700	  531.00	  508.15	-1736.15	  383.13
     41.7700	  457.00	  509.09	-1811.09	  383.02
     41.8700	  511.00	  510.65	-1758.65	  382.91
     41.9700	  515.00	  513.55	-1757.55	  382.80
     42.0700	  515.00	  519.15	-1763.15	  382.70
     42.1700	  522.00	  529.66	-1766.66	  382.59
     42.2700	  551.00	  547.66	-1755.66	  382.49
     42.3700	  533.00	  574.68	-1800.68	  382.39
     42.4700	  593.00	  608.66	-1774.66	  382.29
     42.5700	  596.00	  642.31	-1805.31	  382.19
     42.6700	  596.00	  663.51	-1826.51	  382.10
     42.7700	  595.00	  661.27	-1825.27	  382.01
     42.8700	  586.00	  635.88	-1808.88	  381.91
     42.9700	  566.00	  600.13	-1793.13	  381.82
     43.0700	  535.00	  566.54	-1790.54	  381.74
     43.1700	  518.00	  541.36	-1782.36	  381.65
     43.2700	  536.00	  525.38	-1748.38	  381.56
     43.3700	  515.00	  516.48	-1760.48	  381.48
     43.4700	  521.00	  511.91	-1749.91	  381.40
     43.5700	  522.00	  509.54	-1746.54	  381.32
     43.6700	  534.00	  508.21	-1733.21	  381.24
     43.7700	  491.00	  507.53	-1775.53	  381.16
     43.8700	  501.00	  506.91	-1764.91	  381.09
     43.9700	  486.00	  506.45	-1779.45	  381.02
     44.0700	  496.00	  506.13	-1769.13	  380.95
     44.1700	  494.00	  505.85	-1770.85	  380.88
     44.2700	  545.00	  505.64	-1719.64	  380.81
     44.3700	  546.00	  505.48	-1718.48	  380.74
     44.4700	  554.00	  505.37	-1710.37	  380.68
     44.5700	  501.00	  505.16	-1763.16	  380.61
     44.6700	  504.00	  505.12	-1760.12	  380.55
     44.7700	  502.00	  505.10	-1762.10	  380.49
     44.8700	  532.00	  505.11	-1732.11	  380.43
     44.9700	  506.00	  505.14	-1758.14	  380.38
     45.0700	  486.00	  505.20	-1778.20	  380.32
     45.1700	  509.00	  505.28	-1755.28	  380.27
     45.2700	  517.00	  505.56	-1747.56	  380.22
     45.3700	  527.00	  505.69	-1737.69	  380.17
     45.4700	  498.00	  505.83	-1766.83	  380.12
     45.5700	  472.00	  506.00	-1793.00	  380.07
     45.6700	  519.00	  506.20	-1746.20	  380.03
     45.7700	  503.00	  506.42	-1762.42	  379.98
     45.8700	  460.00	  506.67	-1805.67	  379.94
     45.9700	  501.00	  506.95	-1764.95	  379.90
     46.0700	  478.00	  507.26	-1788.26	  379.86
     46.1700	  545.00	  507.62	-1721.62	  379.83
     46.2700	  532.00	  508.01	-1735.01	  379.79
     46.3700	  492.00	  508.46	-1775.46	  379.76
     46.4700	  523.00	  508.96	-1744.96	  379.72
     46.5700	  492.00	  509.54	-1776.54	  379.69
     46.6700	  501.00	  510.20	-1768.20	  379.67
     46.7700	  515.00	  510.97	-1754.97	  379.64
     46.8700	  465.00	  511.92	-1805.92	  379.61
     46.9700	  499.00	  513.15	-1773.15	  379.59
     47.0700	  528.00	  514.94	-1745.94	  379.57
     47.1700	  526.00	  517.84	-1750.84	  379.54
     47.2700	  522.00	  522.75	-1759.75	  379.53
     47.3700	  504.00	  530.81	-1785.81	  379.51
     47.4700	  553.00	  543.19	-1749.19	  379.49
     47.5700	  539.00	  560.08	-1780.08	  379.48
     47.6700	  571.00	  579.81	-1767.81	  379.46
     47.7700	  599.00	  598.23	-1758.23	  379.45
     47.8700	  613.00	  609.37	-1755.37	  379.44
     47.9700	  565.00	  608.61	-1802.61	  379.43
     48.0700	  614.00	  596.97	-1741.97	  379.43
     48.1700	  576.00	  580.38	-1763.38	  379.42
     48.2700	  565.00	  564.68	-1758.68	  379.42
     48.3700	  541.00	  553.11	-1771.11	  379.41
     48.4700	  572.00	  546.58	-1733.58	  379.41
     48.5700	  558.00	  544.50	-1745.50	  379.41
     48.6700	  569.00	  545.75	-1735.75	  379.41
     48.7700	  550.00	  549.38	-1758.38	  379.42
     48.8700	  553.00	  554.92	-1760.92	  379.42
     48.9700	  562.00	  562.43	-1759.43	  379.43
     49.0700	  546.00	  572.57	-1785.57	  379.44
     49.1700	  597.00	  587.02	-1749.02	  379.45
     49.2700	  633.00	  609.27	-1735.27	  379.46
     49.3700	  654.00	  646.01	-1751.01	  379.47
     49.4700	  705.00	  708.56	-1762.56	  379.48
     49.5700	  770.00	  813.55	-1802.55	  379.50
     49.6700	  912.00	  979.02	-1826.02	  379.52
     49.7700	 1127.00	 1219.34	-1851.34	  379.53
     49.8700	 1478.00	 1532.89	-1813.89	  379.55
     49.9700	 1858.00	 1890.52	-1791.52	  379.57
     50.0700	 2337.00	 2225.88	-1647.88	  379.60
     50.1700	 2555.00	 2440.42	-1644.42	  379.62
     50.2700	 2509.00	 2445.92	-1695.92	  379.65
     50.3700	 2330.00	 2237.65	-1666.65	  379.67
     50.4700	 1947.00	 1902.95	-1714.95	  379.70
     50.5700	 1410.00	 1545.68	-1894.68	  379.73
     50.6700	 1042.00	 1234.57	-1951.57	  379.76
     50.7700	  834.00	  999.60	-1924.60	  379.79
     50.8700	  674.00	  842.12	-1927.12	  379.82
     50.9700	  668.00	  746.55	-1837.55	  379.86
     51.0700	  624.00	  691.55	-1826.55	  379.90
     51.1700	  602.00	  657.88	-1814.88	  379.93
     51.2700	  631.00	  632.95	-1760.95	  379.97
     51.3700	  559.00	  611.59	-1811.59	  380.01
     51.4700	  568.00	  593.06	-1784.06	  380.05
     51.5700	  588.00	  577.88	-1748.88	  380.10
     51.6700	  560.00	  566.35	-1765.35	  380.14
     51.7700	  580.00	  558.17	-1737.17	  380.18
     51.8700	  555.00	  552.67	-1756.67	  380.23
     51.9700	  554.00	  549.05	-1754.05	  380.28
     52.0700	  536.00	  546.72	-1769.72	  380.33
     52.1700	  589.00	  545.37	-1715.37	  380.38
     52.2700	  541.00	  545.12	-1763.12	  380.43
     52.3700	  556.00	  545.68	-1748.68	  380.48
     52.4700	  570.00	  547.67	-1736.67	  380.54
     52.5700	  575.00	  552.13	-1736.13	  380.59
     52.6700	  625.00	  561.19	-1695.19	  380.65
     52.7700	  574.00	  578.79	-1763.79	  380.71
     52.8700	  652.00	  611.04	-1718.04	  380.77
     52.9700	  740.00	  665.46	-1684.46	  380.83
     53.0700	  796.00	  748.37	-1711.37	  380.89
     53.1700	  934.00	  860.41	-1685.41	  380.95
     53.2700	 1089.00	  991.76	-1661.76	  381.01
     53.3700	 1108.00	 1118.97	-1769.97	  381.08
     53.4700	 1167.00	 1207.04	-1799.04	  381.14
     53.5700	 1208.00	 1222.62	-1773.62	  381.21
     53.6700	 1090.00	 1158.35	-1827.35	  381.28
     53.7700	 1007.00	 1040.55	-1792.55	  381.35
     53.8700	  821.00	  906.91	-1844.91	  381.42
     53.9700	  724.00	  786.02	-1821.02	  381.49
     54.0700	  641.00	  692.42	-1810.42	  381.56
     54.1700	  639.00	  628.70	-1748.70	  381.64
     54.2700	  631.00	  589.88	-1717.88	  381.71
     54.3700	  590.00	  568.34	-1737.34	  381.79
     54.4700	  575.00	  557.17	-1741.17	  381.87
     54.5700	  569.00	  551.71	-1741.71	  381.95
     54.6700	  571.00	  549.19	-1737.19	  382.02
     54.7700	  545.00	  548.28	-1762.28	  382.10
     54.8700	  599.00	  548.38	-1708.38	  382.19
     54.9700	  573.00	  549.28	-1735.28	  382.27
     55.0700	  592.00	  550.89	-1717.89	  382.35
     55.1700	  512.00	  553.22	-1800.22	  382.44
     55.2700	  589.00	  556.38	-1726.38	  382.52
     55.3700	  582.00	  560.42	-1737.42	  382.61
     55.4700	  575.00	  565.58	-1749.58	  382.70
     55.5700	  553.00	  572.26	-1778.26	  382.78
     55.6700	  603.00	  581.23	-1737.23	  382.87
     55.7700	  602.00	  594.12	-1751.12	  382.96
     55.8700	  610.00	  614.19	-1763.19	  383.06
     55.9700	  595.00	  647.59	-1811.59	  383.15
     56.0700	  675.00	  704.64	-1788.64	  383.24
     56.1700	  797.00	  800.36	-1762.36	  383.33
     56.2700	  857.00	  952.86	-1854.86	  383.43
     56.3700	 1102.00	 1177.93	-1834.93	  383.53
     56.4700	 1377.00	 1480.57	-1862.57	  383.62
     56.5700	 1786.00	 1844.99	-1817.99	  383.72
     56.6700	 2110.00	 2226.54	-1875.54	  383.82
     56.7700	 2444.00	 2549.79	-1864.79	  383.92
     56.8700	 2640.00	 2722.03	-1841.03	  384.02
     56.9700	 2629.00	 2679.54	-1809.54	  384.12
     57.0700	 2365.00	 2438.71	-1832.71	  384.22
     57.1700	 2095.00	 2082.87	-1746.87	  384.32
     57.2700	 1709.00	 1702.57	-1752.57	  384.43
     57.3700	 1347.00	 1361.82	-1773.82	  384.53
     57.4700	 1045.00	 1093.08	-1807.08	  384.64
     57.5700	  859.00	  902.88	-1802.88	  384.74
     57.6700	  796.00	  781.14	-1744.14	  384.85
     57.7700	  748.00	  710.93	-1721.93	  384.96
     57.8700	  661.00	  676.29	-1774.29	  385.06
     57.9700	  664.00	  665.96	-1760.96	  385.17
     58.0700	  726.00	  674.00	-1707.00	  385.28
     58.1700	  731.00	  698.48	-1726.48	  385.39
     58.2700	  728.00	  739.56	-1770.56	  385.51
     58.3700	  875.00	  797.58	-1681.58	  385.62
     58.4700	  967.00	  871.35	-1663.35	  385.73
     58.5700	 1082.00	  956.52	-1633.52	  385.84
     58.6700	 1278.00	 1044.98	-1525.98	  385.96
     58.7700	 1404.00	 1127.07	-1482.07	  386.07
     58.8700	 1436.00	 1195.81	-1518.81	  386.19
     58.9700	 1510.00	 1247.09	-1496.09	  386.30
     59.0700	 1576.00	 1275.50	-1458.50	  386.42
     59.1700	 1551.00	 1276.07	-1484.07	  386.54
     59.2700	 1471.00	 1252.25	-1540.25	  386.65
     59.3700	 1366.00	 1216.58	-1609.58	  386.77
     59.4700	 1289.00	 1182.32	-1652.32	  386.89
     59.5700	 1193.00	 1158.54	-1724.54	  387.01
     59.6700	 1167.00	 1152.90	-1744.90	  387.13
     59.7700	 1150.00	 1174.09	-1783.09	  387.25
     59.8700	 1154.00	 1227.82	-1832.82	  387.37
     59.9700	 1371.00	 1310.29	-1698.29	  387.49
     60.0700	 1430.00	 1405.18	-1734.18	  387.62
     60.1700	 1555.00	 1484.20	-1688.20	  387.74
     60.2700	 1580.00	 1514.00	-1693.00	  387.86
     60.3700	 1495.00	 1473.35	-1737.35	  387.99
     60.4700	 1567.00	 1368.31	-1560.31	  388.11
     60.5700	 1240.00	 1225.78	-1744.78	  388.24
     60.6700	 1079.00	 1075.14	-1755.14	  388.36
     60.7700	  901.00	  938.04	-1796.04	  388.49
     60.8700	  827.00	  826.72	-1758.72	  388.61
     60.9700	  724.00	  745.47	-1780.47	  388.74
     61.0700	  679.00	  693.18	-1773.18	  388.87
     61.1700	  658.00	  666.48	-1767.48	  388.99
     61.2700	  651.00	  662.57	-1770.57	  389.12
     61.3700	  651.00	  680.91	-1788.91	  389.25
     61.4700	  702.00	  723.51	-1780.51	  389.38
     61.5700	  701.00	  793.59	-1851.59	  389.51
     61.6700	  885.00	  893.24	-1767.24	  389.64
     61.7700	  921.00	 1020.28	-1858.28	  389.77
     61.8700	 1048.00	 1165.59	-1876.59	  389.90
     61.9700	 1249.00	 1311.26	-1821.26	  390.03
     62.0700	 1337.00	 1430.61	-1852.61	  390.16
     62.1700	 1350.00	 1493.21	-1902.21	  390.29
     62.2700	 1417.00	 1478.69	-1820.69	  390.42
     62.3700	 1275.00	 1391.37	-1875.37	  390.55
     62.4700	 1234.00	 1256.92	-1781.92	  390.69
     62.5700	 1085.00	 1105.72	-1779.72	  390.82
     62.6700	  899.00	  961.58	-1821.58	  390.95
     62.7700	  796.00	  839.12	-1802.12	  391.08
     62.8700	  674.00	  744.37	-1829.37	  391.22
     62.9700	  662.00	  676.82	-1773.82	  391.35
     63.0700	  595.00	  632.04	-1796.04	  391.48
     63.1700	  564.00	  604.16	-1799.16	  391.62
     63.2700	  595.00	  587.77	-1751.77	  391.75
     63.3700	  566.00	  578.87	-1771.87	  391.88
     63.4700	  568.00	  575.05	-1766.05	  392.02
     63.5700	  570.00	  575.43	-1764.43	  392.15
     63.6700	  555.00	  580.35	-1784.35	  392.29
     63.7700	  596.00	  591.19	-1754.19	  392.42
     63.8700	  630.00	  609.98	-1738.98	  392.56
     63.9700	  682.00	  638.93	-1715.93	  392.69
     64.0700	  759.00	  679.56	-1679.56	  392.83
     64.1700	  719.00	  731.79	-1771.79	  392.96
     64.2700	  812.00	  792.93	-1739.93	  393.10
     64.3700	  962.00	  857.06	-1654.06	  393.23
     64.4700	  983.00	  915.00	-1691.00	  393.37
     64.5700	 1061.00	  955.27	-1653.27	  393.50
     64.6700	  998.00	  970.14	-1731.14	  393.64
     64.7700	 1041.00	  956.81	-1674.81	  393.77
     64.8700	  944.00	  920.02	-1735.02	  393.91
     64.9700	  904.00	  868.51	-1723.51	  394.04
     65.0700	  840.00	  811.96	-1730.96	  394.18
     65.1700	  757.00	  758.21	-1760.21	  394.31
     65.2700	  759.00	  711.82	-1711.82	  394.45
     65.3700	  690.00	  674.04	-1743.04	  394.58
     65.4700	  592.00	  644.13	-1811.13	  394.72
     65.5700	  625.00	  620.77	-1754.77	  394.85
     65.6700	  592.00	  602.76	-1769.76	  394.99
     65.7700	  556.00	  589.16	-1792.16	  395.13
     65.8700	  600.00	  579.25	-1738.25	  395.26
     65.9700	  539.00	  572.41	-1792.41	  395.40
     66.0700	  578.00	  568.17	-1749.17	  395.53
     66.1700	  579.00	  566.07	-1746.07	  395.66
     66.2700	  568.00	  565.73	-1756.73	  395.80
     66.3700	  576.00	  566.86	-1749.86	  395.93
     66.4700	  533.00	  569.28	-1795.28	  396.07
     66.5700	  547.00	  573.07	-1785.07	  396.20
     66.6700	  555.00	  578.68	-1782.68	  396.34
     66.7700	  544.00	  586.78	-1801.78	  396.47
     66.8700	  584.00	  599.18	-1774.18	  396.60
     66.9700	  623.00	  618.81	-1754.81	  396.74
     67.0700	  572.00	  650.37	-1837.37	  396.87
     67.1700	  704.00	  700.61	-1755.61	  397.00
     67.2700	  726.00	  778.08	-1811.08	  397.14
     67.3700	  867.00	  892.09	-1784.09	  397.27
     67.4700	 1044.00	 1050.33	-1765.33	  397.40
     67.5700	 1231.00	 1255.72	-1783.72	  397.53
     67.6700	 1563.00	 1502.88	-1698.88	  397.66
     67.7700	 1771.00	 1775.17	-1763.17	  397.79
     67.8700	 2070.00	 2043.54	-1732.54	  397.93
     67.9700	 2347.00	 2267.16	-1679.16	  398.06
     68.0700	 2511.00	 2400.32	-1648.32	  398.19
     68.1700	 2426.00	 2408.92	-1741.92	  398.32
     68.2700	 2229.00	 2290.57	-1820.57	  398.45
     68.3700	 2134.00	 2076.17	-1701.17	  398.58
     68.4700	 1785.00	 1811.33	-1785.33	  398.71
     68.5700	 1620.00	 1538.04	-1677.04	  398.83
     68.6700	 1240.00	 1286.89	-1805.89	  398.96
     68.7700	 1050.00	 1076.11	-1785.11	  399.09
     68.8700	  852.00	  912.38	-1819.38	  399.22
     68.9700	  810.00	  793.61	-1742.61	  399.34
     69.0700	  701.00	  712.49	-1770.49	  399.47
     69.1700	  661.00	  659.79	-1757.79	  399.60
     69.2700	  602.00	  626.77	-1783.77	  399.72
     69.3700	  591.00	  606.41	-1774.41	  399.85
     69.4700	  636.00	  593.77	-1716.77	  399.97
     69.5700	  541.00	  585.68	-1803.68	  400.10
     69.6700	  589.00	  580.30	-1750.30	  400.22
     69.7700	  620.00	  576.59	-1715.59	  400.34
     69.8700	  571.00	  574.02	-1762.02	  400.47
     69.9700	  571.00	  572.32	-1760.32	  400.59
     70.0700	  567.00	  571.36	-1763.36	  400.71
     70.1700	  564.00	  571.08	-1766.08	  400.83
     70.2700	  565.00	  571.53	-1765.53	  400.95
     70.3700	  545.00	  572.76	-1786.76	  401.07
     70.4700	  537.00	  575.03	-1797.03	  401.19
     70.5700	  574.00	  578.79	-1763.79	  401.31
     70.6700	  561.00	  584.89	-1782.89	  401.43
     70.7700	  580.00	  594.80	-1773.80	  401.55
     70.8700	  583.00	  610.89	-1786.89	  401.67
     70.9700	  614.00	  636.70	-1781.70	  401.78
     71.0700	  699.00	  676.96	-1736.96	  401.90
     71.1700	  706.00	  737.34	-1790.34	  402.01
     71.2700	  823.00	  823.66	-1759.66	  402.13
     71.3700	  911.00	  940.37	-1788.37	  402.24
     71.4700	 1050.00	 1088.68	-1797.68	  402.36
     71.5700	 1194.00	 1265.37	-1830.37	  402.47
     71.6700	 1430.00	 1458.08	-1787.08	  402.58
     71.7700	 1622.00	 1649.63	-1786.63	  402.69
     71.8700	 1824.00	 1815.24	-1750.24	  402.80
     71.9700	 1858.00	 1926.47	-1827.47	  402.91
     72.0700	 1932.00	 1959.44	-1786.44	  403.02
     72.1700	 1877.00	 1906.33	-1788.33	  403.13
     72.2700	 1794.00	 1780.03	-1745.03	  403.24
     72.3700	 1691.00	 1606.19	-1674.19	  403.34
     72.4700	 1461.00	 1413.65	-1711.65	  403.45
     72.5700	 1363.00	 1225.09	-1621.09	  403.56
     72.6700	 1147.00	 1056.45	-1668.45	  403.66
     72.7700	 1051.00	  916.37	-1624.37	  403.76
     72.8700	  893.00	  807.16	-1673.16	  403.87
     72.9700	  864.00	  726.64	-1621.64	  403.97
     73.0700	  796.00	  670.00	-1633.00	  404.07
     73.1700	  771.00	  631.60	-1619.60	  404.17
     73.2700	  641.00	  606.19	-1724.19	  404.27
     73.3700	  701.00	  589.48	-1647.48	  404.37
     73.4700	  636.00	  578.42	-1701.42	  404.47
     73.5700	  588.00	  570.97	-1741.97	  404.57
     73.6700	  565.00	  565.86	-1759.86	  404.66
     73.7700	  604.00	  562.35	-1717.35	  404.76
     73.8700	  612.00	  560.00	-1707.00	  404.85
     73.9700	  560.00	  558.58	-1757.58	  404.95
     74.0700	  587.00	  557.88	-1729.88	  405.04
     74.1700	  569.00	  557.75	-1747.75	  405.13
     74.2700	  605.00	  558.01	-1712.01	  405.22
     74.3700	  625.00	  558.44	-1692.44	  405.31
     74.4700	  618.00	  558.80	-1699.80	  405.40
     74.5700	  664.00	  558.83	-1653.83	  405.49
     74.6700	  614.00	  558.35	-1703.35	  405.58
     74.7700	  574.00	  557.31	-1742.31	  405.66
     74.8700	  673.00	  555.83	-1641.83	  405.75
     74.9700	  639.00	  554.16	-1674.16	  405.83
     75.0700	  622.00	  552.59	-1689.59	  405.91
     75.1700	  540.00	  551.43	-1770.43	  406.00
     75.2700	  548.00	  550.93	-1761.93	  406.08
     75.3700	  570.00	  551.65	-1740.65	  406.16
     75.4700	  558.00	  553.94	-1754.94	  406.24
     75.5700	  536.00	  558.29	-1781.29	  406.32
     75.6700	  598.00	  565.17	-1726.17	  406.39
     75.7700	  552.00	  575.25	-1782.25	  406.47
     75.8700	  593.00	  588.78	-1754.78	  406.54
     75.9700	  624.00	  605.74	-1740.74	  406.62
     76.0700	  639.00	  625.63	-1745.63	  406.69
     76.1700	  657.00	  647.33	-1749.33	  406.76
     76.2700	  710.00	  669.06	-1718.06	  406.83
     76.3700	  743.00	  688.42	-1704.42	  406.90
     76.4700	  734.00	  702.67	-1727.67	  406.97
     76.5700	  738.00	  709.26	-1730.26	  407.04
     76.6700	  700.00	  706.83	-1765.83	  407.10
     76.7700	  643.00	  695.85	-1811.85	  407.17
     76.8700	  670.00	  678.42	-1767.42	  407.23
     76.9700	  649.00	  657.09	-1767.09	  407.30
     77.0700	  617.00	  634.85	-1776.85	  407.36
     77.1700	  559.00	  613.58	-1813.58	  407.42
     77.2700	  580.00	  594.72	-1773.72	  407.48
     77.3700	  599.00	  579.04	-1739.04	  407.54
     77.4700	  565.00	  566.73	-1760.73	  407.59
     77.5700	  519.00	  557.57	-1797.57	  407.65
     77.6700	  516.00	  551.06	-1794.06	  407.70
     77.7700	  554.00	  546.63	-1751.63	  407.76
     77.8700	  532.00	  543.71	-1770.71	  407.81
     77.9700	  530.00	  541.83	-1770.83	  407.86
     78.0700	  511.00	  540.64	-1788.64	  407.91
     78.1700	  544.00	  539.89	-1754.89	  407.96
     78.2700	  537.00	  539.42	-1761.42	  408.01
     78.3700	  523.00	  539.12	-1775.12	  408.05
     78.4700	  524.00	  538.96	-1773.96	  408.10
     78.5700	  458.00	  538.90	-1839.90	  408.14
     78.6700	  502.00	  538.93	-1795.93	  408.18
     78.7700	  549.00	  539.06	-1749.06	  408.22
     78.8700	  528.00	  539.32	-1770.32	  408.26
     78.9700	  545.00	  539.73	-1753.73	  408.30
     79.0700	  539.00	  540.33	-1760.33	  408.34
     79.1700	  510.00	  541.17	-1790.17	  408.37
     79.2700	  549.00	  542.31	-1752.31	  408.41
     79.3700	  555.00	  543.64	-1747.64	  408.44
     79.4700	  542.00	  545.58	-1762.58	  408.47
     79.5700	  511.00	  548.04	-1796.04	  408.51
     79.6700	  544.00	  551.12	-1766.12	  408.53
     79.7700	  567.00	  554.96	-1746.96	  408.56
     79.8700	  554.00	  559.74	-1764.74	  408.59
     79.9700	  536.00	  565.65	-1788.65	  408.61
     80.0700	  506.00	  572.97	-1825.97	  408.64
     80.1700	  544.00	  582.01	-1797.01	  408.66
     80.2700	  598.00	  593.08	-1754.08	  408.68
     80.3700	  547.00	  606.45	-1818.45	  408.70
     80.4700	  573.00	  622.16	-1808.16	  408.72
     80.5700	  618.00	  639.99	-1780.99	  408.74
     80.6700	  639.00	  659.33	-1779.33	  408.75
     80.7700	  611.00	  679.15	-1827.15	  408.77
     80.8700	  670.00	  698.08	-1787.08	  408.78
     80.9700	  737.00	  714.58	-1736.58	  408.79
     81.0700	  735.00	  727.26	-1751.26	  408.80
     81.1700	  754.00	  735.13	-1740.13	  408.81
     81.2700	  801.00	  737.66	-1695.66	  408.82
     81.3700	  733.00	  734.77	-1760.77	  408.83
     81.4700	  753.00	  726.84	-1732.84	  408.83
     81.5700	  820.00	  714.64	-1653.64	  408.83
     81.6700	  755.00	  699.19	-1703.19	  408.84
     81.7700	  713.00	  681.53	-1727.53	  408.84
     81.8700	  731.00	  662.76	-1690.76	  408.84
     81.9700	  703.00	  643.96	-1699.96	  408.83
     82.0700	  666.00	  626.03	-1719.03	  408.83
     82.1700	  673.00	  609.78	-1695.78	  408.82
     82.2700	  613.00	  595.57	-1741.57	  408.82
     82.3700	  603.00	  583.57	-1739.57	  408.81
     82.4700	  592.00	  573.77	-1740.77	  408.80
     82.5700	  602.00	  566.04	-1723.04	  408.79
     82.6700	  544.00	  560.29	-1775.29	  408.77
     82.7700	  579.00	  556.30	-1736.30	  408.76
     82.8700	  540.00	  553.92	-1772.92	  408.74
     82.9700	  580.00	  553.00	-1732.00	  408.73
     83.0700	  541.00	  553.42	-1771.42	  408.71
     83.1700	  588.00	  555.09	-1726.09	  408.69
     83.2700	  587.00	  557.89	-1729.89	  408.67
     83.3700	  584.00	  561.67	-1736.67	  408.64
     83.4700	  535.00	  566.20	-1790.20	  408.62
     83.5700	  524.00	  571.19	-1806.19	  408.59
     83.6700	  570.00	  576.22	-1765.22	  408.57
     83.7700	  561.00	  580.83	-1778.83	  408.54
     83.8700	  559.00	  584.46	-1784.46	  408.51
     83.9700	  552.00	  586.60	-1793.60	  408.47
     84.0700	  546.00	  586.87	-1799.87	  408.44
     84.1700	  569.00	  585.19	-1775.19	  408.41
     84.2700	  555.00	  581.81	-1785.81	  408.37
     84.3700	  573.00	  577.16	-1763.16	  408.33
     84.4700	  524.00	  571.79	-1806.79	  408.29
     84.5700	  524.00	  566.17	-1801.17	  408.25
     84.6700	  512.00	  560.71	-1807.71	  408.21
     84.7700	  550.00	  555.72	-1764.72	  408.16
     84.8700	  532.00	  551.38	-1778.38	  408.12
     84.9700	  554.00	  547.79	-1752.79	  408.07
     85.0700	  546.00	  544.97	-1757.97	  408.02
     85.1700	  556.00	  542.89	-1745.89	  407.97
     85.2700	  491.00	  541.45	-1809.45	  407.92
     85.3700	  491.00	  540.57	-1808.57	  407.87
     85.4700	  529.00	  540.16	-1770.16	  407.81
     85.5700	  472.00	  540.15	-1827.15	  407.75
     85.6700	  517.00	  540.50	-1782.50	  407.70
     85.7700	  516.00	  541.18	-1784.18	  407.64
     85.8700	  544.00	  542.19	-1757.19	  407.58
     85.9700	  541.00	  543.58	-1761.58	  407.51
     86.0700	  543.00	  545.41	-1761.41	  407.45
     86.1700	  567.00	  547.78	-1739.78	  407.38
     86.2700	  545.00	  550.80	-1764.80	  407.32
     86.3700	  559.00	  554.62	-1754.62	  407.25
     86.4700	  571.00	  559.38	-1747.38	  407.18
     86.5700	  510.00	  565.19	-1814.19	  407.10
     86.6700	  585.00	  572.13	-1746.13	  407.03
     86.7700	  571.00	  579.82	-1767.82	  406.96
     86.8700	  600.00	  588.69	-1747.69	  406.88
     86.9700	  588.00	  598.05	-1769.05	  406.80
     87.0700	  611.00	  607.33	-1755.33	  406.72
     87.1700	  676.00	  615.85	-1698.85	  406.64
     87.2700	  688.00	  622.80	-1693.80	  406.56
     87.3700	  656.00	  627.37	-1730.37	  406.47
     87.4700	  644.00	  628.96	-1743.96	  406.39
     87.5700	  627.00	  627.32	-1759.32	  406.30
     87.6700	  674.00	  622.71	-1707.71	  406.21
     87.7700	  640.00	  615.78	-1734.78	  406.12
     87.8700	  650.00	  607.39	-1716.39	  406.03
     87.9700	  601.00	  598.45	-1756.45	  405.93
     88.0700	  629.00	  589.80	-1719.80	  405.84
     88.1700	  579.00	  582.11	-1762.11	  405.74
     88.2700	  588.00	  575.94	-1746.94	  405.64
     88.3700	  571.00	  571.64	-1759.64	  405.54
     88.4700	  588.00	  569.38	-1740.38	  405.44
     88.5700	  574.00	  569.17	-1754.17	  405.34
     88.6700	  583.00	  570.84	-1746.84	  405.24
     88.7700	  616.00	  574.12	-1717.12	  405.13
     88.8700	  610.00	  578.60	-1727.60	  405.02
     88.9700	  616.00	  583.79	-1726.79	  404.91
     89.0700	  596.00	  589.12	-1752.12	  404.80
     89.1700	  621.00	  593.98	-1731.98	  404.69
     89.2700	  621.00	  597.77	-1735.77	  404.58
     89.3700	  592.00	  599.94	-1766.94	  404.46
     89.4700	  540.00	  600.13	-1819.13	  404.35
     89.5700	  571.00	  598.26	-1786.26	  404.23
     89.6700	  567.00	  594.55	-1786.55	  404.11
     89.7700	  587.00	  589.42	-1761.42	  403.99
     89.8700	  538.00	  583.36	-1804.36	  403.87
     89.9700	  543.00	  576.89	-1792.89	  403.74
     90.0700	  540.00	  570.43	-1789.43	  403.62
     90.1700	  543.00	  564.32	-1780.32	  403.49
     90.2700	  487.00	  558.83	-1830.83	  403.36
     90.3700	  539.00	  554.09	-1774.09	  403.23
     90.4700	  549.00	  550.17	-1760.17	  403.10
     90.5700	  553.00	  547.07	-1753.07	  402.96
     90.6700	  506.00	  544.74	-1797.74	  402.83
     90.7700	  527.00	  543.08	-1775.08	  402.69
     90.8700	  544.00	  541.99	-1756.99	  402.56
     90.9700	  538.00	  541.41	-1762.41	  402.42
     91.0700	  523.00	  541.25	-1777.25	  402.28
     91.1700	  500.00	  541.49	-1800.49	  402.14
     91.2700	  557.00	  542.14	-1744.14	  401.99
     91.3700	  532.00	  543.23	-1770.23	  401.85
     91.4700	  507.00	  544.85	-1796.85	  401.70
     91.5700	  498.00	  547.14	-1808.14	  401.55
     91.6700	  531.00	  550.27	-1778.27	  401.40
     91.7700	  545.00	  554.43	-1768.43	  401.25
     91.8700	  560.00	  559.84	-1758.84	  401.10
     91.9700	  545.00	  566.51	-1780.51	  400.95
     92.0700	  568.00	  575.05	-1766.05	  400.79
     92.1700	  539.00	  585.36	-1805.36	  400.64
     92.2700	  602.00	  597.50	-1754.50	  400.48
     92.3700	  622.00	  611.39	-1748.39	  400.32
     92.4700	  604.00	  626.81	-1781.81	  400.16
     92.5700	  675.00	  643.42	-1727.42	  400.00
     92.6700	  666.00	  660.70	-1753.70	  399.84
     92.7700	  703.00	  678.02	-1734.02	  399.67
     92.8700	  690.00	  694.65	-1763.65	  399.51
     92.9700	  748.00	  709.83	-1720.83	  399.34
     93.0700	  734.00	  722.93	-1747.93	  399.17
     93.1700	  773.00	  733.64	-1719.64	  399.00
     93.2700	  751.00	  742.08	-1750.08	  398.83
     93.3700	  901.00	  748.73	-1606.73	  398.66
     93.4700	  850.00	  754.36	-1663.36	  398.48
     93.5700	  789.00	  759.74	-1729.74	  398.31
     93.6700	  832.00	  765.64	-1692.64	  398.13
     93.7700	  819.00	  772.69	-1712.69	  397.95
     93.8700	  860.00	  781.44	-1680.44	  397.77
     93.9700	  846.00	  792.35	-1705.35	  397.59
     94.0700	  891.00	  805.74	-1673.74	  397.41
     94.1700	  879.00	  821.66	-1701.66	  397.23
     94.2700	  857.00	  839.80	-1741.80	  397.04
     94.3700	  872.00	  859.38	-1746.38	  396.86
     94.4700	  906.00	  879.17	-1732.17	  396.67
     94.5700	  927.00	  897.53	-1729.53	  396.48
     94.6700	  864.00	  912.53	-1807.53	  396.29
     94.7700	  931.00	  922.19	-1750.19	  396.10
     94.8700	  912.00	  924.84	-1771.84	  395.91
     94.9700	  880.00	  919.52	-1798.52	  395.72
     95.0700	  891.00	  906.28	-1774.28	  395.52
     95.1700	  842.00	  886.15	-1803.15	  395.33
     95.2700	  818.00	  860.85	-1801.85	  395.13
     95.3700	  859.00	  832.44	-1732.44	  394.93
     95.4700	  787.00	  803.03	-1775.03	  394.74
     95.5700	  759.00	  774.64	-1774.64	  394.54
     95.6700	  732.00	  749.10	-1776.10	  394.33
     95.7700	  649.00	  728.06	-1838.06	  394.13
     95.8700	  720.00	  712.99	-1751.99	  393.93
     95.9700	  653.00	  705.15	-1811.15	  393.72
     96.0700	  691.00	  705.65	-1773.65	  393.52
     96.1700	  679.00	  715.40	-1795.40	  393.31
     96.2700	  709.00	  735.10	-1785.10	  393.11
     96.3700	  738.00	  765.20	-1786.20	  392.90
     96.4700	  812.00	  805.82	-1752.82	  392.69
     96.5700	  831.00	  856.65	-1784.65	  392.48
     96.6700	  953.00	  916.84	-1722.84	  392.26
     96.7700	  956.00	  984.95	-1787.95	  392.05
     96.8700	 1060.00	 1058.84	-1757.84	  391.84
     96.9700	 1097.00	 1135.67	-1797.67	  391.62
     97.0700	 1178.00	 1211.91	-1792.91	  391.41
     97.1700	 1218.00	 1283.46	-1824.46	  391.19
     97.2700	 1361.00	 1345.86	-1743.86	  390.97
     97.3700	 1350.00	 1394.62	-1803.62	  390.75
     97.4700	 1418.00	 1425.84	-1766.84	  390.53
     97.5700	 1426.00	 1436.94	-1769.94	  390.31
     97.6700	 1527.00	 1427.26	-1659.26	  390.09
     97.7700	 1375.00	 1398.18	-1782.18	  389.87
     97.8700	 1306.00	 1352.69	-1805.69	  389.64
     97.9700	 1288.00	 1294.74	-1765.74	  389.42
     98.0700	 1183.00	 1228.72	-1804.72	  389.19
     98.1700	 1228.00	 1158.87	-1689.87	  388.97
     98.2700	 1086.00	 1089.10	-1762.10	  388.74
     98.3700	 1014.00	 1022.85	-1767.85	  388.51
     98.4700	  923.00	  963.00	-1799.00	  388.29
     98.5700	  940.00	  911.90	-1730.90	  388.06
     98.6700	  873.00	  871.37	-1757.37	  387.83
     98.7700	  789.00	  842.76	-1812.76	  387.60
     98.8700	  814.00	  827.07	-1772.07	  387.36
     98.9700	  758.00	  824.97	-1825.97	  387.13
     99.0700	  830.00	  836.92	-1765.92	  386.90
     99.1700	  803.00	  863.15	-1819.15	  386.67
     99.2700	  914.00	  903.68	-1748.68	  386.43
     99.3700	  938.00	  958.31	-1779.31	  386.20
     99.4700	 1077.00	 1026.53	-1708.53	  385.96
     99.5700	 1094.00	 1107.44	-1772.44	  385.72
     99.6700	 1161.00	 1199.64	-1797.64	  385.49
     99.7700	 1242.00	 1301.14	-1818.14	  385.25
     99.8700	 1348.00	 1409.32	-1820.32	  385.01
     99.9700	 1465.00	 1520.78	-1814.78	  384.77
    100.0700	 1590.00	 1631.51	-1800.51	  384.53
    100.1700	 1811.00	 1736.99	-1684.99	  384.29
    100.2700	 1841.00	 1832.67	-1750.67	  384.05
    100.3700	 1908.00	 1914.46	-1765.46	  383.81
    100.4700	 1999.00	 1979.08	-1739.08	  383.57
    100.5700	 2058.00	 2024.32	-1725.32	  383.33
    100.6700	 2052.00	 2048.78	-1755.78	  383.08
    100.7700	 2084.00	 2051.73	-1726.73	  382.84
    100.8700	 2102.00	 2033.02	-1690.02	  382.60
    100.9700	 2042.00	 1993.37	-1710.37	  382.35
    101.0700	 1987.00	 1934.66	-1706.66	  382.11
    101.1700	 1946.00	 1860.17	-1673.17	  381.87
    101.2700	 1820.00	 1774.29	-1713.29	  381.62
    101.3700	 1710.00	 1682.07	-1731.07	  381.38
    101.4700	 1648.00	 1588.54	-1699.54	  381.13
    101.5700	 1515.00	 1498.23	-1742.23	  380.88
    101.6700	 1441.00	 1414.80	-1732.80	  380.64
    101.7700	 1396.00	 1340.91	-1703.91	  380.39
    101.8700	 1269.00	 1278.07	-1768.07	  380.14
    101.9700	 1227.00	 1226.81	-1758.81	  379.90
    102.0700	 1200.00	 1186.57	-1745.57	  379.65
    102.1700	 1177.00	 1155.98	-1737.98	  379.40
    102.2700	 1132.00	 1132.92	-1759.92	  379.16
    102.3700	 1125.00	 1114.77	-1748.77	  378.91
    102.4700	 1049.00	 1098.71	-1808.71	  378.66
    102.5700	 1088.00	 1082.05	-1753.05	  378.41
    102.6700	 1043.00	 1062.56	-1778.56	  378.16
    102.7700	 1065.00	 1038.81	-1732.81	  377.92
    102.8700	 1000.00	 1010.22	-1769.22	  377.67
    102.9700	  967.00	  977.06	-1769.06	  377.42
    103.0700	  907.00	  940.17	-1792.17	  377.17
    103.1700	  886.00	  900.72	-1773.72	  376.92
    103.2700	  841.00	  860.04	-1778.04	  376.67
    103.3700	  772.00	  819.41	-1806.41	  376.43
    103.4700	  786.00	  780.02	-1753.02	  376.18
    103.5700	  775.00	  742.87	-1726.87	  375.93
    103.6700	  699.00	  708.73	-1768.73	  375.68
    103.7700	  663.00	  678.14	-1774.14	  375.43
    103.8700	  642.00	  651.40	-1768.40	  375.19
    103.9700	  635.00	  628.60	-1752.60	  374.94
    104.0700	  556.00	  609.65	-1812.65	  374.69
    104.1700	  598.00	  594.31	-1755.31	  374.44
    104.2700	  551.00	  582.24	-1790.24	  374.20
    104.3700	  580.00	  573.06	-1752.06	  373.95
    104.4700	  562.00	  566.36	-1763.36	  373.71
    104.5700	  577.00	  561.74	-1743.74	  373.46
    104.6700	  589.00	  558.83	-1728.83	  373.21
    104.7700	  565.00	  557.29	-1751.29	  372.97
    104.8700	  497.00	  556.83	-1818.83	  372.72
    104.9700	  541.00	  557.21	-1775.21	  372.48
    105.0700	  555.00	  558.23	-1762.23	  372.24
    105.1700	  514.00	  559.76	-1804.76	  371.99
    105.2700	  538.00	  561.65	-1782.65	  371.75
    105.3700	  545.00	  563.87	-1777.87	  371.51
    105.4700	  574.00	  566.38	-1751.38	  371.26
    105.5700	  524.00	  569.20	-1804.20	  371.02
    105.6700	  633.00	  572.41	-1698.41	  370.78
    105.7700	  549.00	  576.11	-1786.11	  370.54
    105.8700	  585.00	  580.42	-1754.42	  370.30
    105.9700	  563.00	  585.46	-1781.46	  370.06
    106.0700	  621.00	  591.33	-1729.33	  369.83
    106.1700	  552.00	  598.09	-1805.09	  369.59
    106.2700	  548.00	  605.74	-1816.74	  369.35
    106.3700	  630.00	  614.21	-1743.21	  369.12
    106.4700	  550.00	  623.35	-1832.35	  368.88
    106.5700	  596.00	  632.95	-1795.95	  368.65
    106.6700	  609.00	  642.74	-1792.74	  368.41
    106.7700	  648.00	  652.39	-1763.39	  368.18
    106.8700	  663.00	  661.50	-1757.50	  367.95
    106.9700	  634.00	  669.70	-1794.70	  367.72
    107.0700	  634.00	  676.60	-1801.60	  367.49
    107.1700	  645.00	  681.92	-1795.92	  367.26
    107.2700	  686.00	  685.48	-1758.48	  367.03
    107.3700	  686.00	  687.26	-1760.26	  366.80
    107.4700	  685.00	  687.44	-1761.44	  366.58
    107.5700	  685.00	  686.34	-1760.34	  366.35
    107.6700	  672.00	  684.35	-1771.35	  366.13
    107.7700	  711.00	  681.94	-1729.94	  365.91
    107.8700	  674.00	  679.52	-1764.52	  365.68
    107.9700	  643.00	  677.43	-1793.43	  365.46
    108.0700	  688.00	  675.93	-1746.93	  365.25
    108.1700	  728.00	  675.18	-1706.18	  365.03
    108.2700	  698.00	  675.21	-1736.21	  364.81
    108.3700	  724.00	  675.91	-1710.91	  364.60
    108.4700	  656.00	  677.09	-1780.09	  364.38
    108.5700	  690.00	  678.45	-1747.45	  364.17
    108.6700	  705.00	  679.62	-1733.62	  363.96
    108.7700	  699.00	  680.20	-1740.20	  363.75
    108.8700	  703.00	  679.78	-1735.78	  363.54
    108.9700	  696.00	  678.03	-1741.03	  363.34
    109.0700	  613.00	  674.73	-1820.73	  363.13
    109.1700	  645.00	  669.78	-1783.78	  362.93
    109.2700	  631.00	  663.26	-1791.26	  362.73
    109.3700	  696.00	  655.35	-1718.35	  362.53
    109.4700	  655.00	  646.32	-1750.32	  362.33
    109.5700	  662.00	  636.50	-1733.50	  362.13
    109.6700	  595.00	  626.24	-1790.24	  361.94
    109.7700	  608.00	  615.85	-1766.85	  361.74
    109.8700	  579.00	  605.65	-1785.65	  361.55
    109.9700	  585.00	  595.90	-1769.90	  361.36
    110.0700	  631.00	  586.81	-1714.81	  361.18
    110.1700	  598.00	  578.55	-1739.55	  360.99
    110.2700	  591.00	  571.23	-1739.23	  360.81
    110.3700	  582.00	  564.92	-1741.92	  360.63
    110.4700	  554.00	  559.62	-1764.62	  360.45
    110.5700	  516.00	  555.31	-1798.31	  360.27
    110.6700	  518.00	  551.95	-1792.95	  360.09
    110.7700	  567.00	  549.46	-1741.46	  359.92
    110.8700	  554.00	  547.76	-1752.76	  359.75
    110.9700	  550.00	  546.75	-1755.75	  359.58
    111.0700	  541.00	  546.34	-1764.34	  359.41
    111.1700	  516.00	  546.45	-1789.45	  359.25
    111.2700	  552.00	  547.00	-1754.00	  359.08
    111.3700	  557.00	  547.94	-1749.94	  358.92
    111.4700	  556.00	  549.20	-1752.20	  358.77
    111.5700	  550.00	  550.74	-1759.74	  358.61
    111.6700	  534.00	  552.53	-1777.53	  358.46
    111.7700	  549.00	  554.56	-1764.56	  358.31
    111.8700	  547.00	  556.80	-1768.80	  358.16
    111.9700	  545.00	  559.25	-1773.25	  358.01
    112.0700	  569.00	  561.92	-1751.92	  357.87
    112.1700	  609.00	  564.82	-1714.82	  357.73
    112.2700	  560.00	  567.96	-1766.96	  357.59
    112.3700	  620.00	  571.38	-1710.38	  357.46
    112.4700	  602.00	  575.12	-1732.11	  357.33
    112.5700	  557.00	  579.21	-1781.21	  357.20
    112.6700	  630.00	  583.73	-1712.73	  357.07
    112.7700	  594.00	  588.76	-1753.76	  356.95
    112.8700	  618.00	  594.41	-1735.41	  356.82
    112.9700	  664.00	  600.83	-1695.83	  356.71
    113.0700	  676.00	  608.19	-1691.19	  356.59
    113.1700	  669.00	  616.75	-1706.75	  356.48
    113.2700	  710.00	  626.83	-1675.83	  356.37
    113.3700	  758.00	  638.82	-1639.82	  356.26
    113.4700	  796.00	  653.24	-1616.24	  356.16
    113.5700	  830.00	  670.73	-1599.73	  356.06
    113.6700	  902.00	  692.07	-1549.07	  355.97
    113.7700	  859.00	  718.23	-1618.23	  355.87
    113.8700	  928.00	  750.38	-1581.38	  355.78
    113.9700	  963.00	  789.88	-1585.88	  355.70
    114.0700	 1000.00	  838.32	-1597.32	  355.61
    114.1700	 1064.00	  897.49	-1592.49	  355.53
    114.2700	 1096.00	  969.43	-1632.43	  355.46
    114.3700	 1244.00	 1056.32	-1571.32	  355.38
    114.4700	 1337.00	 1160.46	-1582.46	  355.31
    114.5700	 1442.00	 1284.19	-1601.19	  355.25
    114.6700	 1633.00	 1429.86	-1555.86	  355.19
    114.7700	 1705.00	 1599.66	-1653.66	  355.13
    114.8700	 1890.00	 1795.43	-1664.43	  355.07
    114.9700	 2153.00	 2018.60	-1624.60	  355.02
    115.0700	 2391.00	 2269.96	-1637.96	  354.97
    115.1700	 2675.00	 2549.61	-1633.61	  354.93
    115.2700	 2812.00	 2856.74	-1803.74	  354.89
    115.3700	 3143.00	 3189.44	-1805.44	  354.85
    115.4700	 3431.00	 3544.66	-1872.66	  354.82
    115.5700	 3729.00	 3918.12	-1948.12	  354.79
    115.6700	 3976.00	 4304.38	-2087.38	  354.77
    115.7700	 4403.00	 4696.79	-2052.79	  354.75
    115.8700	 4745.00	 5087.36	-2101.36	  354.74
    115.9700	 5288.00	 5467.09	-1938.09	  354.72
    116.0700	 5607.00	 5825.98	-1977.98	  354.72
    116.1700	 6051.00	 6153.48	-1861.48	  354.71
    116.2700	 6309.00	 6438.74	-1888.74	  354.72
    116.3700	 6745.00	 6671.18	-1685.18	  354.72
    116.4700	 6754.00	 6841.35	-1846.35	  354.73
    116.5700	 7036.00	 6941.85	-1664.85	  354.75
    116.6700	 6923.00	 6968.18	-1804.18	  354.77
    116.7700	 6970.00	 6919.27	-1708.27	  354.79
    116.8700	 6954.00	 6797.68	-1602.68	  354.82
    116.9700	 6715.00	 6609.25	-1653.25	  354.85
    117.0700	 6505.00	 6362.36	-1616.36	  354.89
    117.1700	 6077.00	 6066.98	-1748.98	  354.93
    117.2700	 5764.00	 5733.74	-1728.74	  354.98
    117.3700	 5242.00	 5373.46	-1890.46	  355.03
    117.4700	 5067.00	 4996.40	-1688.40	  355.09
    117.5700	 4560.00	 4612.08	-1811.08	  355.15
    117.6700	 4284.00	 4228.88	-1703.88	  355.22
    117.7700	 3996.00	 3853.99	-1616.99	  355.29
    117.8700	 3741.00	 3493.52	-1511.52	  355.37
    117.9700	 3382.00	 3152.25	-1529.25	  355.45
    118.0700	 2900.00	 2833.81	-1692.81	  355.54
    118.1700	 2591.00	 2540.55	-1708.55	  355.63
    118.2700	 2275.00	 2273.81	-1757.81	  355.73
    118.3700	 2047.00	 2034.06	-1746.06	  355.83
    118.4700	 1689.00	 1820.96	-1890.96	  355.94
    118.5700	 1590.00	 1633.54	-1802.54	  356.05
    118.6700	 1417.00	 1470.28	-1812.28	  356.17
    118.7700	 1178.00	 1329.33	-1910.33	  356.30
    118.8700	 1131.00	 1208.66	-1836.66	  356.43
    118.9700	 1036.00	 1106.10	-1829.10	  356.56
    119.0700	  922.00	 1019.51	-1856.51	  356.71
    119.1700	  917.00	  946.78	-1788.78	  356.85
    119.2700	  783.00	  885.95	-1861.95	  357.01
    119.3700	  752.00	  835.25	-1842.25	  357.17
    119.4700	  755.00	  793.07	-1797.07	  357.33
    119.5700	  720.00	  758.03	-1797.03	  357.50
    119.6700	  636.00	  728.93	-1851.93	  357.68
    119.7700	  618.00	  704.73	-1845.73	  357.86
    119.8700	  618.00	  684.58	-1825.58	  358.05
    119.9700	  578.00	  667.80	-1848.80	  358.25
    120.0700	  583.00	  653.78	-1829.78	  358.45
    120.1700	  620.00	  642.07	-1781.07	  358.66
    120.2700	  573.00	  632.29	-1818.29	  358.87
    120.3700	  579.00	  624.12	-1804.12	  359.10
    120.4700	  576.00	  617.34	-1800.34	  359.32
    120.5700	  543.00	  611.75	-1827.75	  359.56
    120.6700	  604.00	  607.21	-1762.21	  359.80
    120.7700	  558.00	  603.59	-1804.59	  360.05
    120.8700	  596.00	  600.80	-1763.80	  360.30
    120.9700	  575.00	  598.78	-1782.78	  360.56
    121.0700	  538.00	  597.47	-1818.47	  360.83
    121.1700	  574.00	  596.81	-1781.81	  361.10
    121.2700	  563.00	  596.76	-1792.76	  361.38
    121.3700	  560.00	  597.29	-1796.29	  361.67
    121.4700	  548.00	  598.35	-1809.35	  361.97
    121.5700	  621.00	  599.89	-1737.89	  362.27
    121.6700	  633.00	  601.85	-1727.85	  362.58
    121.7700	  593.00	  604.19	-1770.19	  362.89
    121.8700	  608.00	  606.82	-1757.82	  363.22
    121.9700	  570.00	  609.69	-1798.69	  363.55
    122.0700	  625.00	  612.71	-1746.71	  363.89
    122.1700	  618.00	  615.78	-1756.78	  364.23
    122.2700	  625.00	  618.81	-1752.81	  364.59
    122.3700	  609.00	  621.71	-1771.71	  364.95
    122.4700	  612.00	  624.35	-1771.35	  365.32
    122.5700	  631.00	  626.67	-1754.67	  365.69
    122.6700	  648.00	  628.56	-1739.56	  366.08
    122.7700	  668.00	  629.95	-1720.95	  366.47
    122.8700	  640.00	  630.79	-1749.79	  366.87
    122.9700	  653.00	  631.06	-1737.06	  367.28
    123.0700	  644.00	  630.73	-1745.73	  367.69
    123.1700	  641.00	  629.83	-1747.83	  368.12
    123.2700	  662.00	  628.41	-1725.41	  368.55
    123.3700	  695.00	  626.51	-1690.51	  368.99
    123.4700	  652.00	  624.19	-1731.19	  369.44
    123.5700	  645.00	  621.53	-1735.53	  369.89
    123.6700	  653.00	  618.59	-1724.59	  370.36
    123.7700	  629.00	  615.45	-1745.45	  370.83
    123.8700	  575.00	  612.18	-1796.18	  371.31
    123.9700	  646.00	  608.84	-1721.84	  371.80
    124.0700	  633.00	  605.49	-1731.49	  372.30
    124.1700	  601.00	  602.18	-1760.18	  372.81
    124.2700	  618.00	  598.97	-1739.97	  373.33
    124.3700	  591.00	  595.90	-1763.90	  373.85
    124.4700	  607.00	  592.98	-1744.98	  374.39
    124.5700	  618.00	  590.25	-1731.25	  374.93
    124.6700	  639.00	  587.74	-1707.74	  375.48
    124.7700	  594.00	  585.44	-1750.44	  376.04
    124.8700	  601.00	  583.38	-1741.38	  376.61
    124.9700	  607.00	  495.43	-1647.43	  377.19
    125.0700	  543.00	  496.02	-1759.00	  377.78
    125.1700	  563.00	  496.62	-1759.00	  378.38
    125.2700	  589.00	  497.22	-1759.00	  378.99
    125.3700	  498.00	  497.84	-1759.00	  379.60
    125.4700	  576.00	  498.47	-1759.00	  380.23
    125.5700	  561.00	  499.10	-1759.00	  380.87
    125.6700	  536.00	  499.75	-1759.00	  381.51
    125.7700	  559.00	  500.40	-1759.00	  382.17
    125.8700	  575.00	  501.07	-1759.00	  382.83
    125.9700	  546.00	  501.75	-1759.00	  383.51
    126.0700	  567.00	  502.43	-1759.00	  384.19
    126.1700	  564.00	  503.13	-1759.00	  384.89
    126.2700	  553.00	  503.83	-1759.00	  385.59
    126.3700	  581.00	  504.55	-1759.00	  386.31
    126.4700	  573.00	  505.27	-1759.00	  387.03
    126.5700	  587.00	  506.01	-1759.00	  387.77
    126.6700	  610.00	  506.76	-1759.00	  388.52
    126.7700	  640.00	  507.51	-1759.00	  389.27
    126.8700	  611.00	  508.28	-1759.00	  390.04
    126.9700	  617.00	  509.06	-1759.00	  390.82
    127.0700	  612.00	  509.85	-1759.00	  391.61
    127.1700	  676.00	  510.65	-1759.00	  392.41
    127.2700	  617.00	  511.46	-1759.00	  393.22
    127.3700	  617.00	  512.28	-1759.00	  394.04
    127.4700	  659.00	  513.11	-1759.00	  394.87
    127.5700	  691.00	  513.95	-1759.00	  395.71
    127.6700	  668.00	  514.81	-1759.00	  396.57
    127.7700	  703.00	  515.67	-1759.00	  397.43
    127.8700	  716.00	  516.55	-1759.00	  398.31
    127.9700	  698.00	  517.44	-1759.00	  399.20
    128.0700	  774.00	  518.34	-1759.00	  400.10
    128.1700	  737.00	  519.25	-1759.00	  401.01
    128.2700	  795.00	  520.17	-1759.00	  401.93
    128.3700	  755.00	  521.10	-1759.00	  402.86
    128.4700	  790.00	  522.05	-1759.00	  403.81
    128.5700	    0.00	  523.01	-1759.00	  404.77
    128.6700	    0.00	  523.98	-1759.00	  405.74
     12.3069	        	        	        	        	       0	(  0  0  2)	  0  1
     24.8883	        	        	        	        	       0	(  0  0  4)	  0  1
     28.3328	        	        	        	        	       0	(  1  0  0)	  0  1
     29.0299	        	        	        	        	       0	(  1  0  1)	  0  1
     31.0356	        	        	        	        	       0	(  1  0  2)	  0  1
     34.1432	        	        	        	        	       0	(  1  0  3)	  0  1
     37.7856	        	        	        	        	       0	(  0  0  6)	  0  1
     38.1194	        	        	        	        	       0	(  1  0  4)	  0  1
     42.7686	        	        	        	        	       0	(  1  0  5)	  0  1
     47.9515	        	        	        	        	       0	(  1  0  6)	  0  1
     50.2691	        	        	        	        	       0	(  1  1  0)	  0  1
     51.2049	        	        	        	        	       0	(  0  0  8)	  0  1
     51.9917	        	        	        	        	       0	(  1  1  2)	  0  1
     53.5807	        	        	        	        	       0	(  1  0  7)	  0  1
     56.9383	        	        	        	        	       0	(  1  1  4)	  0  1
     58.7658	        	        	        	        	       0	(  2  0  0)	  0  1
     59.1573	        	        	        	        	       0	(  2  0  1)	  0  1
     59.6098	        	        	        	        	       0	(  1  0  8)	  0  1
     60.3224	        	        	        	        	       0	(  2  0  2)	  0  1
     62.2351	        	        	        	        	       0	(  2  0  3)	  0  1
     64.6311	        	        	        	        	       0	(  1  1  6)	  0  1
     64.8585	        	        	        	        	       0	(  2  0  4)	  0  1
     65.4309	        	        	        	        	       0	(  0  0 10)	  0  1
     66.0246	        	        	        	        	       0	(  1  0  9)	  0  1
     68.1519	        	        	        	        	       0	(  2  0  5)	  0  1
     72.0783	        	        	        	        	       0	(  2  0  6)	  0  1
     72.8390	        	        	        	        	       0	(  1  0 10)	  0  1
     74.6662	        	        	        	        	       0	(  1  1  8)	  0  1
     76.6112	        	        	        	        	       0	(  2  0  7)	  0  1
     80.0947	        	        	        	        	       0	(  1  0 11)	  0  1
     80.9072	        	        	        	        	       0	(  0  0 12)	  0  1
     81.0062	        	        	        	        	       0	(  2  1  0)	  0  1
     81.3460	        	        	        	        	       0	(  2  1  1)	  0  1
     81.7401	        	        	        	        	       0	(  2  0  8)	  0  1
     82.3636	        	        	        	        	       0	(  2  1  2)	  0  1
     84.0544	        	        	        	        	       0	(  2  1  3)	  0  1
     86.4133	        	        	        	        	       0	(  2  1  4)	  0  1
     86.9341	        	        	        	        	       0	(  1  1 10)	  0  1
     87.4764	        	        	        	        	       0	(  2  0  9)	  0  1
     87.8666	        	        	        	        	       0	(  1  0 12)	  0  1
     89.4382	        	        	        	        	       0	(  2  1  5)	  0  1
     93.1345	        	        	        	        	       0	(  2  1  6)	  0  1
     93.8618	        	        	        	        	       0	(  2  0 10)	  0  1
     94.8944	        	        	        	        	       0	(  3  0  0)	  0  1
     95.2317	        	        	        	        	       0	(  3  0  1)	  0  1
     96.2446	        	        	        	        	       0	(  3  0  2)	  0  1
     96.2770	        	        	        	        	       0	(  1  0 13)	  0  1
     97.5217	        	        	        	        	       0	(  2  1  7)	  0  1
     97.9374	        	        	        	        	       0	(  3  0  3)	  0  1
     98.4407	        	        	        	        	       0	(  0  0 14)	  0  1
    100.3196	        	        	        	        	       0	(  3  0  4)	  0  1
    100.9812	        	        	        	        	       0	(  2  0 11)	  0  1
    101.7993	        	        	        	        	       0	(  1  1 12)	  0  1
    102.6424	        	        	        	        	       0	(  2  1  8)	  0  1
    103.4102	        	        	        	        	       0	(  3  0  5)	  0  1
    105.5260	        	        	        	        	       0	(  1  0 14)	  0  1
    107.2440	        	        	        	        	       0	(  3  0  6)	  0  1
    108.5771	        	        	        	        	       0	(  2  1  9)	  0  1
    108.9893	        	        	        	        	       0	(  2  0 12)	  0  1
    111.8826	        	        	        	        	       0	(  3  0  7)	  0  1
    115.4711	        	        	        	        	       0	(  2  1 10)	  0  1
    115.9644	        	        	        	        	       0	(  1  0 15)	  0  1
    116.6182	        	        	        	        	       0	(  2  2  0)	  0  1
    117.4339	        	        	        	        	       0	(  3  0  8)	  0  1
    118.1329	        	        	        	        	       0	(  2  2  2)	  0  1
    118.1694	        	        	        	        	       0	(  2  0 13)	  0  1
    119.9188	        	        	        	        	       0	(  0  0 16)	  0  1
    120.6350	        	        	        	        	       0	(  1  1 14)	  0  1
    122.8166	        	        	        	        	       0	(  2  2  4)	  0  1
    123.5944	        	        	        	        	       0	(  2  1 11)	  0  1
    124.0909	        	        	        	        	       0	(  3  0  9)	  0  1
    124.6828	        	        	        	        	       0	(  3  1  0)	  0  1
    125.0929	        	        	        	        	       0	(  3  1  1)	  0  1
    126.3359	        	        	        	        	       0	(  3  1  2)	  0  1
    128.3004	        	        	        	        	       0	(  1  0 16)	  0  1
    128.4533	        	        	        	        	       0	(  3  1  3)	  0  1
    129.0932	        	        	        	        	       0	(  2  0 14)	  0  1
    131.2530	        	        	        	        	       0	(  2  2  6)	  0  1
    131.5279	        	        	        	        	       0	(  3  1  4)	  0  1
    132.2276	        	        	        	        	       0	(  3  0 10)	  0  1
    133.5013	        	        	        	        	       0	(  2  1 12)	  0  1
    135.7132	        	        	        	        	       0	(  3  1  5)	  0  1
    141.3059	        	        	        	        	       0	(  3  1  6)	  0  1
    142.6999	        	        	        	        	       0	(  3  0 11)	  0  1
    143.2227	        	        	        	        	       0	(  2  0 15)	  0  1
    144.4565	        	        	        	        	       0	(  1  0 17)	  0  1
    145.4796	        	        	        	        	       0	(  2  2  8)	  0  1
    146.6475	        	        	        	        	       0	(  2  1 13)	  0  1
    148.9747	        	        	        	        	       0	(  3  1  7)	  0  1
    149.5484	        	        	        	        	       0	(  1  1 16)	  0  1
    153.9381	        	        	        	        	       0	(  0  0 18)	  0  1
    158.5635	        	        	        	        	       0	(  3  0 12)	  0  1
    158.8342	        	        	        	        	       0	(  4  0  0)	  0  1
    159.7905	        	        	        	        	       0	(  4  0  1)	  0  1
    160.9586	        	        	        	        	       0	(  3  1  8)	  0  1
    162.9670	        	        	        	        	       0	(  4  0  2)	  0  1
    169.6102	        	        	        	        	       0	(  2  0 16)	  0  1
    170.3050	        	        	        	        	       0	(  4  0  3)	  0  1
    174.0156	        	        	        	        	       0	(  2  1 14)	  0  1
