MSG Master    CELL:    5.91430   5.91430  23.24197   90.0000   90.0000  120.0000   SPGR: P 63/m m c             TEMP:    983.15
  1   1280     2.52000     0.00000    -0.12510     0.00000     0.00000    0
    99     0     2
       0.00000      10.00000
     125.00000     130.00000
 2Theta	Yobs	Ycal	Yobs-Ycal	Backg	Posr	(hkl)	K
      0.7700	    0.00	  514.29	-1829.75	  402.86
      0.8700	    0.00	  515.40	-1829.75	  403.96
      0.9700	   41.00	  516.49	-1829.75	  405.05
      1.0700	   36.00	  517.57	-1829.75	  406.13
      1.1700	   54.00	  518.63	-1829.75	  407.19
      1.2700	   50.00	  519.68	-1829.75	  408.24
      1.3700	   49.00	  520.72	-1829.75	  409.28
      1.4700	   93.00	  521.74	-1829.75	  410.30
      1.5700	  278.00	  522.75	-1829.75	  411.31
      1.6700	  430.00	  523.74	-1829.75	  412.31
      1.7700	  566.00	  524.72	-1829.75	  413.29
      1.8700	  643.00	  525.69	-1829.75	  414.26
      1.9700	  718.00	  526.65	-1829.75	  415.21
      2.0700	  782.00	  527.59	-1829.75	  416.15
      2.1700	  773.00	  528.52	-1829.75	  417.08
      2.2700	  742.00	  529.43	-1829.75	  418.00
      2.3700	  742.00	  530.34	-1829.75	  418.90
      2.4700	  743.00	  531.23	-1829.75	  419.79
      2.5700	  649.00	  532.10	-1829.75	  420.67
      2.6700	  642.00	  532.97	-1829.75	  421.53
      2.7700	  668.00	  533.82	-1829.75	  422.39
      2.8700	  638.00	  534.66	-1829.75	  423.23
      2.9700	  613.00	  535.49	-1829.75	  424.05
      3.0700	  591.00	  536.30	-1829.75	  424.87
      3.1700	  582.00	  537.11	-1829.75	  425.67
      3.2700	  561.00	  537.90	-1829.75	  426.46
      3.3700	  662.00	  538.67	-1829.75	  427.24
      3.4700	  722.00	  539.44	-1829.75	  428.01
      3.5700	  830.00	  540.20	-1829.75	  428.76
      3.6700	  788.00	  540.94	-1829.75	  429.50
      3.7700	  909.00	  541.67	-1829.75	  430.23
      3.8700	 1016.00	  542.39	-1829.75	  430.95
      3.9700	  987.00	  543.10	-1829.75	  431.66
      4.0700	 1063.00	  543.79	-1829.75	  432.36
      4.1700	 1091.00	  544.48	-1829.75	  433.04
      4.2700	 1116.00	  545.15	-1829.75	  433.72
      4.3700	 1063.00	  545.81	-1829.75	  434.38
      4.4700	 1139.00	  546.46	-1829.75	  435.03
      4.5700	 1049.00	  547.10	-1829.75	  435.67
      4.6700	  994.00	  547.73	-1829.75	  436.30
      4.7700	  959.00	  548.35	-1829.75	  436.92
      4.8700	  959.00	  548.96	-1829.75	  437.52
      4.9700	  950.00	  549.56	-1829.75	  438.12
      5.0700	  961.00	  550.14	-1829.75	  438.71
      5.1700	  933.00	  550.72	-1829.75	  439.28
      5.2700	  867.00	  551.28	-1829.75	  439.85
      5.3700	  845.00	  551.84	-1829.75	  440.40
      5.4700	  894.00	  552.38	-1829.75	  440.95
      5.5700	  851.00	  552.91	-1829.75	  441.48
      5.6700	  822.00	  553.44	-1829.75	  442.00
      5.7700	  818.00	  553.95	-1829.75	  442.52
      5.8700	  780.00	  554.45	-1829.75	  443.02
      5.9700	  775.00	  554.95	-1829.75	  443.51
      6.0700	  796.00	  555.43	-1829.75	  444.00
      6.1700	  796.00	  555.90	-1829.75	  444.47
      6.2700	  797.00	  556.37	-1829.75	  444.93
      6.3700	  777.00	  556.82	-1829.75	  445.39
      6.4700	  737.00	  557.27	-1829.75	  445.83
      6.5700	  737.00	  557.70	-1829.75	  446.27
      6.6700	  764.00	  558.13	-1829.75	  446.69
      6.7700	  693.00	  558.54	-1829.75	  447.11
      6.8700	  727.00	  558.95	-1829.75	  447.51
      6.9700	  641.00	  559.35	-1829.75	  447.91
      7.0700	  699.00	  559.73	-1829.75	  448.30
      7.1700	  696.00	  560.11	-1829.75	  448.68
      7.2700	  692.00	  560.48	-1829.75	  449.05
      7.3700	  680.00	  560.84	-1829.75	  449.41
      7.4700	  684.00	  561.20	-1829.75	  449.76
      7.5700	  647.00	  561.54	-1829.75	  450.10
      7.6700	  618.00	  561.87	-1829.75	  450.44
      7.7700	  635.00	  562.20	-1829.75	  450.77
      7.8700	  609.00	  562.52	-1829.75	  451.08
      7.9700	  660.00	  562.83	-1829.75	  451.39
      8.0700	  642.00	  563.13	-1829.75	  451.69
      8.1700	  665.00	  563.42	-1829.75	  451.98
      8.2700	  597.00	  563.70	-1829.75	  452.27
      8.3700	  617.00	  563.98	-1829.75	  452.54
      8.4700	  615.00	  564.24	-1829.75	  452.81
      8.5700	  575.00	  564.50	-1829.75	  453.07
      8.6700	  617.00	  564.75	-1829.75	  453.32
      8.7700	  642.00	  565.00	-1829.75	  453.56
      8.8700	  530.00	  565.23	-1829.75	  453.80
      8.9700	  616.00	  565.46	-1829.75	  454.03
      9.0700	  627.00	  565.68	-1829.75	  454.24
      9.1700	  565.00	  565.89	-1829.75	  454.46
      9.2700	  603.00	  566.10	-1829.75	  454.66
      9.3700	  616.00	  566.29	-1829.75	  454.86
      9.4700	  604.00	  566.48	-1829.75	  455.05
      9.5700	  572.00	  566.66	-1829.75	  455.23
      9.6700	  641.00	  566.84	-1829.75	  455.40
      9.7700	  589.00	  567.00	-1829.75	  455.57
      9.8700	  596.00	  567.16	-1829.75	  455.73
      9.9700	  602.00	  567.32	-1829.75	  455.88
     10.0700	  595.00	  568.16	-1802.91	  456.03
     10.1700	  610.00	  568.35	-1788.10	  456.16
     10.2700	  597.00	  568.55	-1801.30	  456.29
     10.3700	  587.00	  568.75	-1811.50	  456.42
     10.4700	  593.00	  568.98	-1805.73	  456.54
     10.5700	  578.00	  569.28	-1821.03	  456.65
     10.6700	  569.00	  569.72	-1830.47	  456.75
     10.7700	  572.00	  570.39	-1828.14	  456.85
     10.8700	  536.00	  571.36	-1865.11	  456.94
     10.9700	  578.00	  572.64	-1824.39	  457.02
     11.0700	  583.00	  574.19	-1820.94	  457.10
     11.1700	  575.00	  576.00	-1830.75	  457.17
     11.2700	  590.00	  578.09	-1817.84	  457.23
     11.3700	  608.00	  580.50	-1802.25	  457.29
     11.4700	  626.00	  583.35	-1787.10	  457.35
     11.5700	  588.00	  586.76	-1828.51	  457.39
     11.6700	  572.00	  591.00	-1848.75	  457.43
     11.7700	  570.00	  596.49	-1856.24	  457.46
     11.8700	  645.00	  604.03	-1788.78	  457.49
     11.9700	  645.00	  614.52	-1799.27	  457.51
     12.0700	  619.00	  627.51	-1838.26	  457.53
     12.1700	  678.00	  638.51	-1790.26	  457.54
     12.2700	  716.00	  638.75	-1752.50	  457.54
     12.3700	  608.00	  623.25	-1845.00	  457.54
     12.4700	  622.00	  601.60	-1809.35	  457.53
     12.5700	  589.00	  585.32	-1826.07	  457.52
     12.6700	  579.00	  576.80	-1827.55	  457.50
     12.7700	  587.00	  573.27	-1816.02	  457.48
     12.8700	  548.00	  571.86	-1853.61	  457.45
     12.9700	  521.00	  571.16	-1879.91	  457.41
     13.0700	  580.00	  570.70	-1820.45	  457.37
     13.1700	  523.00	  570.36	-1877.11	  457.33
     13.2700	  518.00	  570.09	-1881.84	  457.28
     13.3700	  564.00	  569.87	-1835.62	  457.22
     13.4700	  605.00	  569.68	-1794.43	  457.16
     13.5700	  565.00	  569.51	-1834.26	  457.09
     13.6700	  610.00	  569.35	-1789.10	  457.02
     13.7700	  544.00	  569.21	-1854.96	  456.95
     13.8700	  541.00	  569.07	-1857.82	  456.87
     13.9700	  551.00	  568.94	-1847.69	  456.78
     14.0700	  540.00	  568.80	-1858.55	  456.69
     14.1700	  535.00	  568.67	-1863.42	  456.59
     14.2700	  565.00	  568.55	-1833.30	  456.49
     14.3700	  593.00	  568.41	-1805.16	  456.39
     14.4700	  540.00	  568.28	-1858.03	  456.28
     14.5700	  535.00	  568.15	-1862.90	  456.17
     14.6700	  570.00	  568.01	-1827.76	  456.05
     14.7700	  527.00	  567.88	-1870.63	  455.93
     14.8700	  539.00	  567.74	-1858.49	  455.80
     14.9700	  560.00	  567.59	-1837.34	  455.67
     15.0700	  562.00	  567.45	-1835.20	  455.53
     15.1700	  540.00	  567.30	-1857.05	  455.39
     15.2700	  529.00	  567.14	-1867.89	  455.25
     15.3700	  602.00	  566.99	-1794.74	  455.10
     15.4700	  619.00	  566.83	-1777.58	  454.95
     15.5700	  546.00	  566.67	-1850.42	  454.79
     15.6700	  558.00	  566.50	-1838.25	  454.63
     15.7700	  559.00	  566.33	-1837.08	  454.47
     15.8700	  564.00	  566.16	-1831.91	  454.30
     15.9700	  596.00	  565.98	-1799.73	  454.13
     16.0700	  523.00	  565.80	-1872.55	  453.96
     16.1700	  594.00	  565.62	-1801.37	  453.78
     16.2700	  561.00	  565.43	-1834.18	  453.59
     16.3700	  535.00	  565.24	-1859.99	  453.41
     16.4700	  533.00	  565.05	-1861.80	  453.22
     16.5700	  546.00	  564.85	-1848.60	  453.02
     16.6700	  589.00	  564.68	-1805.43	  452.83
     16.7700	  492.00	  564.47	-1902.22	  452.63
     16.8700	  572.00	  564.27	-1822.02	  452.42
     16.9700	  566.00	  564.06	-1827.81	  452.22
     17.0700	  601.00	  563.85	-1792.60	  452.00
     17.1700	  547.00	  563.63	-1846.38	  451.79
     17.2700	  525.00	  563.42	-1868.17	  451.57
     17.3700	  560.00	  563.20	-1832.95	  451.35
     17.4700	  558.00	  562.97	-1834.72	  451.13
     17.5700	  576.00	  562.74	-1816.49	  450.90
     17.6700	  568.00	  562.52	-1824.27	  450.68
     17.7700	  586.00	  562.28	-1806.03	  450.44
     17.8700	  524.00	  562.15	-1867.90	  450.21
     17.9700	  565.00	  561.91	-1826.66	  449.97
     18.0700	  537.00	  561.67	-1854.43	  449.73
     18.1700	  486.00	  561.43	-1905.18	  449.49
     18.2700	  588.00	  561.19	-1802.94	  449.24
     18.3700	  530.00	  560.94	-1860.69	  448.99
     18.4700	  523.00	  560.69	-1867.44	  448.74
     18.5700	  571.00	  560.44	-1819.19	  448.48
     18.6700	  550.00	  560.19	-1839.94	  448.23
     18.7700	  576.00	  559.93	-1813.68	  447.97
     18.8700	  576.00	  559.67	-1813.42	  447.70
     18.9700	  553.00	  559.50	-1836.25	  447.44
     19.0700	  536.00	  559.24	-1852.99	  447.17
     19.1700	  576.00	  558.98	-1812.73	  446.90
     19.2700	  552.00	  558.71	-1836.46	  446.63
     19.3700	  561.00	  558.44	-1827.19	  446.36
     19.4700	  539.00	  558.18	-1848.93	  446.08
     19.5700	  531.00	  557.90	-1856.65	  445.80
     19.6700	  569.00	  557.63	-1818.38	  445.52
     19.7700	  576.00	  557.36	-1811.11	  445.24
     19.8700	  575.00	  557.08	-1811.83	  444.95
     19.9700	  561.00	  556.80	-1825.55	  444.67
     20.0700	  547.00	  556.52	-1839.27	  444.38
     20.1700	  571.00	  556.24	-1814.99	  444.09
     20.2700	  564.00	  555.94	-1821.69	  443.79
     20.3700	  529.00	  555.65	-1856.40	  443.50
     20.4700	  548.00	  555.37	-1837.12	  443.20
     20.5700	  518.00	  555.08	-1866.83	  442.90
     20.6700	  517.00	  554.79	-1867.54	  442.60
     20.7700	  602.00	  554.50	-1782.25	  442.30
     20.8700	  547.00	  554.21	-1836.96	  442.00
     20.9700	  535.00	  553.92	-1848.67	  441.69
     21.0700	  531.00	  553.67	-1852.42	  441.38
     21.1700	  598.00	  553.38	-1785.13	  441.08
     21.2700	  541.00	  553.09	-1841.84	  440.77
     21.3700	  532.00	  552.80	-1850.55	  440.45
     21.4700	  555.00	  552.50	-1827.25	  440.14
     21.5700	  556.00	  552.21	-1825.96	  439.83
     21.6700	  563.00	  551.92	-1818.67	  439.51
     21.7700	  576.00	  551.62	-1805.37	  439.19
     21.8700	  550.00	  551.33	-1831.08	  438.87
     21.9700	  538.00	  551.04	-1842.79	  438.55
     22.0700	  521.00	  550.75	-1859.50	  438.23
     22.1700	  526.00	  550.46	-1854.21	  437.91
     22.2700	  527.00	  550.17	-1852.92	  437.58
     22.3700	  555.00	  549.88	-1824.63	  437.26
     22.4700	  597.00	  549.60	-1782.35	  436.93
     22.5700	  541.00	  549.32	-1838.07	  436.60
     22.6700	  532.00	  549.04	-1846.79	  436.27
     22.7700	  595.00	  548.77	-1783.52	  435.94
     22.8700	  570.00	  548.50	-1808.25	  435.61
     22.9700	  570.00	  548.24	-1807.99	  435.28
     23.0700	  583.00	  547.99	-1794.74	  434.95
     23.1700	  611.00	  547.76	-1766.51	  434.62
     23.2700	  566.00	  547.53	-1811.28	  434.28
     23.3700	  576.00	  547.33	-1801.08	  433.95
     23.4700	  537.00	  547.14	-1839.89	  433.61
     23.5700	  551.00	  547.00	-1825.75	  433.27
     23.6700	  571.00	  546.90	-1805.65	  432.93
     23.7700	  560.00	  546.87	-1816.62	  432.60
     23.8700	  540.00	  546.99	-1836.74	  432.26
     23.9700	  538.00	  547.52	-1839.27	  431.92
     24.0700	  580.00	  548.59	-1798.34	  431.58
     24.1700	  551.00	  550.90	-1829.65	  431.23
     24.2700	  540.00	  555.31	-1845.06	  430.89
     24.3700	  575.00	  562.77	-1817.52	  430.55
     24.4700	  539.00	  574.44	-1865.19	  430.21
     24.5700	  626.00	  591.45	-1795.20	  429.86
     24.6700	  573.00	  612.70	-1869.45	  429.52
     24.7700	  647.00	  631.56	-1814.31	  429.18
     24.8700	  631.00	  635.90	-1834.65	  428.83
     24.9700	  572.00	  618.36	-1876.11	  428.49
     25.0700	  603.00	  590.13	-1816.88	  428.14
     25.1700	  641.00	  566.80	-1755.55	  427.80
     25.2700	  590.00	  553.33	-1793.08	  427.45
     25.3700	  594.00	  547.23	-1782.98	  427.10
     25.4700	  548.00	  544.70	-1826.45	  426.76
     25.5700	  530.00	  543.48	-1843.23	  426.41
     25.6700	  589.00	  542.72	-1783.47	  426.06
     25.7700	  582.00	  542.17	-1789.92	  425.72
     25.8700	  567.00	  541.75	-1804.50	  425.37
     25.9700	  543.00	  541.43	-1828.18	  425.02
     26.0700	  485.00	  541.19	-1885.94	  424.67
     26.1700	  532.00	  541.02	-1838.77	  424.33
     26.2700	  562.00	  540.92	-1808.67	  423.98
     26.3700	  556.00	  540.90	-1814.65	  423.63
     26.4700	  539.00	  540.96	-1831.71	  423.28
     26.5700	  523.00	  541.11	-1847.86	  422.94
     26.6700	  550.00	  541.37	-1821.12	  422.59
     26.7700	  535.00	  541.76	-1836.51	  422.24
     26.8700	  589.00	  542.31	-1783.06	  421.89
     26.9700	  566.00	  543.08	-1806.83	  421.55
     27.0700	  582.00	  544.14	-1791.89	  421.20
     27.1700	  553.00	  545.59	-1822.34	  420.85
     27.2700	  540.00	  547.68	-1837.43	  420.51
     27.3700	  544.00	  550.81	-1836.56	  420.16
     27.4700	  560.00	  555.83	-1825.58	  419.82
     27.5700	  587.00	  564.26	-1807.01	  419.47
     27.6700	  583.00	  578.55	-1825.30	  419.13
     27.7700	  598.00	  602.04	-1833.79	  418.78
     27.8700	  620.00	  637.93	-1847.68	  418.44
     27.9700	  641.00	  687.15	-1875.90	  418.09
     28.0700	  748.00	  745.43	-1827.18	  417.75
     28.1700	  873.00	  800.45	-1757.20	  417.40
     28.2700	  958.00	  831.63	-1703.38	  417.06
     28.3700	  951.00	  821.55	-1700.30	  416.72
     28.4700	  823.00	  782.45	-1789.20	  416.38
     28.5700	  696.00	  749.22	-1882.97	  416.04
     28.6700	  716.00	  743.20	-1856.95	  415.70
     28.7700	  708.00	  764.27	-1886.02	  415.36
     28.8700	  775.00	  795.75	-1850.50	  415.02
     28.9700	  786.00	  810.07	-1853.82	  414.68
     29.0700	  798.00	  783.26	-1815.01	  414.34
     29.1700	  778.00	  722.24	-1773.99	  414.00
     29.2700	  670.00	  657.34	-1817.09	  413.66
     29.3700	  579.00	  607.61	-1858.36	  413.33
     29.4700	  624.00	  576.28	-1782.03	  412.99
     29.5700	  591.00	  558.96	-1797.71	  412.66
     29.6700	  617.00	  549.84	-1762.59	  412.32
     29.7700	  583.00	  544.80	-1791.55	  411.99
     29.8700	  624.00	  541.73	-1747.48	  411.65
     29.9700	  594.00	  539.77	-1775.52	  411.32
     30.0700	  586.00	  538.66	-1782.41	  410.99
     30.1700	  602.00	  538.49	-1766.24	  410.66
     30.2700	  582.00	  539.72	-1787.47	  410.33
     30.3700	  599.00	  543.36	-1774.11	  410.00
     30.4700	  576.00	  551.05	-1804.80	  409.68
     30.5700	  587.00	  564.83	-1807.58	  409.35
     30.6700	  580.00	  585.95	-1835.70	  409.02
     30.7700	  615.00	  612.85	-1827.60	  408.70
     30.8700	  605.00	  639.24	-1863.99	  408.37
     30.9700	  609.00	  653.87	-1874.62	  408.05
     31.0700	  600.00	  645.81	-1875.56	  407.73
     31.1700	  581.00	  617.74	-1866.49	  407.41
     31.2700	  561.00	  585.32	-1854.07	  407.09
     31.3700	  568.00	  559.70	-1821.45	  406.77
     31.4700	  553.00	  543.44	-1820.19	  406.45
     31.5700	  560.00	  534.58	-1804.33	  406.13
     31.6700	  568.00	  530.06	-1791.81	  405.82
     31.7700	  544.00	  527.64	-1813.39	  405.50
     31.8700	  551.00	  526.15	-1804.90	  405.19
     31.9700	  507.00	  525.12	-1847.87	  404.88
     32.0700	  549.00	  524.36	-1805.11	  404.57
     32.1700	  562.00	  523.80	-1791.55	  404.26
     32.2700	  566.00	  523.41	-1787.16	  403.95
     32.3700	  561.00	  523.18	-1791.93	  403.64
     32.4700	  573.00	  523.09	-1779.84	  403.34
     32.5700	  528.00	  523.15	-1824.90	  403.03
     32.6700	  535.00	  523.40	-1818.15	  402.73
     32.7700	  546.00	  523.85	-1807.60	  402.42
     32.8700	  522.00	  524.57	-1832.32	  402.12
     32.9700	  519.00	  525.64	-1836.39	  401.82
     33.0700	  545.00	  527.21	-1811.96	  401.52
     33.1700	  542.00	  529.60	-1817.35	  401.23
     33.2700	  520.00	  533.52	-1843.27	  400.93
     33.3700	  578.00	  540.66	-1792.41	  400.64
     33.4700	  535.00	  554.48	-1849.23	  400.34
     33.5700	  625.00	  581.11	-1785.86	  400.05
     33.6700	  572.00	  628.95	-1886.70	  399.76
     33.7700	  698.00	  704.80	-1836.55	  399.47
     33.8700	  791.00	  805.55	-1844.30	  399.18
     33.9700	  960.00	  910.06	-1779.81	  398.90
     34.0700	 1121.00	  978.09	-1686.84	  398.61
     34.1700	 1063.00	  967.11	-1733.86	  398.33
     34.2700	  963.00	  876.89	-1743.64	  398.05
     34.3700	  758.00	  759.22	-1830.97	  397.77
     34.4700	  627.00	  659.64	-1862.39	  397.49
     34.5700	  601.00	  593.71	-1822.46	  397.21
     34.6700	  557.00	  557.15	-1829.90	  396.93
     34.7700	  564.00	  538.96	-1804.71	  396.66
     34.8700	  558.00	  529.91	-1801.66	  396.39
     34.9700	  505.00	  524.82	-1849.57	  396.11
     35.0700	  520.00	  521.44	-1831.19	  395.84
     35.1700	  534.00	  518.94	-1814.69	  395.58
     35.2700	  537.00	  516.97	-1809.72	  395.31
     35.3700	  504.00	  515.38	-1841.13	  395.04
     35.4700	  492.00	  514.05	-1851.80	  394.78
     35.5700	  525.00	  512.95	-1817.70	  394.52
     35.6700	  480.00	  511.98	-1861.73	  394.26
     35.7700	  503.00	  511.14	-1837.89	  394.00
     35.8700	  528.00	  510.90	-1812.65	  393.74
     35.9700	  483.00	  510.24	-1856.99	  393.49
     36.0700	  481.00	  509.65	-1858.40	  393.23
     36.1700	  456.00	  509.11	-1882.86	  392.98
     36.2700	  546.00	  508.62	-1792.37	  392.73
     36.3700	  471.00	  508.17	-1866.92	  392.48
     36.4700	  562.00	  507.75	-1775.50	  392.23
     36.5700	  525.00	  507.37	-1812.12	  391.99
     36.6700	  488.00	  507.02	-1848.77	  391.74
     36.7700	  503.00	  506.71	-1833.46	  391.50
     36.8700	  510.00	  506.44	-1826.19	  391.26
     36.9700	  547.00	  506.24	-1788.99	  391.02
     37.0700	  474.00	  506.17	-1861.92	  390.78
     37.1700	  462.00	  506.36	-1874.11	  390.55
     37.2700	  528.00	  507.07	-1808.82	  390.32
     37.3700	  490.00	  508.68	-1848.43	  390.08
     37.4700	  579.00	  511.51	-1762.26	  389.85
     37.5700	  498.00	  515.49	-1847.24	  389.63
     37.6700	  483.00	  519.85	-1866.60	  389.40
     37.7700	  512.00	  523.23	-1840.98	  389.17
     37.8700	  537.00	  524.45	-1817.20	  388.95
     37.9700	  476.00	  523.55	-1877.30	  388.73
     38.0700	  502.00	  521.20	-1848.95	  388.51
     38.1700	  514.00	  517.62	-1833.37	  388.29
     38.2700	  486.00	  513.28	-1857.03	  388.08
     38.3700	  516.00	  509.18	-1822.93	  387.86
     38.4700	  492.00	  506.01	-1843.76	  387.65
     38.5700	  468.00	  503.89	-1865.64	  387.44
     38.6700	  515.00	  502.61	-1817.36	  387.23
     38.7700	  488.00	  501.76	-1843.51	  387.03
     38.8700	  551.00	  501.27	-1780.02	  386.82
     38.9700	  505.00	  500.92	-1825.67	  386.62
     39.0700	  536.00	  500.62	-1794.37	  386.42
     39.1700	  499.00	  500.36	-1831.11	  386.22
     39.2700	  488.00	  500.03	-1841.78	  386.02
     39.3700	  468.00	  499.81	-1861.56	  385.83
     39.4700	  472.00	  499.60	-1857.35	  385.63
     39.5700	  483.00	  499.41	-1846.16	  385.44
     39.6700	  505.00	  499.22	-1823.97	  385.25
     39.7700	  513.00	  499.05	-1815.80	  385.06
     39.8700	  506.00	  498.88	-1822.63	  384.88
     39.9700	  457.00	  498.84	-1871.59	  384.69
     40.0700	  470.00	  498.69	-1858.44	  384.51
     40.1700	  479.00	  498.56	-1849.31	  384.33
     40.2700	  516.00	  498.44	-1812.19	  384.15
     40.3700	  515.00	  498.32	-1813.07	  383.97
     40.4700	  521.00	  498.22	-1806.97	  383.80
     40.5700	  477.00	  498.13	-1850.88	  383.63
     40.6700	  463.00	  498.06	-1864.81	  383.46
     40.7700	  492.00	  498.01	-1835.76	  383.29
     40.8700	  498.00	  497.97	-1829.72	  383.12
     40.9700	  478.00	  497.96	-1849.71	  382.95
     41.0700	  502.00	  497.97	-1825.72	  382.79
     41.1700	  504.00	  497.98	-1823.73	  382.63
     41.2700	  448.00	  498.08	-1879.83	  382.47
     41.3700	  464.00	  498.22	-1863.97	  382.31
     41.4700	  481.00	  498.43	-1847.18	  382.16
     41.5700	  484.00	  498.74	-1844.49	  382.00
     41.6700	  449.00	  499.17	-1879.92	  381.85
     41.7700	  478.00	  500.22	-1851.97	  381.70
     41.8700	  522.00	  501.26	-1809.01	  381.56
     41.9700	  492.00	  503.14	-1840.89	  381.41
     42.0700	  500.00	  506.88	-1836.63	  381.27
     42.1700	  498.00	  514.38	-1846.12	  381.12
     42.2700	  526.00	  528.46	-1832.21	  380.98
     42.3700	  513.00	  551.72	-1868.47	  380.85
     42.4700	  508.00	  584.61	-1906.36	  380.71
     42.5700	  586.00	  622.38	-1866.13	  380.58
     42.6700	  613.00	  653.99	-1870.74	  380.44
     42.7700	  591.00	  665.47	-1904.22	  380.31
     42.8700	  581.00	  649.40	-1898.15	  380.19
     42.9700	  567.00	  614.31	-1877.06	  380.06
     43.0700	  529.00	  575.71	-1876.46	  379.93
     43.1700	  514.00	  544.07	-1859.82	  379.81
     43.2700	  514.00	  522.85	-1838.60	  379.69
     43.3700	  467.00	  510.69	-1873.44	  379.57
     43.4700	  506.00	  504.46	-1828.21	  379.46
     43.5700	  512.00	  501.39	-1819.14	  379.34
     43.6700	  546.00	  499.77	-1783.52	  379.23
     43.7700	  515.00	  498.97	-1813.72	  379.12
     43.8700	  505.00	  498.29	-1823.04	  379.01
     43.9700	  526.00	  497.78	-1801.53	  378.90
     44.0700	  497.00	  497.38	-1830.13	  378.80
     44.1700	  490.00	  497.07	-1836.82	  378.69
     44.2700	  499.00	  496.83	-1827.58	  378.59
     44.3700	  502.00	  496.64	-1824.39	  378.49
     44.4700	  528.00	  496.40	-1798.15	  378.40
     44.5700	  505.00	  496.30	-1821.05	  378.30
     44.6700	  498.00	  496.23	-1827.98	  378.21
     44.7700	  482.00	  496.18	-1843.93	  378.12
     44.8700	  511.00	  496.16	-1814.91	  378.03
     44.9700	  492.00	  496.17	-1833.92	  377.94
     45.0700	  493.00	  496.19	-1832.94	  377.85
     45.1700	  516.00	  496.24	-1809.99	  377.77
     45.2700	  489.00	  496.31	-1837.06	  377.69
     45.3700	  505.00	  496.58	-1821.33	  377.61
     45.4700	  510.00	  496.70	-1816.45	  377.53
     45.5700	  535.00	  496.84	-1791.59	  377.46
     45.6700	  507.00	  497.00	-1819.75	  377.38
     45.7700	  494.00	  497.19	-1832.94	  377.31
     45.8700	  477.00	  497.40	-1850.15	  377.24
     45.9700	  494.00	  497.64	-1833.39	  377.17
     46.0700	  468.00	  497.92	-1859.67	  377.10
     46.1700	  513.00	  498.23	-1814.98	  377.04
     46.2700	  527.00	  498.57	-1801.32	  376.98
     46.3700	  540.00	  498.97	-1788.72	  376.92
     46.4700	  491.00	  499.41	-1838.16	  376.86
     46.5700	  501.00	  499.91	-1828.66	  376.80
     46.6700	  535.00	  500.48	-1795.23	  376.75
     46.7700	  505.00	  501.13	-1825.88	  376.69
     46.8700	  475.00	  501.90	-1856.65	  376.64
     46.9700	  519.00	  502.85	-1813.60	  376.59
     47.0700	  493.00	  504.11	-1840.86	  376.54
     47.1700	  505.00	  505.99	-1830.74	  376.50
     47.2700	  469.00	  509.11	-1869.86	  376.45
     47.3700	  512.00	  514.49	-1832.24	  376.41
     47.4700	  523.00	  523.39	-1830.14	  376.37
     47.5700	  538.00	  536.76	-1828.51	  376.33
     47.6700	  566.00	  554.22	-1817.97	  376.30
     47.7700	  560.00	  573.29	-1843.04	  376.26
     47.8700	  600.00	  589.02	-1818.77	  376.23
     47.9700	  518.00	  595.60	-1907.35	  376.20
     48.0700	  601.00	  590.39	-1819.14	  376.17
     48.1700	  563.00	  576.80	-1843.55	  376.14
     48.2700	  533.00	  561.07	-1857.82	  376.11
     48.3700	  524.00	  547.96	-1853.71	  376.09
     48.4700	  527.00	  539.65	-1842.40	  376.07
     48.5700	  540.00	  536.19	-1825.94	  376.05
     48.6700	  544.00	  536.61	-1822.36	  376.03
     48.7700	  531.00	  539.80	-1838.55	  376.01
     48.8700	  561.00	  545.08	-1813.83	  376.00
     48.9700	  534.00	  552.31	-1848.06	  375.98
     49.0700	  543.00	  561.94	-1848.69	  375.97
     49.1700	  565.00	  575.25	-1840.00	  375.96
     49.2700	  564.00	  594.97	-1860.72	  375.96
     49.3700	  649.00	  626.46	-1807.21	  375.95
     49.4700	  700.00	  679.08	-1808.83	  375.95
     49.5700	  784.00	  767.09	-1812.84	  375.94
     49.6700	  833.00	  908.36	-1905.11	  375.94
     49.7700	 1074.00	 1119.65	-1875.40	  375.94
     49.8700	 1272.00	 1406.31	-1964.06	  375.94
     49.9700	 1730.00	 1752.53	-1852.28	  375.95
     50.0700	 2158.00	 2109.31	-1781.06	  375.95
     50.1700	 2561.00	 2390.72	-1659.47	  375.96
     50.2700	 2585.00	 2496.25	-1741.00	  375.97
     50.3700	 2507.00	 2376.78	-1699.53	  375.98
     50.4700	 2079.00	 2084.37	-1835.12	  375.99
     50.5700	 1639.00	 1724.39	-1915.14	  376.01
     50.6700	 1202.00	 1383.07	-2010.82	  376.03
     50.7700	  902.00	 1106.82	-2034.57	  376.04
     50.8700	  699.00	  909.25	-2040.00	  376.06
     50.9700	  675.00	  782.29	-1937.04	  376.08
     51.0700	  612.00	  707.17	-1924.92	  376.11
     51.1700	  633.00	  663.54	-1860.29	  376.13
     51.2700	  549.00	  635.20	-1915.95	  376.16
     51.3700	  615.00	  612.74	-1827.49	  376.18
     51.4700	  603.00	  593.06	-1819.81	  376.21
     51.5700	  562.00	  576.21	-1843.96	  376.24
     51.6700	  585.00	  562.77	-1807.52	  376.27
     51.7700	  556.00	  552.84	-1826.59	  376.31
     51.8700	  542.00	  545.92	-1833.67	  376.34
     51.9700	  554.00	  541.19	-1816.94	  376.38
     52.0700	  543.00	  537.89	-1824.64	  376.42
     52.1700	  548.00	  535.55	-1817.30	  376.46
     52.2700	  581.00	  534.00	-1782.75	  376.50
     52.3700	  530.00	  533.27	-1833.02	  376.54
     52.4700	  593.00	  533.53	-1770.28	  376.59
     52.5700	  540.00	  535.48	-1825.23	  376.63
     52.6700	  578.00	  539.87	-1791.62	  376.68
     52.7700	  596.00	  549.35	-1783.10	  376.73
     52.8700	  620.00	  568.49	-1778.24	  376.78
     52.9700	  656.00	  604.24	-1777.99	  376.83
     53.0700	  759.00	  664.87	-1735.62	  376.88
     53.1700	  808.00	  756.52	-1778.27	  376.94
     53.2700	  942.00	  877.82	-1765.57	  377.00
     53.3700	 1038.00	 1014.62	-1806.37	  377.05
     53.4700	 1153.00	 1137.96	-1814.71	  377.11
     53.5700	 1147.00	 1209.44	-1892.19	  377.17
     53.6700	 1120.00	 1199.80	-1909.55	  377.24
     53.7700	 1048.00	 1112.77	-1894.52	  377.30
     53.8700	  915.00	  982.41	-1897.16	  377.36
     53.9700	  808.00	  846.83	-1868.58	  377.43
     54.0700	  699.00	  731.75	-1862.50	  377.50
     54.1700	  631.00	  647.92	-1846.67	  377.57
     54.2700	  592.00	  594.33	-1832.08	  377.64
     54.3700	  561.00	  563.72	-1832.47	  377.71
     54.4700	  568.00	  547.83	-1809.58	  377.78
     54.5700	  527.00	  540.16	-1842.91	  377.86
     54.6700	  594.00	  536.68	-1772.43	  377.93
     54.7700	  531.00	  535.31	-1834.06	  378.01
     54.8700	  535.00	  535.13	-1829.88	  378.09
     54.9700	  545.00	  535.75	-1820.50	  378.17
     55.0700	  546.00	  537.06	-1820.81	  378.25
     55.1700	  478.00	  539.03	-1890.78	  378.33
     55.2700	  526.00	  541.71	-1845.46	  378.41
     55.3700	  549.00	  545.17	-1825.92	  378.50
     55.4700	  553.00	  549.56	-1826.31	  378.58
     55.5700	  551.00	  555.18	-1833.93	  378.67
     55.6700	  605.00	  562.46	-1787.21	  378.76
     55.7700	  550.00	  572.45	-1852.20	  378.85
     55.8700	  526.00	  587.27	-1891.02	  378.94
     55.9700	  639.00	  611.14	-1801.89	  379.03
     56.0700	  596.00	  651.81	-1885.56	  379.12
     56.1700	  670.00	  721.69	-1881.44	  379.22
     56.2700	  760.00	  837.90	-1907.65	  379.31
     56.3700	  907.00	 1019.07	-1941.82	  379.41
     56.4700	 1199.00	 1278.49	-1909.24	  379.51
     56.5700	 1551.00	 1614.12	-1892.87	  379.61
     56.6700	 1853.00	 1998.46	-1975.21	  379.71
     56.7700	 2302.00	 2372.65	-1900.40	  379.81
     56.8700	 2492.00	 2648.85	-1986.60	  379.91
     56.9700	 2763.00	 2737.38	-1804.13	  380.01
     57.0700	 2475.00	 2603.39	-1958.14	  380.12
     57.1700	 2249.00	 2298.10	-1878.85	  380.22
     57.2700	 1932.00	 1916.37	-1814.12	  380.33
     57.3700	 1556.00	 1541.54	-1815.29	  380.44
     57.4700	 1176.00	 1225.23	-1878.98	  380.55
     57.5700	  962.00	  988.46	-1856.21	  380.65
     57.6700	  778.00	  829.17	-1880.92	  380.77
     57.7700	  750.00	  732.53	-1812.28	  380.88
     57.8700	  702.00	  680.79	-1808.54	  380.99
     57.9700	  681.00	  659.41	-1808.16	  381.10
     58.0700	  622.00	  659.41	-1867.16	  381.22
     58.1700	  655.00	  676.81	-1851.56	  381.33
     58.2700	  727.00	  710.87	-1813.62	  381.45
     58.3700	  804.00	  762.10	-1787.85	  381.57
     58.4700	  936.00	  830.36	-1724.11	  381.68
     58.5700	 1054.00	  913.15	-1688.90	  381.80
     58.6700	 1151.00	 1004.19	-1682.94	  381.92
     58.7700	 1381.00	 1093.82	-1542.57	  382.04
     58.8700	 1362.00	 1172.73	-1640.48	  382.17
     58.9700	 1537.00	 1235.25	-1528.00	  382.29
     59.0700	 1674.00	 1276.57	-1432.32	  382.41
     59.1700	 1603.00	 1290.44	-1517.19	  382.54
     59.2700	 1605.00	 1275.24	-1499.99	  382.66
     59.3700	 1423.00	 1240.42	-1647.17	  382.79
     59.4700	 1366.00	 1201.42	-1665.17	  382.91
     59.5700	 1258.00	 1170.64	-1742.39	  383.04
     59.6700	 1170.00	 1155.48	-1815.23	  383.17
     59.7700	 1150.00	 1162.27	-1842.02	  383.30
     59.8700	 1144.00	 1197.71	-1883.46	  383.43
     59.9700	 1258.00	 1263.84	-1835.59	  383.56
     60.0700	 1421.00	 1352.29	-1761.04	  383.69
     60.1700	 1495.00	 1441.94	-1776.69	  383.82
     60.2700	 1627.00	 1501.41	-1704.16	  383.95
     60.3700	 1611.00	 1500.30	-1719.05	  384.09
     60.4700	 1492.00	 1428.39	-1766.14	  384.22
     60.5700	 1383.00	 1302.70	-1749.45	  384.36
     60.6700	 1225.00	 1153.04	-1757.79	  384.49
     60.7700	 1002.00	 1005.78	-1833.53	  384.63
     60.8700	  882.00	  878.38	-1826.13	  384.76
     60.9700	  779.00	  779.35	-1830.10	  384.90
     61.0700	  710.00	  710.28	-1830.03	  385.04
     61.1700	  680.00	  668.73	-1818.48	  385.18
     61.2700	  633.00	  651.26	-1848.01	  385.32
     61.3700	  639.00	  655.87	-1846.62	  385.46
     61.4700	  705.00	  683.11	-1807.86	  385.60
     61.5700	  704.00	  735.73	-1861.48	  385.74
     61.6700	  735.00	  816.91	-1911.66	  385.88
     61.7700	  872.00	  927.43	-1885.18	  386.02
     61.8700	 1001.00	 1062.72	-1891.47	  386.16
     61.9700	 1116.00	 1210.40	-1924.15	  386.31
     62.0700	 1220.00	 1348.99	-1958.74	  386.45
     62.1700	 1338.00	 1449.42	-1941.17	  386.59
     62.2700	 1397.00	 1483.15	-1915.90	  386.74
     62.3700	 1342.00	 1438.40	-1926.15	  386.88
     62.4700	 1246.00	 1329.31	-1913.06	  387.03
     62.5700	 1102.00	 1185.29	-1913.04	  387.17
     62.6700	 1002.00	 1034.82	-1862.57	  387.32
     62.7700	  833.00	  898.18	-1894.93	  387.47
     62.8700	  703.00	  786.45	-1913.20	  387.61
     62.9700	  670.00	  702.83	-1862.58	  387.76
     63.0700	  623.00	  644.97	-1851.72	  387.91
     63.1700	  603.00	  607.55	-1834.30	  388.05
     63.2700	  580.00	  584.73	-1834.48	  388.20
     63.3700	  590.00	  571.54	-1811.29	  388.35
     63.4700	  551.00	  564.58	-1843.33	  388.50
     63.5700	  579.00	  562.01	-1812.76	  388.65
     63.6700	  598.00	  563.39	-1795.14	  388.80
     63.7700	  636.00	  569.44	-1763.19	  388.95
     63.8700	  578.00	  581.82	-1833.57	  389.10
     63.9700	  632.00	  602.77	-1800.52	  389.25
     64.0700	  680.00	  634.47	-1784.22	  389.40
     64.1700	  707.00	  678.12	-1800.87	  389.55
     64.2700	  791.00	  732.95	-1771.70	  389.70
     64.3700	  851.00	  795.22	-1773.97	  389.85
     64.4700	  931.00	  857.72	-1756.47	  390.00
     64.5700	  966.00	  910.29	-1774.04	  390.15
     64.6700	  976.00	  941.30	-1795.05	  390.31
     64.7700	 1001.00	  944.72	-1773.47	  390.46
     64.8700	  987.00	  920.59	-1763.34	  390.61
     64.9700	  980.00	  876.03	-1725.78	  390.76
     65.0700	  881.00	  821.01	-1769.76	  390.91
     65.1700	  830.00	  765.07	-1764.82	  391.07
     65.2700	  704.00	  714.98	-1840.73	  391.22
     65.3700	  725.00	  673.85	-1778.60	  391.37
     65.4700	  610.00	  641.79	-1861.54	  391.52
     65.5700	  629.00	  617.21	-1817.96	  391.67
     65.6700	  613.00	  598.29	-1815.04	  391.83
     65.7700	  591.00	  583.69	-1822.44	  391.98
     65.8700	  540.00	  572.57	-1862.32	  392.13
     65.9700	  537.00	  564.39	-1857.14	  392.28
     66.0700	  564.00	  558.77	-1824.52	  392.44
     66.1700	  564.00	  555.39	-1821.14	  392.59
     66.2700	  584.00	  553.92	-1799.67	  392.74
     66.3700	  526.00	  554.05	-1857.80	  392.89
     66.4700	  625.00	  555.53	-1760.28	  393.05
     66.5700	  530.00	  558.25	-1858.00	  393.20
     66.6700	  565.00	  562.33	-1827.08	  393.35
     66.7700	  544.00	  568.22	-1853.97	  393.50
     66.8700	  572.00	  577.07	-1834.82	  393.65
     66.9700	  575.00	  590.62	-1845.37	  393.81
     67.0700	  617.00	  612.34	-1825.09	  393.96
     67.1700	  686.00	  647.50	-1791.25	  394.11
     67.2700	  685.00	  703.55	-1848.30	  394.26
     67.3700	  766.00	  789.68	-1853.43	  394.41
     67.4700	  895.00	  915.34	-1850.09	  394.56
     67.5700	 1092.00	 1088.08	-1825.83	  394.71
     67.6700	 1319.00	 1308.99	-1819.74	  394.86
     67.7700	 1664.00	 1569.97	-1735.72	  395.01
     67.8700	 1847.00	 1850.68	-1833.43	  395.16
     67.9700	 2063.00	 2117.73	-1884.48	  395.31
     68.0700	 2364.00	 2326.94	-1792.69	  395.46
     68.1700	 2470.00	 2432.47	-1792.22	  395.61
     68.2700	 2343.00	 2406.27	-1893.02	  395.76
     68.3700	 2319.00	 2255.65	-1766.40	  395.91
     68.4700	 2114.00	 2018.39	-1734.14	  396.06
     68.5700	 1817.00	 1741.56	-1754.31	  396.21
     68.6700	 1439.00	 1465.70	-1856.45	  396.35
     68.7700	 1261.00	 1219.14	-1787.89	  396.50
     68.8700	  954.00	 1017.24	-1892.99	  396.65
     68.9700	  714.00	  864.05	-1979.80	  396.79
     69.0700	  685.00	  755.51	-1900.26	  396.94
     69.1700	  643.00	  682.93	-1869.68	  397.09
     69.2700	  613.00	  636.64	-1853.39	  397.23
     69.3700	  633.00	  608.06	-1804.81	  397.38
     69.4700	  643.00	  590.60	-1777.35	  397.52
     69.5700	  561.00	  579.78	-1848.53	  397.66
     69.6700	  559.00	  572.82	-1843.57	  397.81
     69.7700	  576.00	  568.15	-1821.90	  397.95
     69.8700	  571.00	  564.92	-1823.67	  398.09
     69.9700	  576.00	  562.70	-1816.45	  398.24
     70.0700	  603.00	  561.26	-1788.01	  398.38
     70.1700	  548.00	  560.51	-1842.26	  398.52
     70.2700	  592.00	  560.41	-1798.16	  398.66
     70.3700	  631.00	  560.99	-1759.74	  398.80
     70.4700	  573.00	  562.38	-1819.13	  398.94
     70.5700	  600.00	  564.80	-1794.55	  399.08
     70.6700	  568.00	  568.77	-1830.52	  399.21
     70.7700	  573.00	  575.23	-1831.98	  399.35
     70.8700	  567.00	  585.78	-1848.53	  399.49
     70.9700	  537.00	  603.04	-1895.79	  399.62
     71.0700	  573.00	  630.88	-1887.63	  399.76
     71.1700	  625.00	  674.46	-1879.21	  399.89
     71.2700	  733.00	  740.82	-1837.57	  400.03
     71.3700	  788.00	  834.30	-1876.05	  400.16
     71.4700	  924.00	  960.21	-1865.96	  400.30
     71.5700	 1088.00	 1119.22	-1860.97	  400.43
     71.6700	 1253.00	 1306.16	-1882.91	  400.56
     71.7700	 1401.00	 1508.48	-1937.23	  400.69
     71.8700	 1672.00	 1705.84	-1863.59	  400.82
     71.9700	 1891.00	 1871.15	-1809.90	  400.95
     72.0700	 1986.00	 1974.75	-1818.50	  401.08
     72.1700	 1972.00	 1993.86	-1851.61	  401.21
     72.2700	 1924.00	 1923.97	-1829.72	  401.33
     72.3700	 1705.00	 1781.34	-1906.09	  401.46
     72.4700	 1650.00	 1595.21	-1774.96	  401.58
     72.5700	 1507.00	 1393.95	-1716.70	  401.71
     72.6700	 1258.00	 1200.60	-1772.35	  401.83
     72.7700	 1293.00	 1030.65	-1567.40	  401.96
     72.8700	 1090.00	  891.76	-1631.51	  402.08
     72.9700	  990.00	  785.24	-1624.99	  402.20
     73.0700	  832.00	  707.85	-1705.60	  402.32
     73.1700	  806.00	  654.08	-1677.83	  402.44
     73.2700	  788.00	  617.97	-1659.72	  402.56
     73.3700	  666.00	  594.19	-1757.94	  402.67
     73.4700	  704.00	  578.57	-1704.32	  402.79
     73.5700	  632.00	  568.22	-1765.97	  402.91
     73.6700	  587.00	  561.26	-1804.01	  403.02
     73.7700	  580.00	  556.55	-1806.30	  403.14
     73.8700	  588.00	  553.45	-1795.20	  403.25
     73.9700	  549.00	  551.57	-1832.32	  403.36
     74.0700	  602.00	  550.70	-1778.45	  403.47
     74.1700	  569.00	  550.65	-1811.40	  403.58
     74.2700	  599.00	  551.24	-1781.99	  403.69
     74.3700	  590.00	  552.24	-1791.99	  403.80
     74.4700	  614.00	  553.38	-1769.13	  403.90
     74.5700	  600.00	  554.32	-1784.07	  404.01
     74.6700	  669.00	  554.71	-1715.46	  404.12
     74.7700	  626.00	  554.32	-1758.07	  404.22
     74.8700	  646.00	  553.07	-1736.82	  404.32
     74.9700	  593.00	  551.11	-1787.86	  404.42
     75.0700	  673.00	  548.83	-1705.58	  404.52
     75.1700	  569.00	  546.58	-1807.33	  404.62
     75.2700	  588.00	  544.72	-1786.47	  404.72
     75.3700	  509.00	  543.59	-1864.34	  404.82
     75.4700	  516.00	  543.68	-1857.43	  404.91
     75.5700	  513.00	  545.36	-1862.11	  405.01
     75.6700	  529.00	  549.01	-1849.76	  405.10
     75.7700	  554.00	  555.33	-1831.08	  405.20
     75.8700	  562.00	  564.69	-1832.44	  405.29
     75.9700	  561.00	  577.36	-1846.11	  405.38
     76.0700	  607.00	  593.32	-1816.07	  405.47
     76.1700	  618.00	  612.07	-1823.82	  405.55
     76.2700	  627.00	  632.48	-1835.23	  405.64
     76.3700	  666.00	  652.82	-1816.57	  405.73
     76.4700	  672.00	  670.79	-1828.54	  405.81
     76.5700	  730.00	  683.77	-1783.52	  405.89
     76.6700	  737.00	  689.44	-1782.19	  405.97
     76.7700	  652.00	  686.60	-1864.35	  406.06
     76.8700	  704.00	  675.83	-1801.58	  406.13
     76.9700	  636.00	  659.16	-1852.91	  406.21
     77.0700	  662.00	  638.99	-1806.74	  406.29
     77.1700	  555.00	  618.14	-1892.89	  406.36
     77.2700	  553.00	  598.36	-1875.11	  406.44
     77.3700	  556.00	  580.97	-1854.72	  406.51
     77.4700	  549.00	  566.65	-1847.40	  406.58
     77.5700	  504.00	  555.53	-1881.28	  406.65
     77.6700	  554.00	  547.34	-1823.09	  406.72
     77.7700	  487.00	  541.61	-1884.36	  406.79
     77.8700	  522.00	  537.77	-1845.52	  406.85
     77.9700	  513.00	  535.28	-1852.03	  406.92
     78.0700	  520.00	  533.71	-1843.46	  406.98
     78.1700	  500.00	  532.74	-1862.49	  407.04
     78.2700	  543.00	  532.15	-1818.90	  407.10
     78.3700	  464.00	  531.79	-1897.54	  407.16
     78.4700	  557.00	  531.58	-1804.33	  407.22
     78.5700	  540.00	  531.49	-1821.24	  407.27
     78.6700	  539.00	  531.48	-1822.23	  407.33
     78.7700	  514.00	  531.55	-1847.30	  407.38
     78.8700	  509.00	  531.71	-1852.46	  407.43
     78.9700	  500.00	  531.99	-1861.74	  407.48
     79.0700	  512.00	  532.40	-1850.15	  407.53
     79.1700	  477.00	  532.99	-1885.74	  407.58
     79.2700	  498.00	  533.81	-1865.56	  407.63
     79.3700	  497.00	  534.76	-1867.51	  407.67
     79.4700	  524.00	  536.25	-1842.00	  407.71
     79.5700	  519.00	  538.20	-1848.95	  407.75
     79.6700	  506.00	  540.70	-1864.45	  407.79
     79.7700	  524.00	  543.88	-1849.63	  407.83
     79.8700	  552.00	  547.87	-1825.62	  407.87
     79.9700	  527.00	  552.84	-1855.59	  407.90
     80.0700	  524.00	  559.00	-1864.75	  407.94
     80.1700	  542.00	  566.58	-1854.33	  407.97
     80.2700	  553.00	  575.86	-1852.60	  408.00
     80.3700	  559.00	  587.08	-1857.83	  408.03
     80.4700	  575.00	  600.45	-1855.20	  408.06
     80.5700	  582.00	  615.94	-1863.69	  408.08
     80.6700	  569.00	  633.27	-1894.02	  408.11
     80.7700	  617.00	  651.78	-1864.53	  408.13
     80.8700	  607.00	  670.40	-1893.15	  408.15
     80.9700	  665.00	  687.75	-1852.50	  408.17
     81.0700	  667.00	  702.34	-1865.09	  408.19
     81.1700	  702.00	  712.88	-1840.63	  408.20
     81.2700	  742.00	  718.50	-1806.25	  408.22
     81.3700	  747.00	  718.81	-1801.56	  408.23
     81.4700	  780.00	  713.89	-1763.64	  408.24
     81.5700	  742.00	  704.34	-1792.09	  408.25
     81.6700	  757.00	  691.16	-1763.91	  408.26
     81.7700	  779.00	  675.49	-1726.24	  408.26
     81.8700	  728.00	  658.43	-1760.18	  408.27
     81.9700	  687.00	  640.95	-1783.70	  408.27
     82.0700	  702.00	  624.02	-1751.77	  408.27
     82.1700	  645.00	  608.33	-1793.08	  408.27
     82.2700	  650.00	  594.33	-1774.08	  408.27
     82.3700	  663.00	  582.25	-1749.00	  408.26
     82.4700	  607.00	  572.12	-1794.87	  408.26
     82.5700	  557.00	  563.86	-1836.61	  408.25
     82.6700	  520.00	  557.38	-1867.13	  408.24
     82.7700	  553.00	  552.52	-1829.27	  408.23
     82.8700	  545.00	  549.17	-1833.92	  408.22
     82.9700	  567.00	  547.21	-1809.96	  408.20
     83.0700	  553.00	  546.55	-1823.30	  408.19
     83.1700	  528.00	  547.14	-1848.89	  408.17
     83.2700	  547.00	  548.90	-1831.65	  408.15
     83.3700	  561.00	  551.74	-1820.49	  408.13
     83.4700	  544.00	  555.53	-1841.28	  408.11
     83.5700	  557.00	  560.03	-1832.78	  408.08
     83.6700	  547.00	  564.95	-1847.70	  408.05
     83.7700	  503.00	  569.88	-1896.63	  408.03
     83.8700	  546.00	  574.33	-1858.08	  408.00
     83.9700	  529.00	  577.77	-1878.52	  407.96
     84.0700	  569.00	  579.68	-1840.43	  407.93
     84.1700	  559.00	  579.73	-1850.48	  407.89
     84.2700	  559.00	  577.87	-1848.62	  407.86
     84.3700	  531.00	  574.37	-1873.12	  407.82
     84.4700	  526.00	  569.68	-1873.43	  407.78
     84.5700	  565.00	  564.32	-1829.07	  407.73
     84.6700	  535.00	  558.76	-1853.51	  407.69
     84.7700	  513.00	  553.39	-1870.14	  407.64
     84.8700	  543.00	  548.51	-1835.26	  407.59
     84.9700	  500.00	  544.28	-1874.03	  407.54
     85.0700	  527.00	  540.80	-1843.55	  407.49
     85.1700	  517.00	  538.08	-1850.83	  407.44
     85.2700	  501.00	  536.08	-1864.83	  407.38
     85.3700	  511.00	  534.71	-1853.46	  407.32
     85.4700	  529.00	  533.89	-1834.64	  407.27
     85.5700	  495.00	  533.52	-1868.27	  407.20
     85.6700	  525.00	  533.55	-1838.30	  407.14
     85.7700	  533.00	  533.91	-1830.66	  407.08
     85.8700	  501.00	  534.56	-1863.31	  407.01
     85.9700	  500.00	  535.49	-1865.24	  406.94
     86.0700	  497.00	  536.70	-1869.45	  406.87
     86.1700	  523.00	  538.23	-1844.98	  406.80
     86.2700	  521.00	  540.11	-1848.86	  406.72
     86.3700	  493.00	  542.41	-1879.16	  406.65
     86.4700	  520.00	  545.24	-1854.99	  406.57
     86.5700	  576.00	  548.68	-1802.43	  406.49
     86.6700	  554.00	  552.86	-1828.61	  406.41
     86.7700	  543.00	  557.54	-1844.29	  406.32
     86.8700	  590.00	  563.32	-1803.07	  406.24
     86.9700	  542.00	  569.77	-1857.52	  406.15
     87.0700	  592.00	  576.65	-1814.40	  406.06
     87.1700	  584.00	  583.57	-1829.32	  405.97
     87.2700	  669.00	  590.00	-1750.75	  405.88
     87.3700	  691.00	  595.36	-1734.11	  405.78
     87.4700	  595.00	  599.05	-1833.80	  405.69
     87.5700	  658.00	  600.57	-1772.32	  405.59
     87.6700	  618.00	  599.69	-1811.44	  405.49
     87.7700	  635.00	  596.54	-1791.29	  405.39
     87.8700	  597.00	  591.59	-1824.34	  405.28
     87.9700	  611.00	  585.49	-1804.24	  405.18
     88.0700	  635.00	  578.99	-1773.74	  405.07
     88.1700	  558.00	  572.76	-1844.51	  404.96
     88.2700	  586.00	  567.41	-1811.16	  404.85
     88.3700	  542.00	  563.43	-1851.18	  404.73
     88.4700	  570.00	  561.13	-1820.88	  404.62
     88.5700	  556.00	  560.72	-1834.47	  404.50
     88.6700	  548.00	  562.20	-1843.95	  404.38
     88.7700	  589.00	  565.45	-1806.20	  404.26
     88.8700	  613.00	  570.21	-1786.96	  404.14
     88.9700	  570.00	  576.09	-1835.84	  404.01
     89.0700	  606.00	  582.58	-1806.33	  403.88
     89.1700	  613.00	  589.10	-1805.85	  403.75
     89.2700	  616.00	  594.99	-1808.74	  403.62
     89.3700	  626.00	  599.57	-1803.32	  403.49
     89.4700	  594.00	  602.25	-1838.00	  403.36
     89.5700	  589.00	  602.63	-1843.38	  403.22
     89.6700	  614.00	  600.61	-1816.36	  403.08
     89.7700	  558.00	  596.44	-1868.19	  402.94
     89.8700	  594.00	  590.60	-1826.35	  402.80
     89.9700	  556.00	  583.67	-1857.42	  402.66
     90.0700	  545.00	  576.22	-1860.97	  402.51
     90.1700	  556.00	  568.77	-1842.52	  402.36
     90.2700	  563.00	  561.70	-1828.45	  402.21
     90.3700	  509.00	  555.32	-1876.07	  402.06
     90.4700	  551.00	  549.80	-1828.55	  401.91
     90.5700	  522.00	  545.23	-1852.98	  401.76
     90.6700	  524.00	  541.58	-1847.33	  401.60
     90.7700	  520.00	  538.80	-1848.55	  401.44
     90.8700	  534.00	  536.79	-1832.54	  401.28
     90.9700	  492.00	  535.43	-1873.18	  401.12
     91.0700	  473.00	  534.62	-1891.37	  400.95
     91.1700	  480.00	  534.26	-1884.01	  400.79
     91.2700	  524.00	  534.31	-1840.06	  400.62
     91.3700	  495.00	  534.76	-1869.51	  400.45
     91.4700	  481.00	  535.61	-1884.36	  400.28
     91.5700	  485.00	  536.95	-1881.70	  400.10
     91.6700	  517.00	  538.87	-1851.62	  399.93
     91.7700	  558.00	  541.52	-1813.27	  399.75
     91.8700	  528.00	  544.86	-1846.61	  399.57
     91.9700	  520.00	  549.52	-1859.27	  399.39
     92.0700	  534.00	  555.46	-1851.21	  399.21
     92.1700	  558.00	  562.86	-1834.61	  399.03
     92.2700	  560.00	  571.84	-1841.59	  398.84
     92.3700	  593.00	  582.44	-1819.19	  398.65
     92.4700	  588.00	  594.61	-1836.36	  398.46
     92.5700	  579.00	  608.19	-1858.94	  398.27
     92.6700	  629.00	  622.86	-1823.61	  398.08
     92.7700	  667.00	  638.21	-1800.96	  397.88
     92.8700	  662.00	  653.71	-1821.46	  397.69
     92.9700	  720.00	  668.73	-1778.48	  397.49
     93.0700	  732.00	  682.64	-1780.39	  397.29
     93.1700	  742.00	  694.91	-1782.66	  397.09
     93.2700	  764.00	  705.30	-1771.05	  396.88
     93.3700	  804.00	  713.92	-1739.67	  396.68
     93.4700	  814.00	  721.27	-1737.02	  396.47
     93.5700	  783.00	  728.05	-1774.80	  396.26
     93.6700	  822.00	  735.05	-1742.80	  396.05
     93.7700	  858.00	  742.99	-1714.74	  395.84
     93.8700	  844.00	  752.49	-1738.24	  395.62
     93.9700	  840.00	  763.99	-1753.74	  395.41
     94.0700	  829.00	  777.86	-1778.61	  395.19
     94.1700	  867.00	  794.26	-1757.01	  394.97
     94.2700	  893.00	  813.14	-1749.89	  394.75
     94.3700	  848.00	  834.08	-1815.83	  394.53
     94.4700	  904.00	  856.27	-1782.02	  394.30
     94.5700	  877.00	  878.41	-1831.16	  394.08
     94.6700	  864.00	  898.85	-1864.60	  393.85
     94.7700	  890.00	  915.63	-1855.38	  393.62
     94.8700	  917.00	  926.74	-1839.49	  393.39
     94.9700	  910.00	  930.45	-1850.20	  393.16
     95.0700	  860.00	  925.78	-1895.53	  392.93
     95.1700	  894.00	  912.77	-1848.52	  392.69
     95.2700	  916.00	  892.46	-1806.21	  392.45
     95.3700	  880.00	  866.60	-1816.35	  392.21
     95.4700	  807.00	  837.31	-1860.06	  391.97
     95.5700	  789.00	  806.75	-1847.50	  391.73
     95.6700	  760.00	  776.98	-1846.73	  391.49
     95.7700	  691.00	  749.87	-1888.62	  391.24
     95.8700	  764.00	  727.10	-1792.85	  391.00
     95.9700	  681.00	  710.17	-1858.92	  390.75
     96.0700	  696.00	  700.39	-1834.14	  390.50
     96.1700	  690.00	  698.92	-1838.67	  390.25
     96.2700	  696.00	  706.73	-1840.48	  390.00
     96.3700	  716.00	  724.61	-1838.36	  389.74
     96.4700	  757.00	  753.14	-1825.89	  389.49
     96.5700	  766.00	  792.55	-1856.30	  389.23
     96.6700	  880.00	  842.67	-1792.42	  388.97
     96.7700	  877.00	  902.81	-1855.56	  388.71
     96.8700	  972.00	  971.66	-1829.41	  388.45
     96.9700	 1059.00	 1047.17	-1817.92	  388.19
     97.0700	 1112.00	 1126.56	-1844.31	  387.93
     97.1700	 1157.00	 1206.33	-1879.08	  387.66
     97.2700	 1306.00	 1282.35	-1806.10	  387.39
     97.3700	 1336.00	 1350.03	-1843.78	  387.13
     97.4700	 1475.00	 1404.64	-1759.39	  386.86
     97.5700	 1332.00	 1441.93	-1939.68	  386.59
     97.6700	 1424.00	 1458.78	-1864.53	  386.31
     97.7700	 1525.00	 1453.98	-1758.73	  386.04
     97.8700	 1392.00	 1428.39	-1866.14	  385.77
     97.9700	 1359.00	 1384.73	-1855.48	  385.49
     98.0700	 1354.00	 1327.00	-1802.75	  385.21
     98.1700	 1198.00	 1259.67	-1891.42	  384.93
     98.2700	 1089.00	 1187.27	-1928.02	  384.65
     98.3700	 1149.00	 1114.03	-1794.78	  384.37
     98.4700	 1008.00	 1043.72	-1865.47	  384.09
     98.5700	  970.00	  979.52	-1839.27	  383.81
     98.6700	  899.00	  923.98	-1854.73	  383.52
     98.7700	  890.00	  879.07	-1818.82	  383.24
     98.8700	  804.00	  846.23	-1871.98	  382.95
     98.9700	  805.00	  826.52	-1851.27	  382.66
     99.0700	  793.00	  820.61	-1857.36	  382.37
     99.1700	  781.00	  828.97	-1877.72	  382.08
     99.2700	  804.00	  851.79	-1877.54	  381.79
     99.3700	  810.00	  889.10	-1908.85	  381.50
     99.4700	  843.00	  940.70	-1927.45	  381.20
     99.5700	 1012.00	 1006.11	-1823.86	  380.91
     99.6700	 1032.00	 1084.57	-1882.32	  380.61
     99.7700	 1097.00	 1174.80	-1907.55	  380.32
     99.8700	 1200.00	 1275.05	-1904.80	  380.02
     99.9700	 1379.00	 1382.87	-1833.62	  379.72
    100.0700	 1442.00	 1495.18	-1882.93	  379.42
    100.1700	 1583.00	 1608.22	-1854.97	  379.12
    100.2700	 1746.00	 1717.66	-1801.41	  378.82
    100.3700	 1873.00	 1818.99	-1775.74	  378.52
    100.4700	 1863.00	 1908.03	-1874.78	  378.21
    100.5700	 2111.00	 1981.34	-1700.09	  377.91
    100.6700	 2062.00	 2036.47	-1804.22	  377.60
    100.7700	 2206.00	 2071.78	-1695.53	  377.30
    100.8700	 2185.00	 2086.24	-1730.99	  376.99
    100.9700	 2158.00	 2079.26	-1751.01	  376.68
    101.0700	 2053.00	 2050.87	-1827.62	  376.37
    101.1700	 2122.00	 2002.04	-1709.79	  376.06
    101.2700	 1983.00	 1935.09	-1781.84	  375.75
    101.3700	 1914.00	 1853.72	-1769.47	  375.44
    101.4700	 1820.00	 1762.66	-1772.41	  375.13
    101.5700	 1678.00	 1667.04	-1818.79	  374.82
    101.6700	 1601.00	 1571.82	-1800.57	  374.50
    101.7700	 1445.00	 1481.31	-1866.06	  374.19
    101.8700	 1444.00	 1398.89	-1784.64	  373.88
    101.9700	 1321.00	 1326.89	-1835.64	  373.56
    102.0700	 1276.00	 1266.47	-1820.22	  373.24
    102.1700	 1227.00	 1217.71	-1820.46	  372.93
    102.2700	 1226.00	 1179.71	-1783.46	  372.61
    102.3700	 1143.00	 1150.69	-1837.44	  372.29
    102.4700	 1123.00	 1128.22	-1834.97	  371.98
    102.5700	 1134.00	 1109.50	-1805.25	  371.66
    102.6700	 1133.00	 1091.64	-1788.39	  371.34
    102.7700	 1084.00	 1072.12	-1817.87	  371.02
    102.8700	 1009.00	 1049.03	-1869.78	  370.70
    102.9700	  980.00	 1021.38	-1871.12	  370.38
    103.0700	  925.00	  989.01	-1893.76	  370.06
    103.1700	  943.00	  952.51	-1839.26	  369.74
    103.2700	  910.00	  912.93	-1832.68	  369.42
    103.3700	  849.00	  871.55	-1852.30	  369.09
    103.4700	  773.00	  829.71	-1886.46	  368.77
    103.5700	  837.00	  788.67	-1781.42	  368.45
    103.6700	  754.00	  749.53	-1825.28	  368.13
    103.7700	  714.00	  713.20	-1828.95	  367.80
    103.8700	  702.00	  680.34	-1808.09	  367.48
    103.9700	  656.00	  651.37	-1825.12	  367.16
    104.0700	  646.00	  626.46	-1810.21	  366.83
    104.1700	  627.00	  605.58	-1808.33	  366.51
    104.2700	  619.00	  588.57	-1799.32	  366.19
    104.3700	  552.00	  575.11	-1852.86	  365.86
    104.4700	  564.00	  564.82	-1830.57	  365.54
    104.5700	  555.00	  557.31	-1832.06	  365.22
    104.6700	  586.00	  552.14	-1795.89	  364.89
    104.7700	  534.00	  548.94	-1844.69	  364.57
    104.8700	  539.00	  547.35	-1838.10	  364.24
    104.9700	  542.00	  547.03	-1834.78	  363.92
    105.0700	  519.00	  547.71	-1858.46	  363.60
    105.1700	  508.00	  549.18	-1870.93	  363.27
    105.2700	  543.00	  551.24	-1837.99	  362.95
    105.3700	  560.00	  553.72	-1823.47	  362.63
    105.4700	  535.00	  556.55	-1851.30	  362.30
    105.5700	  521.00	  559.64	-1868.39	  361.98
    105.6700	  557.00	  562.97	-1835.72	  361.66
    105.7700	  541.00	  566.57	-1855.32	  361.33
    105.8700	  513.00	  570.52	-1887.27	  361.01
    105.9700	  573.00	  574.92	-1831.67	  360.69
    106.0700	  579.00	  579.91	-1830.66	  360.37
    106.1700	  580.00	  585.62	-1835.37	  360.05
    106.2700	  535.00	  592.14	-1886.89	  359.73
    106.3700	  596.00	  599.51	-1833.26	  359.40
    106.4700	  616.00	  607.72	-1821.47	  359.08
    106.5700	  598.00	  616.67	-1848.42	  358.77
    106.6700	  559.00	  626.19	-1896.94	  358.45
    106.7700	  614.00	  636.01	-1851.76	  358.13
    106.8700	  637.00	  645.82	-1838.57	  357.81
    106.9700	  589.00	  655.24	-1895.99	  357.49
    107.0700	  652.00	  663.85	-1841.60	  357.18
    107.1700	  694.00	  671.23	-1806.98	  356.86
    107.2700	  644.00	  677.04	-1862.79	  356.54
    107.3700	  728.00	  681.00	-1782.75	  356.23
    107.4700	  654.00	  683.05	-1858.80	  355.92
    107.5700	  621.00	  683.26	-1892.01	  355.60
    107.6700	  692.00	  681.93	-1819.68	  355.29
    107.7700	  636.00	  679.46	-1873.21	  354.98
    107.8700	  673.00	  676.32	-1833.07	  354.67
    107.9700	  659.00	  673.01	-1843.76	  354.36
    108.0700	  668.00	  669.94	-1831.69	  354.05
    108.1700	  631.00	  667.48	-1866.23	  353.74
    108.2700	  666.00	  665.85	-1829.60	  353.44
    108.3700	  696.00	  665.17	-1798.92	  353.13
    108.4700	  730.00	  665.42	-1765.17	  352.83
    108.5700	  664.00	  666.46	-1832.21	  352.52
    108.6700	  637.00	  668.03	-1860.78	  352.22
    108.7700	  673.00	  669.77	-1826.52	  351.92
    108.8700	  702.00	  671.28	-1799.03	  351.62
    108.9700	  689.00	  672.09	-1812.84	  351.32
    109.0700	  711.00	  671.80	-1790.55	  351.02
    109.1700	  674.00	  670.04	-1825.79	  350.72
    109.2700	  651.00	  666.61	-1845.36	  350.43
    109.3700	  683.00	  661.42	-1808.17	  350.14
    109.4700	  681.00	  654.55	-1803.30	  349.84
    109.5700	  648.00	  646.22	-1827.97	  349.55
    109.6700	  628.00	  636.72	-1838.47	  349.26
    109.7700	  596.00	  626.41	-1860.16	  348.98
    109.8700	  566.00	  615.65	-1879.40	  348.69
    109.9700	  583.00	  604.79	-1851.54	  348.41
    110.0700	  617.00	  594.15	-1806.90	  348.12
    110.1700	  578.00	  584.02	-1835.77	  347.84
    110.2700	  604.00	  574.63	-1800.38	  347.56
    110.3700	  564.00	  566.14	-1831.89	  347.28
    110.4700	  586.00	  558.67	-1802.42	  347.01
    110.5700	  581.00	  552.28	-1801.03	  346.73
    110.6700	  538.00	  546.97	-1838.72	  346.46
    110.7700	  530.00	  542.73	-1842.48	  346.19
    110.8700	  517.00	  539.47	-1852.22	  345.92
    110.9700	  525.00	  537.13	-1841.88	  345.65
    111.0700	  511.00	  535.60	-1854.35	  345.39
    111.1700	  511.00	  534.79	-1853.54	  345.13
    111.2700	  531.00	  534.61	-1833.36	  344.87
    111.3700	  502.00	  534.95	-1862.70	  344.61
    111.4700	  535.00	  535.75	-1830.50	  344.35
    111.5700	  559.00	  536.94	-1807.69	  344.10
    111.6700	  517.00	  538.45	-1851.20	  343.84
    111.7700	  528.00	  540.26	-1842.01	  343.59
    111.8700	  510.00	  542.32	-1862.07	  343.35
    111.9700	  560.00	  544.62	-1814.37	  343.10
    112.0700	  506.00	  547.14	-1870.89	  342.86
    112.1700	  579.00	  549.90	-1800.65	  342.62
    112.2700	  539.00	  552.88	-1843.63	  342.38
    112.3700	  595.00	  556.12	-1790.87	  342.14
    112.4700	  577.00	  559.64	-1812.39	  341.91
    112.5700	  546.00	  563.47	-1847.22	  341.68
    112.6700	  574.00	  567.67	-1823.42	  341.45
    112.7700	  594.00	  572.29	-1808.04	  341.23
    112.8700	  641.00	  577.42	-1766.17	  341.01
    112.9700	  613.00	  583.17	-1799.92	  340.79
    113.0700	  698.00	  589.66	-1721.41	  340.57
    113.1700	  717.00	  597.09	-1709.84	  340.36
    113.2700	  669.00	  605.70	-1766.45	  340.15
    113.3700	  756.00	  615.77	-1689.52	  339.94
    113.4700	  721.00	  627.69	-1736.44	  339.73
    113.5700	  757.00	  641.95	-1714.70	  339.53
    113.6700	  863.00	  659.16	-1625.91	  339.33
    113.7700	  855.00	  680.06	-1654.81	  339.14
    113.8700	  902.00	  705.59	-1633.34	  338.94
    113.9700	  965.00	  736.84	-1601.59	  338.75
    114.0700	  960.00	  775.13	-1644.88	  338.57
    114.1700	 1046.00	  821.99	-1605.74	  338.38
    114.2700	 1106.00	  879.17	-1602.92	  338.20
    114.3700	 1142.00	  948.60	-1636.35	  338.03
    114.4700	 1182.00	 1032.43	-1680.18	  337.86
    114.5700	 1363.00	 1132.93	-1599.68	  337.69
    114.6700	 1462.00	 1252.49	-1620.24	  337.52
    114.7700	 1565.00	 1393.43	-1658.18	  337.36
    114.8700	 1662.00	 1558.00	-1725.75	  337.20
    114.9700	 1911.00	 1748.17	-1666.92	  337.04
    115.0700	 2103.00	 1965.57	-1692.32	  336.89
    115.1700	 2305.00	 2211.33	-1736.08	  336.74
    115.2700	 2608.00	 2485.81	-1707.56	  336.60
    115.3700	 2862.00	 2788.54	-1756.29	  336.46
    115.4700	 2954.00	 3118.05	-1993.80	  336.32
    115.5700	 3411.00	 3471.85	-1890.60	  336.19
    115.6700	 3742.00	 3846.29	-1934.04	  336.06
    115.7700	 3990.00	 4236.38	-2076.13	  335.94
    115.8700	 4289.00	 4635.96	-2176.71	  335.82
    115.9700	 4672.00	 5037.57	-2195.32	  335.71
    116.0700	 5178.00	 5432.72	-2084.47	  335.59
    116.1700	 5516.00	 5811.89	-2125.64	  335.49
    116.2700	 5975.00	 6164.58	-2019.33	  335.38
    116.3700	 6192.00	 6479.86	-2117.61	  335.28
    116.4700	 6690.00	 6746.72	-1886.47	  335.19
    116.5700	 6812.00	 6954.94	-1972.69	  335.10
    116.6700	 7135.00	 7095.82	-1790.57	  335.01
    116.7700	 7203.00	 7163.04	-1789.79	  334.93
    116.8700	 7319.00	 7153.61	-1664.36	  334.86
    116.9700	 7194.00	 7068.17	-1703.92	  334.79
    117.0700	 6962.00	 6910.97	-1778.72	  334.72
    117.1700	 6852.00	 6689.16	-1666.91	  334.66
    117.2700	 6548.00	 6412.13	-1693.88	  334.60
    117.3700	 6130.00	 6090.48	-1790.23	  334.55
    117.4700	 5806.00	 5735.24	-1758.99	  334.50
    117.5700	 5299.00	 5357.10	-1887.85	  334.46
    117.6700	 4990.00	 4966.09	-1805.84	  334.42
    117.7700	 4589.00	 4571.40	-1812.15	  334.39
    117.8700	 4302.00	 4181.08	-1708.83	  334.36
    117.9700	 3996.00	 3802.00	-1635.75	  334.34
    118.0700	 3649.00	 3439.69	-1620.44	  334.32
    118.1700	 3216.00	 3098.44	-1712.19	  334.31
    118.2700	 2899.00	 2781.43	-1712.18	  334.30
    118.3700	 2503.00	 2490.70	-1817.45	  334.30
    118.4700	 2198.00	 2227.28	-1859.03	  334.31
    118.5700	 1935.00	 1991.25	-1886.00	  334.32
    118.6700	 1703.00	 1781.98	-1908.73	  334.33
    118.7700	 1497.00	 1598.30	-1931.05	  334.36
    118.8700	 1273.00	 1438.58	-1995.33	  334.38
    118.9700	 1186.00	 1300.91	-1944.66	  334.42
    119.0700	 1103.00	 1183.14	-1909.89	  334.46
    119.1700	  996.00	 1083.07	-1916.82	  334.50
    119.2700	  877.00	  998.58	-1951.33	  334.55
    119.3700	  834.00	  927.58	-1923.33	  334.61
    119.4700	  793.00	  868.16	-1904.91	  334.67
    119.5700	  789.00	  818.58	-1859.33	  334.74
    119.6700	  711.00	  777.27	-1896.02	  334.81
    119.7700	  692.00	  742.89	-1880.64	  334.90
    119.8700	  652.00	  714.28	-1892.03	  334.98
    119.9700	  602.00	  690.45	-1918.20	  335.08
    120.0700	  590.00	  670.58	-1910.33	  335.18
    120.1700	  579.00	  653.99	-1904.74	  335.28
    120.2700	  598.00	  640.13	-1871.88	  335.40
    120.3700	  574.00	  628.53	-1884.28	  335.52
    120.4700	  552.00	  618.84	-1896.59	  335.64
    120.5700	  559.00	  610.76	-1881.51	  335.78
    120.6700	  599.00	  604.06	-1834.81	  335.92
    120.7700	  575.00	  598.56	-1853.31	  336.06
    120.8700	  554.00	  594.11	-1869.86	  336.22
    120.9700	  579.00	  590.61	-1841.36	  336.38
    121.0700	  532.00	  587.97	-1885.72	  336.55
    121.1700	  553.00	  586.11	-1862.86	  336.72
    121.2700	  567.00	  584.98	-1847.73	  336.90
    121.3700	  522.00	  584.54	-1892.29	  337.09
    121.4700	  579.00	  584.75	-1835.50	  337.29
    121.5700	  555.00	  585.55	-1860.30	  337.49
    121.6700	  587.00	  586.90	-1829.65	  337.70
    121.7700	  600.00	  588.75	-1818.50	  337.92
    121.8700	  557.00	  591.04	-1863.79	  338.15
    121.9700	  557.00	  593.72	-1866.47	  338.38
    122.0700	  592.00	  596.70	-1834.45	  338.62
    122.1700	  604.00	  599.90	-1825.65	  338.87
    122.2700	  585.00	  603.22	-1847.97	  339.13
    122.3700	  589.00	  606.55	-1847.30	  339.40
    122.4700	  626.00	  609.81	-1813.56	  339.67
    122.5700	  595.00	  612.87	-1847.62	  339.95
    122.6700	  630.00	  615.61	-1815.36	  340.24
    122.7700	  619.00	  617.94	-1828.69	  340.54
    122.8700	  625.00	  619.75	-1824.50	  340.84
    122.9700	  635.00	  620.97	-1815.72	  341.16
    123.0700	  679.00	  621.55	-1772.30	  341.48
    123.1700	  608.00	  621.45	-1843.20	  341.81
    123.2700	  675.00	  620.69	-1775.44	  342.15
    123.3700	  652.00	  619.30	-1797.05	  342.49
    123.4700	  616.00	  617.31	-1831.06	  342.85
    123.5700	  638.00	  614.81	-1806.56	  343.22
    123.6700	  671.00	  611.86	-1770.61	  343.59
    123.7700	  670.00	  608.55	-1768.30	  343.97
    123.8700	  608.00	  604.95	-1826.70	  344.36
    123.9700	  566.00	  601.16	-1864.91	  344.76
    124.0700	  629.00	  597.24	-1797.99	  345.17
    124.1700	  620.00	  593.27	-1803.02	  345.59
    124.2700	  606.00	  589.32	-1813.07	  346.02
    124.3700	  617.00	  585.43	-1798.18	  346.46
    124.4700	  598.00	  581.67	-1813.42	  346.90
    124.5700	  616.00	  578.06	-1791.81	  347.36
    124.6700	  584.00	  574.65	-1820.40	  347.82
    124.7700	  639.00	  571.44	-1762.19	  348.30
    124.8700	  568.00	  568.48	-1830.23	  348.78
    124.9700	  591.00	  460.71	-1699.46	  349.28
    125.0700	  606.00	  461.22	-1829.75	  349.78
    125.1700	  583.00	  461.73	-1829.75	  350.30
    125.2700	  583.00	  462.25	-1829.75	  350.82
    125.3700	  582.00	  462.79	-1829.75	  351.35
    125.4700	  621.00	  463.33	-1829.75	  351.90
    125.5700	  634.00	  463.89	-1829.75	  352.45
    125.6700	  606.00	  464.45	-1829.75	  353.02
    125.7700	  577.00	  465.03	-1829.75	  353.59
    125.8700	  586.00	  465.61	-1829.75	  354.18
    125.9700	  546.00	  466.21	-1829.75	  354.77
    126.0700	  554.00	  466.81	-1829.75	  355.38
    126.1700	  575.00	  467.43	-1829.75	  355.99
    126.2700	  517.00	  468.06	-1829.75	  356.62
    126.3700	  563.00	  468.69	-1829.75	  357.26
    126.4700	  600.00	  469.34	-1829.75	  357.91
    126.5700	  581.00	  470.00	-1829.75	  358.57
    126.6700	  556.00	  470.68	-1829.75	  359.24
    126.7700	  586.00	  471.36	-1829.75	  359.92
    126.8700	  587.00	  472.05	-1829.75	  360.62
    126.9700	  599.00	  472.76	-1829.75	  361.32
    127.0700	  587.00	  473.47	-1829.75	  362.04
    127.1700	  639.00	  474.20	-1829.75	  362.76
    127.2700	  623.00	  474.94	-1829.75	  363.50
    127.3700	  592.00	  475.69	-1829.75	  364.25
    127.4700	  611.00	  476.45	-1829.75	  365.02
    127.5700	  609.00	  477.22	-1829.75	  365.79
    127.6700	  624.00	  478.01	-1829.75	  366.58
    127.7700	  643.00	  478.81	-1829.75	  367.37
    127.8700	  679.00	  479.62	-1829.75	  368.18
    127.9700	  676.00	  480.44	-1829.75	  369.00
    128.0700	  686.00	  481.27	-1829.75	  369.84
    128.1700	  734.00	  482.12	-1829.75	  370.68
    128.2700	  742.00	  482.98	-1829.75	  371.54
    128.3700	  761.00	  483.85	-1829.75	  372.41
    128.4700	  744.00	  484.73	-1829.75	  373.30
    128.5700	    0.00	  485.63	-1829.75	  374.19
    128.6700	    0.00	  486.54	-1829.75	  375.10
     12.3239	        	        	        	        	       0	(  0  0  2)	  0  1
     24.9230	        	        	        	        	       0	(  0  0  4)	  0  1
     28.3568	        	        	        	        	       0	(  1  0  0)	  0  1
     29.0552	        	        	        	        	       0	(  1  0  1)	  0  1
     31.0648	        	        	        	        	       0	(  1  0  2)	  0  1
     34.1782	        	        	        	        	       0	(  1  0  3)	  0  1
     37.8393	        	        	        	        	       0	(  0  0  6)	  0  1
     38.1616	        	        	        	        	       0	(  1  0  4)	  0  1
     42.8190	        	        	        	        	       0	(  1  0  5)	  0  1
     48.0112	        	        	        	        	       0	(  1  0  6)	  0  1
     50.3137	        	        	        	        	       0	(  1  1  0)	  0  1
     51.2800	        	        	        	        	       0	(  0  0  8)	  0  1
     52.0398	        	        	        	        	       0	(  1  1  2)	  0  1
     53.6507	        	        	        	        	       0	(  1  0  7)	  0  1
     56.9967	        	        	        	        	       0	(  1  1  4)	  0  1
     58.8193	        	        	        	        	       0	(  2  0  0)	  0  1
     59.2116	        	        	        	        	       0	(  2  0  1)	  0  1
     59.6910	        	        	        	        	       0	(  1  0  8)	  0  1
     60.3792	        	        	        	        	       0	(  2  0  2)	  0  1
     62.2961	        	        	        	        	       0	(  2  0  3)	  0  1
     64.7055	        	        	        	        	       0	(  1  1  6)	  0  1
     64.9252	        	        	        	        	       0	(  2  0  4)	  0  1
     65.5316	        	        	        	        	       0	(  0  0 10)	  0  1
     66.1183	        	        	        	        	       0	(  1  0  9)	  0  1
     68.2258	        	        	        	        	       0	(  2  0  5)	  0  1
     72.1611	        	        	        	        	       0	(  2  0  6)	  0  1
     72.9468	        	        	        	        	       0	(  1  0 10)	  0  1
     74.7626	        	        	        	        	       0	(  1  1  8)	  0  1
     76.7044	        	        	        	        	       0	(  2  0  7)	  0  1
     80.2188	        	        	        	        	       0	(  1  0 11)	  0  1
     81.0409	        	        	        	        	       0	(  0  0 12)	  0  1
     81.0873	        	        	        	        	       0	(  2  1  0)	  0  1
     81.4279	        	        	        	        	       0	(  2  1  1)	  0  1
     81.8456	        	        	        	        	       0	(  2  0  8)	  0  1
     82.4481	        	        	        	        	       0	(  2  1  2)	  0  1
     84.1432	        	        	        	        	       0	(  2  1  3)	  0  1
     86.5083	        	        	        	        	       0	(  2  1  4)	  0  1
     87.0602	        	        	        	        	       0	(  1  1 10)	  0  1
     87.5965	        	        	        	        	       0	(  2  0  9)	  0  1
     88.0102	        	        	        	        	       0	(  1  0 12)	  0  1
     89.5413	        	        	        	        	       0	(  2  1  5)	  0  1
     93.2478	        	        	        	        	       0	(  2  1  6)	  0  1
     93.9996	        	        	        	        	       0	(  2  0 10)	  0  1
     94.9979	        	        	        	        	       0	(  3  0  0)	  0  1
     95.3361	        	        	        	        	       0	(  3  0  1)	  0  1
     96.3519	        	        	        	        	       0	(  3  0  2)	  0  1
     96.4444	        	        	        	        	       0	(  1  0 13)	  0  1
     97.6479	        	        	        	        	       0	(  2  1  7)	  0  1
     98.0498	        	        	        	        	       0	(  3  0  3)	  0  1
     98.6225	        	        	        	        	       0	(  0  0 14)	  0  1
    100.4393	        	        	        	        	       0	(  3  0  4)	  0  1
    101.1409	        	        	        	        	       0	(  2  0 11)	  0  1
    101.9694	        	        	        	        	       0	(  1  1 12)	  0  1
    102.7848	        	        	        	        	       0	(  2  1  8)	  0  1
    103.5398	        	        	        	        	       0	(  3  0  5)	  0  1
    105.7246	        	        	        	        	       0	(  1  0 14)	  0  1
    107.3866	        	        	        	        	       0	(  3  0  6)	  0  1
    108.7401	        	        	        	        	       0	(  2  1  9)	  0  1
    109.1775	        	        	        	        	       0	(  2  0 12)	  0  1
    112.0423	        	        	        	        	       0	(  3  0  7)	  0  1
    115.6618	        	        	        	        	       0	(  2  1 10)	  0  1
    116.2071	        	        	        	        	       0	(  1  0 15)	  0  1
    116.7721	        	        	        	        	       0	(  2  2  0)	  0  1
    117.6164	        	        	        	        	       0	(  3  0  8)	  0  1
    118.2931	        	        	        	        	       0	(  2  2  2)	  0  1
    118.3976	        	        	        	        	       0	(  2  0 13)	  0  1
    120.1903	        	        	        	        	       0	(  0  0 16)	  0  1
    120.8843	        	        	        	        	       0	(  1  1 14)	  0  1
    122.9979	        	        	        	        	       0	(  2  2  4)	  0  1
    123.8244	        	        	        	        	       0	(  2  1 11)	  0  1
    124.3056	        	        	        	        	       0	(  3  0  9)	  0  1
    124.8642	        	        	        	        	       0	(  3  1  0)	  0  1
    125.2763	        	        	        	        	       0	(  3  1  1)	  0  1
    126.5256	        	        	        	        	       0	(  3  1  2)	  0  1
    128.6152	        	        	        	        	       0	(  1  0 16)	  0  1
    128.6544	        	        	        	        	       0	(  3  1  3)	  0  1
    129.3848	        	        	        	        	       0	(  2  0 14)	  0  1
    131.4804	        	        	        	        	       0	(  2  2  6)	  0  1
    131.7471	        	        	        	        	       0	(  3  1  4)	  0  1
    132.4916	        	        	        	        	       0	(  3  0 10)	  0  1
    133.7951	        	        	        	        	       0	(  2  1 12)	  0  1
    135.9602	        	        	        	        	       0	(  3  1  5)	  0  1
    141.5984	        	        	        	        	       0	(  3  1  6)	  0  1
    143.0554	        	        	        	        	       0	(  3  0 11)	  0  1
    143.6470	        	        	        	        	       0	(  2  0 15)	  0  1
    144.9362	        	        	        	        	       0	(  1  0 17)	  0  1
    145.8282	        	        	        	        	       0	(  2  2  8)	  0  1
    147.0789	        	        	        	        	       0	(  2  1 13)	  0  1
    149.3540	        	        	        	        	       0	(  3  1  7)	  0  1
    150.0855	        	        	        	        	       0	(  1  1 16)	  0  1
    154.6257	        	        	        	        	       0	(  0  0 18)	  0  1
    159.2198	        	        	        	        	       0	(  3  0 12)	  0  1
    159.3503	        	        	        	        	       0	(  4  0  0)	  0  1
    160.3334	        	        	        	        	       0	(  4  0  1)	  0  1
    161.6093	        	        	        	        	       0	(  3  1  8)	  0  1
    163.6216	        	        	        	        	       0	(  4  0  2)	  0  1
    171.3263	        	        	        	        	       0	(  2  0 16)	  0  1
    171.5344	        	        	        	        	       0	(  4  0  3)	  0  1
    177.7458	        	        	        	        	       0	(  2  1 14)	  0  1
