MSG Master    CELL:    5.91930   5.91930  23.27616   90.0000   90.0000  120.0000   SPGR: P 63/m m c             TEMP:   1074.85
  1   1280     2.52000     0.00000    -0.12731     0.00000     0.00000    0
    99     0     2
       0.00000      10.00000
     125.00000     130.00000
 2Theta	Yobs	Ycal	Yobs-Ycal	Backg	Posr	(hkl)	K
      0.7700	    0.00	  504.40	-1747.00	  386.03
      0.8700	    0.00	  505.59	-1747.00	  387.22
      0.9700	   48.00	  506.76	-1747.00	  388.39
      1.0700	   37.00	  507.92	-1747.00	  389.54
      1.1700	   39.00	  509.06	-1747.00	  390.68
      1.2700	   40.00	  510.19	-1747.00	  391.81
      1.3700	   52.00	  511.30	-1747.00	  392.93
      1.4700	   74.00	  512.40	-1747.00	  394.03
      1.5700	  265.00	  513.49	-1747.00	  395.11
      1.6700	  489.00	  514.56	-1747.00	  396.18
      1.7700	  541.00	  515.62	-1747.00	  397.24
      1.8700	  640.00	  516.66	-1747.00	  398.29
      1.9700	  672.00	  517.69	-1747.00	  399.32
      2.0700	  793.00	  518.71	-1747.00	  400.34
      2.1700	  778.00	  519.72	-1747.00	  401.34
      2.2700	  745.00	  520.71	-1747.00	  402.34
      2.3700	  744.00	  521.69	-1747.00	  403.31
      2.4700	  724.00	  522.65	-1747.00	  404.28
      2.5700	  681.00	  523.60	-1747.00	  405.23
      2.6700	  690.00	  524.54	-1747.00	  406.17
      2.7700	  635.00	  525.47	-1747.00	  407.10
      2.8700	  648.00	  526.39	-1747.00	  408.01
      2.9700	  616.00	  527.29	-1747.00	  408.91
      3.0700	  627.00	  528.18	-1747.00	  409.80
      3.1700	  587.00	  529.05	-1747.00	  410.68
      3.2700	  608.00	  529.92	-1747.00	  411.54
      3.3700	  691.00	  530.77	-1747.00	  412.39
      3.4700	  755.00	  531.61	-1747.00	  413.23
      3.5700	  832.00	  532.43	-1747.00	  414.06
      3.6700	  859.00	  533.25	-1747.00	  414.88
      3.7700	  946.00	  534.05	-1747.00	  415.68
      3.8700	 1014.00	  534.84	-1747.00	  416.47
      3.9700	  976.00	  535.62	-1747.00	  417.25
      4.0700	 1034.00	  536.39	-1747.00	  418.02
      4.1700	 1112.00	  537.15	-1747.00	  418.77
      4.2700	 1067.00	  537.89	-1747.00	  419.52
      4.3700	 1118.00	  538.63	-1747.00	  420.25
      4.4700	 1063.00	  539.35	-1747.00	  420.97
      4.5700	 1045.00	  540.06	-1747.00	  421.68
      4.6700	 1018.00	  540.76	-1747.00	  422.38
      4.7700	 1022.00	  541.45	-1747.00	  423.07
      4.8700	  950.00	  542.12	-1747.00	  423.75
      4.9700	 1027.00	  542.79	-1747.00	  424.41
      5.0700	  947.00	  543.44	-1747.00	  425.07
      5.1700	  932.00	  544.09	-1747.00	  425.71
      5.2700	  899.00	  544.72	-1747.00	  426.35
      5.3700	  882.00	  545.34	-1747.00	  426.97
      5.4700	  810.00	  545.96	-1747.00	  427.58
      5.5700	  909.00	  546.56	-1747.00	  428.18
      5.6700	  798.00	  547.15	-1747.00	  428.77
      5.7700	  807.00	  547.73	-1747.00	  429.36
      5.8700	  824.00	  548.30	-1747.00	  429.93
      5.9700	  803.00	  548.86	-1747.00	  430.49
      6.0700	  812.00	  549.41	-1747.00	  431.04
      6.1700	  827.00	  549.95	-1747.00	  431.58
      6.2700	  788.00	  550.48	-1747.00	  432.11
      6.3700	  741.00	  551.00	-1747.00	  432.63
      6.4700	  777.00	  551.51	-1747.00	  433.14
      6.5700	  701.00	  552.01	-1747.00	  433.64
      6.6700	  707.00	  552.50	-1747.00	  434.13
      6.7700	  700.00	  552.98	-1747.00	  434.61
      6.8700	  744.00	  553.45	-1747.00	  435.08
      6.9700	  708.00	  553.91	-1747.00	  435.54
      7.0700	  738.00	  554.37	-1747.00	  435.99
      7.1700	  665.00	  554.81	-1747.00	  436.44
      7.2700	  672.00	  555.24	-1747.00	  436.87
      7.3700	  691.00	  555.67	-1747.00	  437.29
      7.4700	  678.00	  556.08	-1747.00	  437.71
      7.5700	  646.00	  556.49	-1747.00	  438.12
      7.6700	  675.00	  556.89	-1747.00	  438.51
      7.7700	  632.00	  557.28	-1747.00	  438.90
      7.8700	  645.00	  557.66	-1747.00	  439.28
      7.9700	  555.00	  558.03	-1747.00	  439.65
      8.0700	  610.00	  558.39	-1747.00	  440.02
      8.1700	  617.00	  558.74	-1747.00	  440.37
      8.2700	  624.00	  559.09	-1747.00	  440.71
      8.3700	  598.00	  559.42	-1747.00	  441.05
      8.4700	  634.00	  559.75	-1747.00	  441.38
      8.5700	  616.00	  560.07	-1747.00	  441.70
      8.6700	  616.00	  560.38	-1747.00	  442.01
      8.7700	  641.00	  560.69	-1747.00	  442.31
      8.8700	  639.00	  560.98	-1747.00	  442.61
      8.9700	  595.00	  561.27	-1747.00	  442.89
      9.0700	  605.00	  561.55	-1747.00	  443.17
      9.1700	  637.00	  561.82	-1747.00	  443.44
      9.2700	  612.00	  562.08	-1747.00	  443.71
      9.3700	  612.00	  562.33	-1747.00	  443.96
      9.4700	  620.00	  562.58	-1747.00	  444.21
      9.5700	  619.00	  562.82	-1747.00	  444.45
      9.6700	  596.00	  563.05	-1747.00	  444.68
      9.7700	  577.00	  563.28	-1747.00	  444.90
      9.8700	  579.00	  563.50	-1747.00	  445.12
      9.9700	  575.00	  563.70	-1747.00	  445.33
     10.0700	  570.00	  564.87	-1741.87	  445.53
     10.1700	  600.00	  565.18	-1712.18	  445.73
     10.2700	  556.00	  565.50	-1756.50	  445.92
     10.3700	  628.00	  565.85	-1684.85	  446.10
     10.4700	  559.00	  566.28	-1754.28	  446.27
     10.5700	  556.00	  566.83	-1757.83	  446.44
     10.6700	  543.00	  567.63	-1771.63	  446.59
     10.7700	  620.00	  568.78	-1695.78	  446.75
     10.8700	  535.00	  570.37	-1782.37	  446.89
     10.9700	  580.00	  572.39	-1739.39	  447.03
     11.0700	  622.00	  574.80	-1699.80	  447.16
     11.1700	  591.00	  577.60	-1733.60	  447.29
     11.2700	  570.00	  580.84	-1757.84	  447.41
     11.3700	  528.00	  584.60	-1803.60	  447.52
     11.4700	  630.00	  589.04	-1706.04	  447.62
     11.5700	  630.00	  594.40	-1711.40	  447.72
     11.6700	  572.00	  601.07	-1776.07	  447.81
     11.7700	  602.00	  609.74	-1754.74	  447.90
     11.8700	  634.00	  621.38	-1734.38	  447.98
     11.9700	  678.00	  636.46	-1705.46	  448.05
     12.0700	  664.00	  652.94	-1735.94	  448.12
     12.1700	  676.00	  664.04	-1735.04	  448.18
     12.2700	  691.00	  659.62	-1715.62	  448.24
     12.3700	  700.00	  637.22	-1684.22	  448.29
     12.4700	  642.00	  610.32	-1715.32	  448.33
     12.5700	  565.00	  590.51	-1772.51	  448.37
     12.6700	  606.00	  579.49	-1720.49	  448.40
     12.7700	  604.00	  574.35	-1717.35	  448.43
     12.8700	  577.00	  572.03	-1742.03	  448.45
     12.9700	  595.00	  570.81	-1722.81	  448.46
     13.0700	  533.00	  570.04	-1784.04	  448.47
     13.1700	  523.00	  569.48	-1793.48	  448.48
     13.2700	  585.00	  569.07	-1731.07	  448.47
     13.3700	  523.00	  568.74	-1792.74	  448.47
     13.4700	  504.00	  568.48	-1811.48	  448.45
     13.5700	  541.00	  568.26	-1774.26	  448.44
     13.6700	  567.00	  568.07	-1748.07	  448.41
     13.7700	  559.00	  567.91	-1755.91	  448.39
     13.8700	  547.00	  567.76	-1767.76	  448.35
     13.9700	  569.00	  567.63	-1745.63	  448.31
     14.0700	  570.00	  567.51	-1744.51	  448.27
     14.1700	  548.00	  567.39	-1766.39	  448.22
     14.2700	  554.00	  567.28	-1760.28	  448.17
     14.3700	  539.00	  567.17	-1775.17	  448.11
     14.4700	  586.00	  567.06	-1728.06	  448.05
     14.5700	  558.00	  566.95	-1755.95	  447.98
     14.6700	  556.00	  566.85	-1757.85	  447.91
     14.7700	  520.00	  566.74	-1793.74	  447.83
     14.8700	  585.00	  566.63	-1728.63	  447.75
     14.9700	  535.00	  566.52	-1778.52	  447.66
     15.0700	  533.00	  566.40	-1780.40	  447.57
     15.1700	  538.00	  566.29	-1775.29	  447.48
     15.2700	  548.00	  566.17	-1765.17	  447.38
     15.3700	  591.00	  566.05	-1722.05	  447.27
     15.4700	  572.00	  565.93	-1740.93	  447.16
     15.5700	  559.00	  565.80	-1753.80	  447.05
     15.6700	  565.00	  565.67	-1747.67	  446.93
     15.7700	  500.00	  565.54	-1812.54	  446.81
     15.8700	  565.00	  565.43	-1747.43	  446.69
     15.9700	  540.00	  565.29	-1772.29	  446.56
     16.0700	  548.00	  565.15	-1764.15	  446.43
     16.1700	  570.00	  565.00	-1742.00	  446.29
     16.2700	  562.00	  564.85	-1749.85	  446.15
     16.3700	  588.00	  564.70	-1723.70	  446.00
     16.4700	  576.00	  564.55	-1735.55	  445.85
     16.5700	  588.00	  564.39	-1723.39	  445.70
     16.6700	  511.00	  564.23	-1800.23	  445.55
     16.7700	  542.00	  564.06	-1769.06	  445.39
     16.8700	  560.00	  563.90	-1750.90	  445.22
     16.9700	  543.00	  563.72	-1767.72	  445.06
     17.0700	  548.00	  563.55	-1762.55	  444.88
     17.1700	  557.00	  563.37	-1753.37	  444.71
     17.2700	  538.00	  563.19	-1772.19	  444.53
     17.3700	  581.00	  563.01	-1729.01	  444.35
     17.4700	  566.00	  562.82	-1743.82	  444.17
     17.5700	  550.00	  562.63	-1759.63	  443.98
     17.6700	  550.00	  562.44	-1759.44	  443.79
     17.7700	  587.00	  562.24	-1722.24	  443.60
     17.8700	  552.00	  562.04	-1757.04	  443.40
     17.9700	  553.00	  561.84	-1755.84	  443.20
     18.0700	  543.00	  561.74	-1765.74	  442.99
     18.1700	  536.00	  561.53	-1772.53	  442.79
     18.2700	  580.00	  561.33	-1728.33	  442.58
     18.3700	  607.00	  561.12	-1701.12	  442.37
     18.4700	  556.00	  560.90	-1751.90	  442.15
     18.5700	  565.00	  560.69	-1742.69	  441.93
     18.6700	  569.00	  560.47	-1738.47	  441.71
     18.7700	  603.00	  560.25	-1704.25	  441.49
     18.8700	  553.00	  560.10	-1754.10	  441.26
     18.9700	  554.00	  559.87	-1752.87	  441.03
     19.0700	  564.00	  559.65	-1742.65	  440.80
     19.1700	  580.00	  559.42	-1726.42	  440.57
     19.2700	  583.00	  559.19	-1723.19	  440.33
     19.3700	  554.00	  558.95	-1751.95	  440.09
     19.4700	  590.00	  558.72	-1715.72	  439.85
     19.5700	  579.00	  558.48	-1726.48	  439.60
     19.6700	  536.00	  558.24	-1769.24	  439.36
     19.7700	  543.00	  558.00	-1762.00	  439.11
     19.8700	  542.00	  557.75	-1762.75	  438.86
     19.9700	  584.00	  557.51	-1720.51	  438.60
     20.0700	  592.00	  557.26	-1712.26	  438.34
     20.1700	  567.00	  557.01	-1737.01	  438.09
     20.2700	  553.00	  556.76	-1750.76	  437.83
     20.3700	  612.00	  556.51	-1691.51	  437.56
     20.4700	  591.00	  556.26	-1712.26	  437.30
     20.5700	  515.00	  556.00	-1788.00	  437.03
     20.6700	  544.00	  555.75	-1758.75	  436.76
     20.7700	  578.00	  555.52	-1724.52	  436.49
     20.8700	  573.00	  555.23	-1729.23	  436.22
     20.9700	  554.00	  554.97	-1747.97	  435.94
     21.0700	  526.00	  554.71	-1775.71	  435.67
     21.1700	  537.00	  554.45	-1764.45	  435.39
     21.2700	  573.00	  554.19	-1728.19	  435.11
     21.3700	  567.00	  553.93	-1733.93	  434.83
     21.4700	  562.00	  553.67	-1738.67	  434.54
     21.5700	  553.00	  553.41	-1747.41	  434.26
     21.6700	  572.00	  553.14	-1728.14	  433.97
     21.7700	  562.00	  552.88	-1737.88	  433.68
     21.8700	  543.00	  552.62	-1756.62	  433.39
     21.9700	  577.00	  552.36	-1722.36	  433.10
     22.0700	  570.00	  552.10	-1729.10	  432.81
     22.1700	  548.00	  551.85	-1750.85	  432.51
     22.2700	  534.00	  551.59	-1764.59	  432.22
     22.3700	  530.00	  551.34	-1768.34	  431.92
     22.4700	  514.00	  551.09	-1784.09	  431.62
     22.5700	  546.00	  550.85	-1751.85	  431.32
     22.6700	  561.00	  550.61	-1736.61	  431.02
     22.7700	  547.00	  550.37	-1750.37	  430.72
     22.8700	  528.00	  550.15	-1769.15	  430.41
     22.9700	  534.00	  549.93	-1762.93	  430.11
     23.0700	  502.00	  549.73	-1794.73	  429.80
     23.1700	  541.00	  549.54	-1755.54	  429.49
     23.2700	  499.00	  549.37	-1797.37	  429.18
     23.3700	  560.00	  549.23	-1736.23	  428.87
     23.4700	  559.00	  549.12	-1737.12	  428.56
     23.5700	  557.00	  549.07	-1739.06	  428.25
     23.6700	  552.00	  549.22	-1744.22	  427.94
     23.7700	  537.00	  549.36	-1759.36	  427.62
     23.8700	  564.00	  549.72	-1732.72	  427.31
     23.9700	  553.00	  550.52	-1744.52	  426.99
     24.0700	  574.00	  552.18	-1725.18	  426.68
     24.1700	  548.00	  555.30	-1754.30	  426.36
     24.2700	  565.00	  560.66	-1742.66	  426.04
     24.3700	  573.00	  569.13	-1743.13	  425.72
     24.4700	  621.00	  581.53	-1707.53	  425.40
     24.5700	  667.00	  597.77	-1677.77	  425.08
     24.6700	  601.00	  615.01	-1761.01	  424.76
     24.7700	  657.00	  626.19	-1716.19	  424.44
     24.8700	  644.00	  622.39	-1725.39	  424.12
     24.9700	  624.00	  603.33	-1726.33	  423.80
     25.0700	  611.00	  580.88	-1716.88	  423.47
     25.1700	  567.00	  564.03	-1744.03	  423.15
     25.2700	  571.00	  554.28	-1730.28	  422.83
     25.3700	  533.00	  549.50	-1763.50	  422.50
     25.4700	  565.00	  547.23	-1729.23	  422.18
     25.5700	  561.00	  545.99	-1731.99	  421.85
     25.6700	  564.00	  545.19	-1728.19	  421.52
     25.7700	  535.00	  544.60	-1756.60	  421.20
     25.8700	  523.00	  544.14	-1768.14	  420.87
     25.9700	  535.00	  543.80	-1755.80	  420.54
     26.0700	  586.00	  543.54	-1704.54	  420.22
     26.1700	  561.00	  543.36	-1729.36	  419.89
     26.2700	  553.00	  543.25	-1737.25	  419.56
     26.3700	  503.00	  543.22	-1787.22	  419.23
     26.4700	  546.00	  543.27	-1744.27	  418.91
     26.5700	  516.00	  543.41	-1774.41	  418.58
     26.6700	  558.00	  543.67	-1732.67	  418.25
     26.7700	  527.00	  544.06	-1764.06	  417.92
     26.8700	  553.00	  544.62	-1738.62	  417.59
     26.9700	  582.00	  545.39	-1710.39	  417.26
     27.0700	  556.00	  546.47	-1737.47	  416.94
     27.1700	  558.00	  547.97	-1736.97	  416.61
     27.2700	  577.00	  550.14	-1720.14	  416.28
     27.3700	  511.00	  553.49	-1789.49	  415.95
     27.4700	  555.00	  558.99	-1750.99	  415.62
     27.5700	  563.00	  568.42	-1752.42	  415.29
     27.6700	  585.00	  584.55	-1746.55	  414.96
     27.7700	  601.00	  610.99	-1756.99	  414.64
     27.8700	  615.00	  650.86	-1782.86	  414.31
     27.9700	  676.00	  704.28	-1775.28	  413.98
     28.0700	  783.00	  765.00	-1729.00	  413.65
     28.1700	  901.00	  817.50	-1663.50	  413.33
     28.2700	  972.00	  838.57	-1613.57	  413.00
     28.3700	  900.00	  814.90	-1661.90	  412.67
     28.4700	  808.00	  768.55	-1707.55	  412.35
     28.5700	  692.00	  734.92	-1789.92	  412.02
     28.6700	  650.00	  729.84	-1826.84	  411.70
     28.7700	  734.00	  748.73	-1761.73	  411.37
     28.8700	  778.00	  772.68	-1741.68	  411.05
     28.9700	  803.00	  775.60	-1719.60	  410.72
     29.0700	  769.00	  741.41	-1719.41	  410.40
     29.1700	  687.00	  684.50	-1744.50	  410.07
     29.2700	  652.00	  630.60	-1725.60	  409.75
     29.3700	  561.00	  591.79	-1777.79	  409.43
     29.4700	  625.00	  568.32	-1690.32	  409.11
     29.5700	  581.00	  555.59	-1721.59	  408.78
     29.6700	  603.00	  548.83	-1692.83	  408.46
     29.7700	  582.00	  544.98	-1709.98	  408.14
     29.8700	  567.00	  542.57	-1722.57	  407.82
     29.9700	  570.00	  541.05	-1718.05	  407.50
     30.0700	  536.00	  540.29	-1751.29	  407.19
     30.1700	  579.00	  540.46	-1708.46	  406.87
     30.2700	  492.00	  542.09	-1797.09	  406.55
     30.3700	  586.00	  546.18	-1707.18	  406.23
     30.4700	  590.00	  554.23	-1711.23	  405.92
     30.5700	  558.00	  567.79	-1756.79	  405.60
     30.6700	  583.00	  587.19	-1751.19	  405.29
     30.7700	  630.00	  609.95	-1726.95	  404.98
     30.8700	  659.00	  629.55	-1717.55	  404.66
     30.9700	  617.00	  636.09	-1766.09	  404.35
     31.0700	  628.00	  623.14	-1742.14	  404.04
     31.1700	  589.00	  597.51	-1755.51	  403.73
     31.2700	  548.00	  571.92	-1770.92	  403.42
     31.3700	  566.00	  553.00	-1734.00	  403.11
     31.4700	  570.00	  541.44	-1718.44	  402.81
     31.5700	  546.00	  535.20	-1736.20	  402.50
     31.6700	  569.00	  531.96	-1709.96	  402.19
     31.7700	  559.00	  530.15	-1718.15	  401.89
     31.8700	  531.00	  529.02	-1745.02	  401.59
     31.9700	  548.00	  528.24	-1727.24	  401.28
     32.0700	  559.00	  527.69	-1715.69	  400.98
     32.1700	  564.00	  527.33	-1710.33	  400.68
     32.2700	  513.00	  527.13	-1761.13	  400.38
     32.3700	  529.00	  527.09	-1745.09	  400.08
     32.4700	  540.00	  527.22	-1734.22	  399.78
     32.5700	  552.00	  527.53	-1722.53	  399.49
     32.6700	  511.00	  528.06	-1764.06	  399.19
     32.7700	  544.00	  528.85	-1731.85	  398.90
     32.8700	  587.00	  529.99	-1689.99	  398.61
     32.9700	  541.00	  531.61	-1737.61	  398.31
     33.0700	  580.00	  533.95	-1700.95	  398.02
     33.1700	  540.00	  537.54	-1744.54	  397.73
     33.2700	  574.00	  543.57	-1716.57	  397.44
     33.3700	  513.00	  554.54	-1788.54	  397.16
     33.4700	  584.00	  575.20	-1738.20	  396.87
     33.5700	  596.00	  612.89	-1763.89	  396.59
     33.6700	  694.00	  675.76	-1728.76	  396.30
     33.7700	  751.00	  766.90	-1762.90	  396.02
     33.8700	  915.00	  875.82	-1707.82	  395.74
     33.9700	  983.00	  973.04	-1737.04	  395.46
     34.0700	 1124.00	 1014.19	-1637.19	  395.18
     34.1700	 1054.00	  967.75	-1660.75	  394.90
     34.2700	  930.00	  857.89	-1674.89	  394.63
     34.3700	  782.00	  740.46	-1705.46	  394.35
     34.4700	  649.00	  649.33	-1747.33	  394.08
     34.5700	  603.00	  591.51	-1735.51	  393.81
     34.6700	  538.00	  559.76	-1768.76	  393.54
     34.7700	  589.00	  543.55	-1701.55	  393.27
     34.8700	  571.00	  534.99	-1710.99	  393.00
     34.9700	  524.00	  529.86	-1752.86	  392.73
     35.0700	  522.00	  526.33	-1751.33	  392.47
     35.1700	  520.00	  523.66	-1750.66	  392.20
     35.2700	  505.00	  521.54	-1763.54	  391.94
     35.3700	  498.00	  519.82	-1768.82	  391.68
     35.4700	  554.00	  518.38	-1711.38	  391.42
     35.5700	  496.00	  517.17	-1768.17	  391.16
     35.6700	  506.00	  516.13	-1757.13	  390.91
     35.7700	  504.00	  515.22	-1758.22	  390.65
     35.8700	  511.00	  514.42	-1750.43	  390.40
     35.9700	  475.00	  513.71	-1785.71	  390.15
     36.0700	  532.00	  513.55	-1728.55	  389.90
     36.1700	  540.00	  512.98	-1719.98	  389.65
     36.2700	  508.00	  512.46	-1751.46	  389.40
     36.3700	  508.00	  511.99	-1750.99	  389.16
     36.4700	  478.00	  511.57	-1780.57	  388.91
     36.5700	  488.00	  511.19	-1770.19	  388.67
     36.6700	  504.00	  510.85	-1753.85	  388.43
     36.7700	  454.00	  510.57	-1803.57	  388.19
     36.8700	  495.00	  510.37	-1762.37	  387.95
     36.9700	  483.00	  510.31	-1774.31	  387.71
     37.0700	  477.00	  510.54	-1780.54	  387.48
     37.1700	  503.00	  511.31	-1755.31	  387.25
     37.2700	  565.00	  512.96	-1694.96	  387.01
     37.3700	  478.00	  515.81	-1784.81	  386.78
     37.4700	  526.00	  519.77	-1740.77	  386.56
     37.5700	  501.00	  524.08	-1770.08	  386.33
     37.6700	  555.00	  527.26	-1719.26	  386.10
     37.7700	  549.00	  527.69	-1725.69	  385.88
     37.8700	  537.00	  525.18	-1735.18	  385.66
     37.9700	  549.00	  521.22	-1719.22	  385.44
     38.0700	  512.00	  517.17	-1752.17	  385.22
     38.1700	  538.00	  513.57	-1722.57	  385.00
     38.2700	  488.00	  510.67	-1769.67	  384.79
     38.3700	  484.00	  508.55	-1771.55	  384.58
     38.4700	  499.00	  507.10	-1755.10	  384.37
     38.5700	  460.00	  506.14	-1793.14	  384.16
     38.6700	  502.00	  505.41	-1750.41	  383.95
     38.7700	  546.00	  504.96	-1705.96	  383.74
     38.8700	  471.00	  504.61	-1780.61	  383.54
     38.9700	  522.00	  504.31	-1729.31	  383.33
     39.0700	  523.00	  504.04	-1728.04	  383.13
     39.1700	  486.00	  503.80	-1764.80	  382.93
     39.2700	  503.00	  503.50	-1747.50	  382.74
     39.3700	  502.00	  503.42	-1748.42	  382.54
     39.4700	  473.00	  503.22	-1777.22	  382.35
     39.5700	  480.00	  503.04	-1770.04	  382.15
     39.6700	  505.00	  502.86	-1744.86	  381.96
     39.7700	  475.00	  502.69	-1774.69	  381.77
     39.8700	  519.00	  502.53	-1730.53	  381.59
     39.9700	  509.00	  502.39	-1740.39	  381.40
     40.0700	  490.00	  502.25	-1759.25	  381.22
     40.1700	  510.00	  502.12	-1739.12	  381.04
     40.2700	  516.00	  502.01	-1733.01	  380.86
     40.3700	  473.00	  501.90	-1775.90	  380.68
     40.4700	  547.00	  501.82	-1701.82	  380.50
     40.5700	  476.00	  501.74	-1772.74	  380.33
     40.6700	  454.00	  501.69	-1794.69	  380.16
     40.7700	  506.00	  501.65	-1742.65	  379.99
     40.8700	  526.00	  501.64	-1722.64	  379.82
     40.9700	  477.00	  501.66	-1771.66	  379.65
     41.0700	  498.00	  501.71	-1750.71	  379.49
     41.1700	  490.00	  501.81	-1758.81	  379.32
     41.2700	  492.00	  501.96	-1756.96	  379.16
     41.3700	  481.00	  502.14	-1768.14	  379.00
     41.4700	  491.00	  502.89	-1758.89	  378.84
     41.5700	  517.00	  503.33	-1733.33	  378.69
     41.6700	  458.00	  503.96	-1792.96	  378.53
     41.7700	  512.00	  504.92	-1739.92	  378.38
     41.8700	  495.00	  506.56	-1758.56	  378.23
     41.9700	  474.00	  509.60	-1782.60	  378.08
     42.0700	  484.00	  515.39	-1778.39	  377.94
     42.1700	  530.00	  526.03	-1743.03	  377.79
     42.2700	  538.00	  543.83	-1752.83	  377.65
     42.3700	  545.00	  569.95	-1771.95	  377.51
     42.4700	  591.00	  602.13	-1758.13	  377.37
     42.5700	  594.00	  633.29	-1786.29	  377.23
     42.6700	  619.00	  652.09	-1780.09	  377.10
     42.7700	  554.00	  648.66	-1841.66	  376.96
     42.8700	  605.00	  624.03	-1766.03	  376.83
     42.9700	  593.00	  590.32	-1744.32	  376.70
     43.0700	  541.00	  558.89	-1764.89	  376.57
     43.1700	  550.00	  535.25	-1732.25	  376.45
     43.2700	  525.00	  520.09	-1742.09	  376.32
     43.3700	  491.00	  511.49	-1767.49	  376.20
     43.4700	  496.00	  506.94	-1757.94	  376.08
     43.5700	  535.00	  504.53	-1716.53	  375.96
     43.6700	  494.00	  503.32	-1756.32	  375.84
     43.7700	  519.00	  502.40	-1730.40	  375.73
     43.8700	  501.00	  501.77	-1747.77	  375.62
     43.9700	  516.00	  501.26	-1732.26	  375.50
     44.0700	  515.00	  500.85	-1732.85	  375.39
     44.1700	  502.00	  500.53	-1745.53	  375.29
     44.2700	  508.00	  500.28	-1739.28	  375.18
     44.3700	  540.00	  500.08	-1707.08	  375.08
     44.4700	  448.00	  499.92	-1798.92	  374.98
     44.5700	  495.00	  499.80	-1751.80	  374.88
     44.6700	  508.00	  499.72	-1738.72	  374.78
     44.7700	  534.00	  499.53	-1712.53	  374.68
     44.8700	  510.00	  499.50	-1736.50	  374.59
     44.9700	  516.00	  499.50	-1730.50	  374.50
     45.0700	  546.00	  499.52	-1700.52	  374.41
     45.1700	  494.00	  499.75	-1752.75	  374.32
     45.2700	  519.00	  499.82	-1727.82	  374.23
     45.3700	  489.00	  499.91	-1757.91	  374.15
     45.4700	  497.00	  500.03	-1750.03	  374.06
     45.5700	  483.00	  500.17	-1764.17	  373.98
     45.6700	  490.00	  500.34	-1757.34	  373.90
     45.7700	  509.00	  500.53	-1738.53	  373.82
     45.8700	  510.00	  500.76	-1737.76	  373.75
     45.9700	  516.00	  501.02	-1732.02	  373.67
     46.0700	  477.00	  501.31	-1771.31	  373.60
     46.1700	  507.00	  501.65	-1741.65	  373.53
     46.2700	  535.00	  502.03	-1714.03	  373.46
     46.3700	  464.00	  502.47	-1785.47	  373.40
     46.4700	  526.00	  502.98	-1723.98	  373.33
     46.5700	  476.00	  503.56	-1774.56	  373.27
     46.6700	  509.00	  504.23	-1742.23	  373.21
     46.7700	  437.00	  505.04	-1815.04	  373.15
     46.8700	  498.00	  506.05	-1755.05	  373.09
     46.9700	  530.00	  507.41	-1724.41	  373.04
     47.0700	  522.00	  509.46	-1734.46	  372.98
     47.1700	  502.00	  512.81	-1757.81	  372.93
     47.2700	  543.00	  518.37	-1722.37	  372.88
     47.3700	  567.00	  527.47	-1707.47	  372.83
     47.4700	  504.00	  541.18	-1784.18	  372.79
     47.5700	  574.00	  559.53	-1732.53	  372.74
     47.6700	  569.00	  580.58	-1758.58	  372.70
     47.7700	  622.00	  599.77	-1724.77	  372.66
     47.8700	  573.00	  610.78	-1784.78	  372.62
     47.9700	  562.00	  608.99	-1793.99	  372.58
     48.0700	  548.00	  595.94	-1794.94	  372.55
     48.1700	  620.00	  577.93	-1704.93	  372.51
     48.2700	  539.00	  561.00	-1769.00	  372.48
     48.3700	  536.00	  548.45	-1759.45	  372.45
     48.4700	  508.00	  541.17	-1780.17	  372.42
     48.5700	  533.00	  538.52	-1752.52	  372.40
     48.6700	  552.00	  539.35	-1734.35	  372.37
     48.7700	  535.00	  542.67	-1754.67	  372.35
     48.8700	  506.00	  547.97	-1788.97	  372.33
     48.9700	  586.00	  555.26	-1716.26	  372.31
     49.0700	  534.00	  565.21	-1778.21	  372.29
     49.1700	  564.00	  579.46	-1762.46	  372.27
     49.2700	  607.00	  601.51	-1741.51	  372.26
     49.3700	  637.00	  638.05	-1748.05	  372.25
     49.4700	  681.00	  700.72	-1766.72	  372.23
     49.5700	  813.00	  805.07	-1739.07	  372.23
     49.6700	  833.00	  969.93	-1883.93	  372.22
     49.7700	 1136.00	 1208.92	-1819.92	  372.21
     49.8700	 1412.00	 1519.97	-1854.97	  372.21
     49.9700	 1920.00	 1873.29	-1700.29	  372.20
     50.0700	 2276.00	 2202.23	-1673.23	  372.20
     50.1700	 2502.00	 2408.99	-1653.99	  372.20
     50.2700	 2478.00	 2407.83	-1676.83	  372.21
     50.3700	 2154.00	 2197.26	-1790.26	  372.21
     50.4700	 1853.00	 1865.36	-1759.36	  372.22
     50.5700	 1436.00	 1514.20	-1825.20	  372.22
     50.6700	 1007.00	 1210.36	-1950.36	  372.23
     50.7700	  867.00	  982.45	-1862.45	  372.24
     50.8700	  692.00	  830.86	-1885.86	  372.26
     50.9700	  623.00	  739.59	-1863.59	  372.27
     51.0700	  681.00	  687.19	-1753.19	  372.29
     51.1700	  622.00	  654.53	-1779.53	  372.30
     51.2700	  547.00	  629.47	-1829.47	  372.32
     51.3700	  640.00	  607.42	-1714.42	  372.34
     51.4700	  560.00	  588.08	-1775.08	  372.37
     51.5700	  595.00	  572.17	-1724.17	  372.39
     51.6700	  538.00	  560.04	-1769.04	  372.41
     51.7700	  526.00	  551.45	-1772.45	  372.44
     51.8700	  546.00	  545.72	-1746.72	  372.47
     51.9700	  563.00	  542.08	-1726.08	  372.50
     52.0700	  560.00	  539.91	-1726.91	  372.53
     52.1700	  564.00	  539.09	-1722.09	  372.56
     52.2700	  574.00	  539.04	-1712.04	  372.60
     52.3700	  598.00	  540.12	-1689.12	  372.64
     52.4700	  541.00	  542.81	-1748.81	  372.67
     52.5700	  577.00	  548.31	-1718.31	  372.71
     52.6700	  566.00	  558.99	-1739.99	  372.75
     52.7700	  642.00	  579.07	-1684.07	  372.79
     52.8700	  647.00	  614.77	-1714.77	  372.84
     52.9700	  690.00	  673.41	-1730.41	  372.88
     53.0700	  843.00	  760.61	-1664.61	  372.93
     53.1700	  905.00	  876.00	-1718.00	  372.98
     53.2700	 1029.00	 1008.68	-1726.68	  373.03
     53.3700	 1135.00	 1134.50	-1746.50	  373.08
     53.4700	 1216.00	 1218.30	-1749.30	  373.13
     53.5700	 1248.00	 1227.97	-1726.97	  373.19
     53.6700	 1114.00	 1158.72	-1791.72	  373.24
     53.7700	 1029.00	 1038.51	-1756.51	  373.30
     53.8700	  887.00	  904.48	-1764.48	  373.36
     53.9700	  780.00	  783.94	-1750.94	  373.42
     54.0700	  576.00	  690.55	-1861.55	  373.48
     54.1700	  616.00	  626.51	-1757.51	  373.54
     54.2700	  633.00	  587.02	-1701.02	  373.60
     54.3700	  591.00	  564.72	-1720.72	  373.67
     54.4700	  550.00	  552.94	-1749.94	  373.73
     54.5700	  520.00	  546.99	-1773.99	  373.80
     54.6700	  591.00	  544.15	-1700.15	  373.87
     54.7700	  531.00	  542.99	-1758.99	  373.94
     54.8700	  613.00	  542.96	-1676.96	  374.01
     54.9700	  584.00	  543.78	-1706.78	  374.09
     55.0700	  556.00	  545.41	-1736.41	  374.16
     55.1700	  573.00	  547.78	-1721.78	  374.24
     55.2700	  581.00	  550.99	-1716.99	  374.31
     55.3700	  531.00	  555.17	-1771.17	  374.39
     55.4700	  576.00	  560.55	-1731.55	  374.47
     55.5700	  593.00	  567.54	-1721.54	  374.55
     55.6700	  581.00	  577.00	-1743.00	  374.64
     55.7700	  570.00	  590.67	-1767.67	  374.72
     55.8700	  562.00	  611.99	-1796.99	  374.80
     55.9700	  639.00	  647.37	-1755.37	  374.89
     56.0700	  693.00	  707.33	-1761.33	  374.98
     56.1700	  705.00	  806.92	-1848.92	  375.07
     56.2700	  887.00	  963.78	-1823.78	  375.15
     56.3700	 1115.00	 1192.78	-1824.78	  375.25
     56.4700	 1445.00	 1497.66	-1799.66	  375.34
     56.5700	 1771.00	 1861.31	-1837.31	  375.43
     56.6700	 2192.00	 2238.46	-1793.46	  375.52
     56.7700	 2432.00	 2553.55	-1868.55	  375.62
     56.8700	 2682.00	 2715.32	-1780.32	  375.72
     56.9700	 2567.00	 2663.60	-1843.60	  375.81
     57.0700	 2453.00	 2418.37	-1712.37	  375.91
     57.1700	 2084.00	 2063.27	-1726.27	  376.01
     57.2700	 1741.00	 1686.81	-1692.81	  376.11
     57.3700	 1250.00	 1350.61	-1847.61	  376.22
     57.4700	 1063.00	 1085.47	-1769.47	  376.32
     57.5700	  841.00	  897.40	-1803.40	  376.42
     57.6700	  790.00	  776.42	-1733.42	  376.53
     57.7700	  741.00	  706.11	-1712.11	  376.63
     57.8700	  672.00	  670.95	-1745.95	  376.74
     57.9700	  721.00	  659.92	-1685.92	  376.85
     58.0700	  663.00	  667.16	-1751.16	  376.96
     58.1700	  665.00	  690.64	-1772.64	  377.07
     58.2700	  773.00	  730.35	-1704.35	  377.18
     58.3700	  829.00	  786.40	-1704.40	  377.29
     58.4700	  894.00	  857.32	-1710.32	  377.41
     58.5700	 1019.00	  938.65	-1666.65	  377.52
     58.6700	 1152.00	 1022.35	-1617.35	  377.64
     58.7700	 1293.00	 1099.18	-1553.18	  377.75
     58.8700	 1354.00	 1162.93	-1555.93	  377.87
     58.9700	 1476.00	 1210.32	-1481.32	  377.99
     59.0700	 1539.00	 1236.85	-1444.85	  378.11
     59.1700	 1517.00	 1238.37	-1468.37	  378.23
     59.2700	 1455.00	 1218.44	-1510.44	  378.35
     59.3700	 1275.00	 1188.60	-1660.60	  378.47
     59.4700	 1243.00	 1160.63	-1664.63	  378.59
     59.5700	 1196.00	 1142.52	-1693.52	  378.71
     59.6700	 1131.00	 1141.68	-1757.68	  378.84
     59.7700	 1157.00	 1166.90	-1756.90	  378.96
     59.8700	 1245.00	 1223.74	-1725.74	  379.09
     59.9700	 1351.00	 1308.14	-1704.14	  379.22
     60.0700	 1470.00	 1403.46	-1680.46	  379.34
     60.1700	 1584.00	 1481.30	-1644.30	  379.47
     60.2700	 1663.00	 1508.68	-1592.68	  379.60
     60.3700	 1541.00	 1465.40	-1671.40	  379.73
     60.4700	 1452.00	 1358.56	-1653.56	  379.86
     60.5700	 1269.00	 1215.44	-1693.44	  379.99
     60.6700	 1059.00	 1065.15	-1753.15	  380.12
     60.7700	  892.00	  928.88	-1783.88	  380.26
     60.8700	  805.00	  818.54	-1760.54	  380.39
     60.9700	  682.00	  738.17	-1803.17	  380.52
     61.0700	  688.00	  686.66	-1745.66	  380.66
     61.1700	  613.00	  660.68	-1794.68	  380.79
     61.2700	  600.00	  657.47	-1804.47	  380.93
     61.3700	  627.00	  676.57	-1796.57	  381.07
     61.4700	  675.00	  719.89	-1791.89	  381.21
     61.5700	  765.00	  790.49	-1772.49	  381.34
     61.6700	  836.00	  890.14	-1801.14	  381.48
     61.7700	  945.00	 1016.38	-1818.38	  381.62
     61.8700	 1085.00	 1159.86	-1821.86	  381.76
     61.9700	 1214.00	 1302.70	-1835.70	  381.90
     62.0700	 1380.00	 1418.43	-1785.43	  382.04
     62.1700	 1470.00	 1477.22	-1754.22	  382.18
     62.2700	 1368.00	 1459.85	-1838.85	  382.33
     62.3700	 1255.00	 1371.61	-1863.61	  382.47
     62.4700	 1117.00	 1238.16	-1868.16	  382.61
     62.5700	 1032.00	 1089.24	-1804.24	  382.76
     62.6700	  895.00	  947.85	-1799.85	  382.90
     62.7700	  795.00	  827.95	-1779.95	  383.05
     62.8700	  615.00	  735.27	-1867.27	  383.19
     62.9700	  638.00	  669.18	-1778.18	  383.34
     63.0700	  549.00	  625.32	-1823.32	  383.48
     63.1700	  601.00	  598.01	-1744.01	  383.63
     63.2700	  590.00	  582.01	-1739.01	  383.78
     63.3700	  578.00	  573.44	-1742.44	  383.92
     63.4700	  614.00	  570.02	-1703.02	  384.07
     63.5700	  579.00	  570.93	-1738.93	  384.22
     63.6700	  572.00	  576.63	-1751.63	  384.37
     63.7700	  609.00	  588.53	-1726.53	  384.52
     63.8700	  664.00	  608.73	-1691.73	  384.67
     63.9700	  682.00	  639.38	-1704.38	  384.82
     64.0700	  697.00	  681.98	-1731.98	  384.97
     64.1700	  745.00	  736.35	-1738.35	  385.12
     64.2700	  931.00	  799.72	-1615.72	  385.27
     64.3700	  955.00	  866.05	-1658.05	  385.42
     64.4700	  957.00	  925.94	-1715.94	  385.57
     64.5700	 1057.00	  967.83	-1657.83	  385.72
     64.6700	 1042.00	  983.86	-1688.86	  385.87
     64.7700	 1005.00	  971.16	-1713.16	  386.03
     64.8700	  959.00	  934.30	-1722.30	  386.18
     64.9700	  966.00	  881.92	-1662.92	  386.33
     65.0700	  833.00	  823.83	-1737.83	  386.48
     65.1700	  786.00	  768.10	-1729.10	  386.64
     65.2700	  753.00	  719.45	-1713.45	  386.79
     65.3700	  695.00	  679.32	-1731.32	  386.94
     65.4700	  642.00	  647.16	-1752.16	  387.10
     65.5700	  617.00	  621.81	-1751.81	  387.25
     65.6700	  611.00	  602.22	-1738.22	  387.41
     65.7700	  564.00	  587.46	-1770.46	  387.56
     65.8700	  559.00	  576.73	-1764.73	  387.71
     65.9700	  495.00	  569.36	-1821.36	  387.87
     66.0700	  546.00	  564.79	-1765.79	  388.02
     66.1700	  533.00	  562.51	-1776.51	  388.18
     66.2700	  561.00	  562.11	-1748.11	  388.33
     66.3700	  564.00	  563.29	-1746.29	  388.49
     66.4700	  566.00	  565.99	-1746.99	  388.64
     66.5700	  544.00	  570.05	-1773.05	  388.80
     66.6700	  599.00	  576.00	-1724.00	  388.95
     66.7700	  557.00	  584.77	-1774.77	  389.10
     66.8700	  602.00	  598.19	-1743.19	  389.26
     66.9700	  633.00	  619.37	-1733.37	  389.41
     67.0700	  621.00	  653.18	-1779.18	  389.57
     67.1700	  687.00	  706.54	-1766.54	  389.72
     67.2700	  750.00	  788.09	-1785.09	  389.88
     67.3700	  917.00	  907.01	-1737.01	  390.03
     67.4700	 1075.00	 1070.72	-1742.72	  390.19
     67.5700	 1295.00	 1281.41	-1733.41	  390.34
     67.6700	 1519.00	 1533.12	-1761.12	  390.50
     67.7700	 1885.00	 1808.58	-1670.58	  390.65
     67.8700	 2080.00	 2077.88	-1744.88	  390.80
     67.9700	 2235.00	 2299.98	-1811.98	  390.96
     68.0700	 2487.00	 2428.88	-1688.88	  391.11
     68.1700	 2460.00	 2431.41	-1718.41	  391.27
     68.2700	 2309.00	 2306.82	-1744.82	  391.42
     68.3700	 2128.00	 2087.54	-1706.54	  391.57
     68.4700	 1801.00	 1819.33	-1765.33	  391.73
     68.5700	 1570.00	 1543.92	-1720.92	  391.88
     68.6700	 1270.00	 1291.45	-1768.45	  392.03
     68.7700	 1019.00	 1079.68	-1807.68	  392.18
     68.8700	  860.00	  914.93	-1801.93	  392.34
     68.9700	  770.00	  795.13	-1772.13	  392.49
     69.0700	  791.00	  712.99	-1668.99	  392.64
     69.1700	  618.00	  659.35	-1788.35	  392.79
     69.2700	  628.00	  625.51	-1744.51	  392.94
     69.3700	  615.00	  604.51	-1736.51	  393.09
     69.4700	  584.00	  591.39	-1754.39	  393.25
     69.5700	  571.00	  582.95	-1758.95	  393.40
     69.6700	  605.00	  577.31	-1719.31	  393.55
     69.7700	  551.00	  573.43	-1769.43	  393.70
     69.8700	  625.00	  570.74	-1692.74	  393.84
     69.9700	  539.00	  568.98	-1776.98	  393.99
     70.0700	  582.00	  567.99	-1732.99	  394.14
     70.1700	  600.00	  567.76	-1714.76	  394.29
     70.2700	  596.00	  568.26	-1719.26	  394.44
     70.3700	  618.00	  569.63	-1698.63	  394.59
     70.4700	  544.00	  572.11	-1775.11	  394.73
     70.5700	  569.00	  576.21	-1754.21	  394.88
     70.6700	  583.00	  582.83	-1746.83	  395.03
     70.7700	  586.00	  593.53	-1754.53	  395.17
     70.8700	  570.00	  610.78	-1787.78	  395.32
     70.9700	  636.00	  638.15	-1749.15	  395.46
     71.0700	  673.00	  680.41	-1754.41	  395.61
     71.1700	  742.00	  743.19	-1748.19	  395.75
     71.2700	  822.00	  832.02	-1757.02	  395.89
     71.3700	  906.00	  950.99	-1791.99	  396.04
     71.4700	 1096.00	 1100.83	-1751.83	  396.18
     71.5700	 1203.00	 1277.91	-1821.91	  396.32
     71.6700	 1453.00	 1469.63	-1763.63	  396.46
     71.7700	 1577.00	 1658.60	-1828.60	  396.60
     71.8700	 1799.00	 1820.07	-1768.07	  396.74
     71.9700	 1868.00	 1925.88	-1804.88	  396.88
     72.0700	 1943.00	 1953.13	-1757.13	  397.02
     72.1700	 1780.00	 1895.25	-1862.25	  397.16
     72.2700	 1764.00	 1766.10	-1749.10	  397.29
     72.3700	 1582.00	 1591.95	-1756.95	  397.43
     72.4700	 1488.00	 1399.84	-1658.84	  397.57
     72.5700	 1330.00	 1212.98	-1629.98	  397.70
     72.6700	 1155.00	 1046.20	-1638.20	  397.84
     72.7700	 1022.00	  907.79	-1632.79	  397.97
     72.8700	  877.00	  799.91	-1669.91	  398.11
     72.9700	  851.00	  720.37	-1616.37	  398.24
     73.0700	  740.00	  664.41	-1671.41	  398.37
     73.1700	  704.00	  626.49	-1669.49	  398.50
     73.2700	  695.00	  601.42	-1653.42	  398.63
     73.3700	  660.00	  584.98	-1671.98	  398.76
     73.4700	  663.00	  574.12	-1658.12	  398.89
     73.5700	  621.00	  566.79	-1692.79	  399.02
     73.6700	  577.00	  561.73	-1731.73	  399.15
     73.7700	  615.00	  558.19	-1690.19	  399.28
     73.8700	  612.00	  555.75	-1690.75	  399.40
     73.9700	  610.00	  554.15	-1691.15	  399.53
     74.0700	  588.00	  553.22	-1712.22	  399.65
     74.1700	  596.00	  552.81	-1703.81	  399.78
     74.2700	  631.00	  552.75	-1668.75	  399.90
     74.3700	  580.00	  552.86	-1719.86	  400.02
     74.4700	  643.00	  552.95	-1656.95	  400.14
     74.5700	  647.00	  552.79	-1652.79	  400.26
     74.6700	  633.00	  552.24	-1666.24	  400.38
     74.7700	  654.00	  551.27	-1644.27	  400.50
     74.8700	  630.00	  550.00	-1667.00	  400.62
     74.9700	  604.00	  548.65	-1691.65	  400.73
     75.0700	  623.00	  547.47	-1671.47	  400.85
     75.1700	  582.00	  546.69	-1711.69	  400.96
     75.2700	  613.00	  546.75	-1680.75	  401.08
     75.3700	  593.00	  547.97	-1701.97	  401.19
     75.4700	  580.00	  550.76	-1717.76	  401.30
     75.5700	  533.00	  555.63	-1769.63	  401.41
     75.6700	  556.00	  563.28	-1754.28	  401.52
     75.7700	  574.00	  574.12	-1747.12	  401.63
     75.8700	  573.00	  588.44	-1762.44	  401.74
     75.9700	  615.00	  606.21	-1738.21	  401.85
     76.0700	  646.00	  626.86	-1727.86	  401.95
     76.1700	  668.00	  649.19	-1728.19	  402.06
     76.2700	  653.00	  671.38	-1765.38	  402.16
     76.3700	  683.00	  690.94	-1754.94	  402.27
     76.4700	  713.00	  705.07	-1739.07	  402.37
     76.5700	  661.00	  711.21	-1797.21	  402.47
     76.6700	  675.00	  708.09	-1780.09	  402.57
     76.7700	  663.00	  696.34	-1780.34	  402.67
     76.8700	  663.00	  678.17	-1762.17	  402.77
     76.9700	  636.00	  656.21	-1767.21	  402.86
     77.0700	  645.00	  633.46	-1735.46	  402.96
     77.1700	  603.00	  611.80	-1755.80	  403.05
     77.2700	  590.00	  592.63	-1749.63	  403.14
     77.3700	  551.00	  576.69	-1772.69	  403.24
     77.4700	  547.00	  564.18	-1764.18	  403.33
     77.5700	  539.00	  554.84	-1762.84	  403.42
     77.6700	  554.00	  548.19	-1741.19	  403.51
     77.7700	  508.00	  543.65	-1782.65	  403.59
     77.8700	  505.00	  540.64	-1782.64	  403.68
     77.9700	  517.00	  538.71	-1768.71	  403.76
     78.0700	  530.00	  537.48	-1754.48	  403.85
     78.1700	  506.00	  536.71	-1777.71	  403.93
     78.2700	  542.00	  536.23	-1741.23	  404.01
     78.3700	  517.00	  535.94	-1765.94	  404.09
     78.4700	  503.00	  535.79	-1779.79	  404.17
     78.5700	  518.00	  535.76	-1764.76	  404.25
     78.6700	  531.00	  535.84	-1751.84	  404.33
     78.7700	  522.00	  536.05	-1761.05	  404.40
     78.8700	  555.00	  536.41	-1728.41	  404.48
     78.9700	  530.00	  536.96	-1753.96	  404.55
     79.0700	  483.00	  537.74	-1801.74	  404.62
     79.1700	  525.00	  538.83	-1760.83	  404.69
     79.2700	  525.00	  540.26	-1762.26	  404.76
     79.3700	  550.00	  541.93	-1738.93	  404.83
     79.4700	  534.00	  544.25	-1757.25	  404.89
     79.5700	  567.00	  547.09	-1727.09	  404.96
     79.6700	  519.00	  550.50	-1778.50	  405.02
     79.7700	  549.00	  554.56	-1752.56	  405.08
     79.8700	  527.00	  559.36	-1779.36	  405.14
     79.9700	  540.00	  565.04	-1772.04	  405.20
     80.0700	  575.00	  571.82	-1743.82	  405.26
     80.1700	  537.00	  579.97	-1789.97	  405.32
     80.2700	  539.00	  589.88	-1797.88	  405.37
     80.3700	  578.00	  601.88	-1770.88	  405.43
     80.4700	  575.00	  616.15	-1788.15	  405.48
     80.5700	  598.00	  632.63	-1781.63	  405.53
     80.6700	  632.00	  650.89	-1765.89	  405.58
     80.7700	  647.00	  670.11	-1770.11	  405.63
     80.8700	  702.00	  689.09	-1734.09	  405.68
     80.9700	  712.00	  706.43	-1741.43	  405.72
     81.0700	  737.00	  720.79	-1730.79	  405.77
     81.1700	  764.00	  731.08	-1714.08	  405.81
     81.2700	  751.00	  736.52	-1732.52	  405.85
     81.3700	  738.00	  736.72	-1745.72	  405.89
     81.4700	  787.00	  731.76	-1691.76	  405.93
     81.5700	  752.00	  722.10	-1717.10	  405.97
     81.6700	  773.00	  708.49	-1682.49	  406.00
     81.7700	  726.00	  691.86	-1712.86	  406.04
     81.8700	  734.00	  673.29	-1686.29	  406.07
     81.9700	  684.00	  654.01	-1717.01	  406.10
     82.0700	  647.00	  635.15	-1735.15	  406.13
     82.1700	  620.00	  617.57	-1744.57	  406.16
     82.2700	  645.00	  601.96	-1703.96	  406.19
     82.3700	  572.00	  588.57	-1763.57	  406.21
     82.4700	  593.00	  577.51	-1731.51	  406.24
     82.5700	  586.00	  568.74	-1729.74	  406.26
     82.6700	  564.00	  562.12	-1745.12	  406.28
     82.7700	  595.00	  557.55	-1709.55	  406.30
     82.8700	  586.00	  554.83	-1715.83	  406.32
     82.9700	  488.00	  553.82	-1812.82	  406.33
     83.0700	  513.00	  554.38	-1788.38	  406.35
     83.1700	  548.00	  556.39	-1755.39	  406.36
     83.2700	  520.00	  559.72	-1786.72	  406.37
     83.3700	  556.00	  564.17	-1755.17	  406.38
     83.4700	  529.00	  569.48	-1787.48	  406.39
     83.5700	  534.00	  575.30	-1788.30	  406.40
     83.6700	  549.00	  581.15	-1779.15	  406.40
     83.7700	  599.00	  586.48	-1734.48	  406.41
     83.8700	  576.00	  590.65	-1761.65	  406.41
     83.9700	  578.00	  593.07	-1762.07	  406.41
     84.0700	  597.00	  593.33	-1743.33	  406.41
     84.1700	  556.00	  591.34	-1782.34	  406.41
     84.2700	  578.00	  587.39	-1756.39	  406.40
     84.3700	  537.00	  582.01	-1792.01	  406.40
     84.4700	  548.00	  575.81	-1774.81	  406.39
     84.5700	  548.00	  569.36	-1768.36	  406.38
     84.6700	  533.00	  563.09	-1777.09	  406.37
     84.7700	  558.00	  557.36	-1746.36	  406.36
     84.8700	  542.00	  552.39	-1757.39	  406.35
     84.9700	  569.00	  548.26	-1726.26	  406.33
     85.0700	  549.00	  545.00	-1743.00	  406.31
     85.1700	  552.00	  542.54	-1737.54	  406.30
     85.2700	  526.00	  540.79	-1761.79	  406.28
     85.3700	  550.00	  539.64	-1736.64	  406.25
     85.4700	  513.00	  538.98	-1772.98	  406.23
     85.5700	  492.00	  538.73	-1793.73	  406.21
     85.6700	  552.00	  538.85	-1733.85	  406.18
     85.7700	  498.00	  539.31	-1788.31	  406.15
     85.8700	  524.00	  540.14	-1763.14	  406.12
     85.9700	  551.00	  541.41	-1737.41	  406.09
     86.0700	  526.00	  543.22	-1764.22	  406.06
     86.1700	  544.00	  545.71	-1748.71	  406.02
     86.2700	  494.00	  549.07	-1802.07	  405.99
     86.3700	  515.00	  553.46	-1785.46	  405.95
     86.4700	  545.00	  559.05	-1761.05	  405.91
     86.5700	  567.00	  565.98	-1745.98	  405.87
     86.6700	  578.00	  574.26	-1743.26	  405.82
     86.7700	  631.00	  583.79	-1699.79	  405.78
     86.8700	  587.00	  594.30	-1754.30	  405.73
     86.9700	  579.00	  604.99	-1772.99	  405.68
     87.0700	  604.00	  615.86	-1758.86	  405.63
     87.1700	  621.00	  625.77	-1751.77	  405.58
     87.2700	  687.00	  633.79	-1693.79	  405.53
     87.3700	  689.00	  639.01	-1697.01	  405.48
     87.4700	  683.00	  640.77	-1704.77	  405.42
     87.5700	  635.00	  638.83	-1750.83	  405.36
     87.6700	  594.00	  633.50	-1786.50	  405.30
     87.7700	  648.00	  625.54	-1724.54	  405.24
     87.8700	  621.00	  615.93	-1741.93	  405.18
     87.9700	  628.00	  605.66	-1724.66	  405.11
     88.0700	  655.00	  595.63	-1687.63	  405.05
     88.1700	  612.00	  586.58	-1721.58	  404.98
     88.2700	  588.00	  579.08	-1738.08	  404.91
     88.3700	  585.00	  573.48	-1735.48	  404.84
     88.4700	  581.00	  569.96	-1735.96	  404.76
     88.5700	  595.00	  568.50	-1720.50	  404.69
     88.6700	  524.00	  568.94	-1791.94	  404.61
     88.7700	  583.00	  570.99	-1734.99	  404.54
     88.8700	  564.00	  574.25	-1757.25	  404.46
     88.9700	  571.00	  578.27	-1754.27	  404.37
     89.0700	  595.00	  582.50	-1734.50	  404.29
     89.1700	  612.00	  586.41	-1721.41	  404.21
     89.2700	  581.00	  589.43	-1755.43	  404.12
     89.3700	  614.00	  591.11	-1724.11	  404.03
     89.4700	  589.00	  591.12	-1749.12	  403.94
     89.5700	  597.00	  589.42	-1739.42	  403.85
     89.6700	  543.00	  586.17	-1790.17	  403.76
     89.7700	  576.00	  581.76	-1752.76	  403.66
     89.8700	  587.00	  576.59	-1736.59	  403.57
     89.9700	  553.00	  571.10	-1765.10	  403.47
     90.0700	  534.00	  565.64	-1778.64	  403.37
     90.1700	  557.00	  560.51	-1750.51	  403.27
     90.2700	  531.00	  555.90	-1771.90	  403.17
     90.3700	  519.00	  551.94	-1779.94	  403.06
     90.4700	  577.00	  548.69	-1718.69	  402.96
     90.5700	  520.00	  546.14	-1773.14	  402.85
     90.6700	  528.00	  544.24	-1763.24	  402.74
     90.7700	  534.00	  542.93	-1755.93	  402.63
     90.8700	  533.00	  542.11	-1756.11	  402.52
     90.9700	  485.00	  541.74	-1803.74	  402.40
     91.0700	  532.00	  541.76	-1756.76	  402.29
     91.1700	  506.00	  542.15	-1783.15	  402.17
     91.2700	  517.00	  542.93	-1772.93	  402.05
     91.3700	  487.00	  544.15	-1804.15	  401.93
     91.4700	  515.00	  545.92	-1777.92	  401.81
     91.5700	  530.00	  548.36	-1765.36	  401.68
     91.6700	  508.00	  551.65	-1790.65	  401.56
     91.7700	  499.00	  556.00	-1804.00	  401.43
     91.8700	  527.00	  561.63	-1781.63	  401.30
     91.9700	  556.00	  568.74	-1759.74	  401.17
     92.0700	  573.00	  577.32	-1751.32	  401.04
     92.1700	  583.00	  587.94	-1751.94	  400.91
     92.2700	  598.00	  600.44	-1749.44	  400.77
     92.3700	  606.00	  614.74	-1755.74	  400.63
     92.4700	  604.00	  630.66	-1773.66	  400.50
     92.5700	  646.00	  647.86	-1748.86	  400.36
     92.6700	  667.00	  665.86	-1745.86	  400.21
     92.7700	  687.00	  684.04	-1744.04	  400.07
     92.8700	  791.00	  701.65	-1657.65	  399.93
     92.9700	  663.00	  717.96	-1801.96	  399.78
     93.0700	  755.00	  732.31	-1724.31	  399.63
     93.1700	  786.00	  744.37	-1705.37	  399.49
     93.2700	  775.00	  754.20	-1726.20	  399.33
     93.3700	  815.00	  762.23	-1694.23	  399.18
     93.4700	  849.00	  769.08	-1667.08	  399.03
     93.5700	  827.00	  775.43	-1695.43	  398.87
     93.6700	  853.00	  781.90	-1675.90	  398.72
     93.7700	  878.00	  789.01	-1658.01	  398.56
     93.8700	  835.00	  797.27	-1709.27	  398.40
     93.9700	  808.00	  807.15	-1746.15	  398.24
     94.0700	  818.00	  819.05	-1748.05	  398.08
     94.1700	  799.00	  833.12	-1781.12	  397.91
     94.2700	  859.00	  849.17	-1737.17	  397.75
     94.3700	  936.00	  866.54	-1677.54	  397.58
     94.4700	  931.00	  884.11	-1700.11	  397.41
     94.5700	  945.00	  900.33	-1702.33	  397.24
     94.6700	  891.00	  913.39	-1769.39	  397.07
     94.7700	  911.00	  921.39	-1757.39	  396.90
     94.8700	  909.00	  922.73	-1760.73	  396.73
     94.9700	  887.00	  916.51	-1776.51	  396.55
     95.0700	  913.00	  902.81	-1736.81	  396.37
     95.1700	  913.00	  882.63	-1716.63	  396.20
     95.2700	  860.00	  857.64	-1744.64	  396.02
     95.3700	  809.00	  829.85	-1767.85	  395.84
     95.4700	  805.00	  801.30	-1743.30	  395.65
     95.5700	  808.00	  773.95	-1712.95	  395.47
     95.6700	  686.00	  749.61	-1810.61	  395.29
     95.7700	  720.00	  729.91	-1756.91	  395.10
     95.8700	  715.00	  716.28	-1748.28	  394.91
     95.9700	  708.00	  710.00	-1749.00	  394.72
     96.0700	  717.00	  712.17	-1742.17	  394.53
     96.1700	  691.00	  723.68	-1779.68	  394.34
     96.2700	  724.00	  745.22	-1768.22	  394.15
     96.3700	  770.00	  777.22	-1754.22	  393.96
     96.4700	  778.00	  819.75	-1788.75	  393.76
     96.5700	  848.00	  872.44	-1771.44	  393.56
     96.6700	  927.00	  934.37	-1754.37	  393.37
     96.7700	 1057.00	 1004.03	-1694.03	  393.17
     96.8700	 1076.00	 1079.19	-1750.19	  392.97
     96.9700	 1084.00	 1156.90	-1819.90	  392.77
     97.0700	 1249.00	 1233.57	-1731.57	  392.56
     97.1700	 1278.00	 1305.02	-1774.02	  392.36
     97.2700	 1361.00	 1366.72	-1752.72	  392.16
     97.3700	 1336.00	 1414.14	-1825.14	  391.95
     97.4700	 1408.00	 1443.42	-1782.42	  391.74
     97.5700	 1426.00	 1452.14	-1773.14	  391.53
     97.6700	 1517.00	 1439.82	-1669.82	  391.33
     97.7700	 1339.00	 1408.09	-1816.09	  391.11
     97.8700	 1391.00	 1360.15	-1716.15	  390.90
     97.9700	 1239.00	 1300.14	-1808.14	  390.69
     98.0700	 1211.00	 1232.49	-1768.49	  390.48
     98.1700	 1160.00	 1161.44	-1748.44	  390.26
     98.2700	 1112.00	 1090.93	-1725.93	  390.05
     98.3700	 1039.00	 1024.33	-1732.33	  389.83
     98.4700	  940.00	  964.46	-1771.46	  389.61
     98.5700	  854.00	  913.60	-1806.60	  389.39
     98.6700	  841.00	  873.50	-1779.50	  389.17
     98.7700	  817.00	  845.46	-1775.46	  388.95
     98.8700	  827.00	  830.43	-1750.43	  388.73
     98.9700	  818.00	  829.06	-1758.06	  388.51
     99.0700	  854.00	  841.73	-1734.73	  388.28
     99.1700	  867.00	  868.68	-1748.68	  388.06
     99.2700	  904.00	  909.87	-1752.87	  387.84
     99.3700	  997.00	  965.10	-1715.10	  387.61
     99.4700	 1016.00	 1033.82	-1764.82	  387.38
     99.5700	 1110.00	 1115.10	-1752.10	  387.15
     99.6700	 1200.00	 1207.55	-1754.55	  386.92
     99.7700	 1318.00	 1309.15	-1738.15	  386.70
     99.8700	 1393.00	 1417.24	-1771.24	  386.46
     99.9700	 1513.00	 1528.40	-1762.40	  386.23
    100.0700	 1689.00	 1638.62	-1696.62	  386.00
    100.1700	 1786.00	 1743.41	-1704.41	  385.77
    100.2700	 1827.00	 1838.24	-1758.24	  385.53
    100.3700	 1837.00	 1919.06	-1829.06	  385.30
    100.4700	 1951.00	 1982.66	-1778.66	  385.07
    100.5700	 2080.00	 2026.83	-1693.83	  384.83
    100.6700	 2079.00	 2050.15	-1718.15	  384.59
    100.7700	 2081.00	 2051.84	-1717.84	  384.36
    100.8700	 2070.00	 2031.78	-1708.78	  384.12
    100.9700	 2107.00	 1990.72	-1630.72	  383.88
    101.0700	 1959.00	 1930.66	-1718.66	  383.64
    101.1700	 1871.00	 1854.98	-1730.98	  383.40
    101.2700	 1839.00	 1768.22	-1676.22	  383.16
    101.3700	 1671.00	 1675.46	-1751.46	  382.92
    101.4700	 1550.00	 1581.73	-1778.73	  382.68
    101.5700	 1482.00	 1491.45	-1756.45	  382.44
    101.6700	 1431.00	 1408.21	-1724.21	  382.20
    101.7700	 1368.00	 1334.55	-1713.55	  381.95
    101.8700	 1282.00	 1271.91	-1736.91	  381.71
    101.9700	 1252.00	 1220.72	-1715.72	  381.47
    102.0700	 1180.00	 1180.41	-1747.41	  381.22
    102.1700	 1092.00	 1149.56	-1804.56	  380.98
    102.2700	 1091.00	 1126.08	-1782.08	  380.73
    102.3700	 1094.00	 1107.39	-1760.39	  380.49
    102.4700	 1070.00	 1090.74	-1767.74	  380.24
    102.5700	 1083.00	 1073.51	-1737.51	  380.00
    102.6700	 1076.00	 1053.60	-1724.60	  379.75
    102.7700	 1014.00	 1029.64	-1762.64	  379.51
    102.8700	 1033.00	 1001.14	-1715.14	  379.26
    102.9700	  972.00	  968.37	-1743.37	  379.01
    103.0700	  930.00	  932.16	-1749.16	  378.76
    103.1700	  879.00	  893.64	-1761.64	  378.52
    103.2700	  830.00	  854.04	-1771.04	  378.27
    103.3700	  816.00	  814.60	-1745.60	  378.02
    103.4700	  744.00	  776.42	-1779.42	  377.77
    103.5700	  754.00	  740.41	-1733.41	  377.53
    103.6700	  691.00	  707.30	-1763.30	  377.28
    103.7700	  708.00	  677.59	-1716.59	  377.03
    103.8700	  685.00	  651.54	-1713.54	  376.78
    103.9700	  610.00	  629.25	-1766.25	  376.53
    104.0700	  625.00	  610.60	-1732.60	  376.29
    104.1700	  573.00	  595.37	-1769.37	  376.04
    104.2700	  565.00	  583.24	-1765.24	  375.79
    104.3700	  601.00	  573.83	-1719.83	  375.54
    104.4700	  557.00	  566.77	-1756.77	  375.30
    104.5700	  570.00	  561.67	-1738.67	  375.05
    104.6700	  571.00	  558.19	-1734.19	  374.80
    104.7700	  575.00	  556.02	-1728.02	  374.55
    104.8700	  572.00	  554.89	-1729.89	  374.31
    104.9700	  511.00	  554.59	-1790.59	  374.06
    105.0700	  556.00	  554.97	-1745.97	  373.81
    105.1700	  560.00	  555.88	-1742.88	  373.57
    105.2700	  547.00	  557.24	-1757.24	  373.32
    105.3700	  547.00	  559.03	-1759.03	  373.07
    105.4700	  559.00	  561.24	-1749.24	  372.83
    105.5700	  548.00	  563.90	-1762.90	  372.58
    105.6700	  556.00	  567.09	-1758.09	  372.34
    105.7700	  525.00	  570.89	-1792.89	  372.09
    105.8700	  512.00	  575.41	-1810.41	  371.85
    105.9700	  566.00	  580.75	-1761.75	  371.61
    106.0700	  555.00	  586.97	-1778.97	  371.36
    106.1700	  608.00	  594.10	-1733.10	  371.12
    106.2700	  609.00	  602.11	-1740.11	  370.88
    106.3700	  596.00	  610.90	-1761.90	  370.64
    106.4700	  614.00	  620.31	-1753.31	  370.40
    106.5700	  565.00	  630.13	-1812.13	  370.16
    106.6700	  629.00	  640.06	-1758.06	  369.92
    106.7700	  657.00	  649.78	-1739.78	  369.68
    106.8700	  614.00	  658.93	-1791.93	  369.44
    106.9700	  621.00	  667.11	-1793.11	  369.21
    107.0700	  647.00	  673.99	-1773.99	  368.97
    107.1700	  664.00	  679.27	-1762.27	  368.74
    107.2700	  676.00	  682.82	-1753.82	  368.50
    107.3700	  708.00	  684.63	-1723.63	  368.27
    107.4700	  675.00	  684.88	-1756.88	  368.04
    107.5700	  695.00	  683.89	-1735.89	  367.80
    107.6700	  675.00	  682.06	-1754.06	  367.57
    107.7700	  659.00	  679.82	-1767.82	  367.34
    107.8700	  696.00	  677.56	-1728.56	  367.11
    107.9700	  690.00	  675.63	-1732.63	  366.89
    108.0700	  638.00	  674.26	-1783.26	  366.66
    108.1700	  690.00	  673.57	-1730.57	  366.43
    108.2700	  719.00	  673.59	-1701.59	  366.21
    108.3700	  631.00	  674.22	-1790.22	  365.99
    108.4700	  694.00	  675.27	-1728.27	  365.76
    108.5700	  673.00	  676.43	-1750.43	  365.54
    108.6700	  682.00	  677.37	-1742.37	  365.32
    108.7700	  695.00	  677.67	-1729.67	  365.11
    108.8700	  677.00	  676.98	-1746.98	  364.89
    108.9700	  715.00	  674.96	-1706.96	  364.67
    109.0700	  663.00	  671.44	-1755.44	  364.46
    109.1700	  702.00	  666.35	-1711.35	  364.25
    109.2700	  648.00	  659.77	-1758.77	  364.04
    109.3700	  653.00	  651.90	-1745.90	  363.83
    109.4700	  597.00	  643.02	-1793.02	  363.62
    109.5700	  626.00	  633.43	-1754.43	  363.41
    109.6700	  628.00	  623.48	-1742.48	  363.21
    109.7700	  617.00	  613.45	-1743.45	  363.00
    109.8700	  614.00	  603.65	-1736.65	  362.80
    109.9700	  596.00	  594.31	-1745.31	  362.60
    110.0700	  634.00	  585.63	-1698.63	  362.40
    110.1700	  586.00	  577.76	-1738.76	  362.21
    110.2700	  610.00	  570.80	-1707.80	  362.01
    110.3700	  603.00	  564.81	-1708.81	  361.82
    110.4700	  573.00	  559.79	-1733.79	  361.63
    110.5700	  547.00	  555.73	-1755.73	  361.44
    110.6700	  558.00	  552.57	-1741.57	  361.25
    110.7700	  588.00	  550.24	-1709.24	  361.07
    110.8700	  561.00	  548.66	-1734.66	  360.88
    110.9700	  527.00	  547.74	-1767.74	  360.70
    111.0700	  560.00	  547.40	-1734.40	  360.53
    111.1700	  557.00	  547.56	-1737.56	  360.35
    111.2700	  581.00	  548.15	-1714.15	  360.17
    111.3700	  540.00	  549.10	-1756.10	  360.00
    111.4700	  552.00	  550.36	-1745.36	  359.83
    111.5700	  541.00	  551.90	-1757.90	  359.66
    111.6700	  522.00	  553.67	-1778.67	  359.50
    111.7700	  523.00	  555.66	-1779.66	  359.34
    111.8700	  511.00	  557.86	-1793.86	  359.18
    111.9700	  521.00	  560.26	-1786.26	  359.02
    112.0700	  537.00	  562.87	-1772.87	  358.86
    112.1700	  578.00	  565.69	-1734.69	  358.71
    112.2700	  641.00	  568.76	-1674.76	  358.56
    112.3700	  584.00	  572.09	-1735.09	  358.41
    112.4700	  552.00	  575.73	-1770.73	  358.27
    112.5700	  668.00	  579.72	-1658.72	  358.12
    112.6700	  597.00	  584.13	-1734.13	  357.98
    112.7700	  632.00	  589.05	-1704.05	  357.85
    112.8700	  654.00	  594.57	-1687.57	  357.71
    112.9700	  640.00	  600.86	-1707.86	  357.58
    113.0700	  640.00	  608.09	-1715.09	  357.45
    113.1700	  678.00	  616.50	-1685.50	  357.33
    113.2700	  712.00	  626.42	-1661.42	  357.20
    113.3700	  728.00	  638.21	-1657.21	  357.08
    113.4700	  752.00	  652.44	-1647.44	  356.97
    113.5700	  831.00	  669.70	-1585.70	  356.85
    113.6700	  790.00	  690.80	-1647.80	  356.74
    113.7700	  855.00	  716.69	-1608.69	  356.64
    113.8700	  862.00	  748.54	-1633.54	  356.53
    113.9700	  883.00	  787.70	-1651.70	  356.43
    114.0700	  941.00	  835.76	-1641.76	  356.34
    114.1700	 1040.00	  894.53	-1601.53	  356.24
    114.2700	 1027.00	  966.01	-1686.01	  356.15
    114.3700	 1195.00	 1052.39	-1604.39	  356.06
    114.4700	 1292.00	 1155.97	-1610.97	  355.98
    114.5700	 1322.00	 1279.09	-1704.09	  355.90
    114.6700	 1564.00	 1424.07	-1607.07	  355.83
    114.7700	 1727.00	 1593.10	-1613.10	  355.75
    114.8700	 1910.00	 1788.00	-1625.00	  355.68
    114.9700	 2093.00	 2010.19	-1664.19	  355.62
    115.0700	 2485.00	 2260.43	-1522.43	  355.56
    115.1700	 2583.00	 2538.80	-1702.80	  355.50
    115.2700	 2975.00	 2844.47	-1616.47	  355.45
    115.3700	 3040.00	 3175.49	-1882.49	  355.40
    115.4700	 3470.00	 3528.81	-1805.81	  355.35
    115.5700	 3779.00	 3900.10	-1868.10	  355.31
    115.6700	 4066.00	 4283.91	-1964.91	  355.27
    115.7700	 4471.00	 4673.56	-1949.56	  355.24
    115.8700	 4805.00	 5061.06	-2003.06	  355.21
    115.9700	 5172.00	 5437.41	-2012.41	  355.18
    116.0700	 5675.00	 5792.62	-1864.62	  355.16
    116.1700	 5837.00	 6116.19	-2026.19	  355.14
    116.2700	 6297.00	 6397.35	-1847.35	  355.13
    116.3700	 6575.00	 6625.61	-1797.61	  355.12
    116.4700	 6696.00	 6791.68	-1842.68	  355.12
    116.5700	 6901.00	 6888.31	-1734.31	  355.12
    116.6700	 6988.00	 6911.25	-1670.25	  355.13
    116.7700	 6946.00	 6859.61	-1660.61	  355.14
    116.8700	 6851.00	 6736.13	-1632.13	  355.15
    116.9700	 6609.00	 6546.73	-1684.73	  355.17
    117.0700	 6417.00	 6299.86	-1629.86	  355.20
    117.1700	 6004.00	 6005.45	-1748.45	  355.22
    117.2700	 5571.00	 5674.07	-1850.07	  355.26
    117.3700	 5272.00	 5316.43	-1791.43	  355.30
    117.4700	 4950.00	 4942.67	-1739.67	  355.34
    117.5700	 4562.00	 4562.17	-1747.17	  355.39
    117.6700	 4341.00	 4183.16	-1589.16	  355.44
    117.7700	 4019.00	 3812.70	-1540.70	  355.50
    117.8700	 3472.00	 3456.76	-1731.76	  355.57
    117.9700	 3132.00	 3120.01	-1735.01	  355.64
    118.0700	 2913.00	 2805.95	-1639.95	  355.71
    118.1700	 2550.00	 2516.85	-1713.85	  355.79
    118.2700	 2286.00	 2253.97	-1714.97	  355.88
    118.3700	 2081.00	 2017.74	-1683.74	  355.97
    118.4700	 1807.00	 1807.78	-1747.78	  356.06
    118.5700	 1571.00	 1623.11	-1799.11	  356.16
    118.6700	 1346.00	 1462.21	-1863.21	  356.27
    118.7700	 1259.00	 1323.24	-1811.24	  356.39
    118.8700	 1122.00	 1204.20	-1829.20	  356.50
    118.9700	 1095.00	 1102.95	-1754.95	  356.63
    119.0700	 1026.00	 1017.39	-1738.39	  356.76
    119.1700	  901.00	  945.44	-1791.44	  356.90
    119.2700	  809.00	  885.17	-1823.17	  357.04
    119.3700	  825.00	  834.85	-1756.85	  357.19
    119.4700	  816.00	  792.92	-1723.92	  357.34
    119.5700	  706.00	  758.01	-1799.01	  357.50
    119.6700	  662.00	  728.95	-1813.95	  357.67
    119.7700	  623.00	  704.74	-1828.74	  357.84
    119.8700	  650.00	  684.54	-1781.54	  358.02
    119.9700	  579.00	  667.67	-1835.67	  358.20
    120.0700	  605.00	  653.55	-1795.55	  358.40
    120.1700	  601.00	  641.73	-1787.73	  358.60
    120.2700	  592.00	  631.83	-1786.83	  358.80
    120.3700	  591.00	  623.55	-1779.55	  359.01
    120.4700	  590.00	  616.65	-1773.65	  359.23
    120.5700	  528.00	  610.95	-1829.95	  359.45
    120.6700	  536.00	  606.28	-1817.28	  359.69
    120.7700	  530.00	  602.54	-1819.54	  359.92
    120.8700	  575.00	  599.63	-1771.63	  360.17
    120.9700	  544.00	  597.48	-1800.48	  360.42
    121.0700	  569.00	  596.02	-1774.02	  360.68
    121.1700	  569.00	  595.22	-1773.22	  360.95
    121.2700	  590.00	  595.01	-1752.01	  361.22
    121.3700	  565.00	  595.37	-1777.37	  361.50
    121.4700	  586.00	  596.25	-1757.25	  361.79
    121.5700	  610.00	  597.61	-1734.61	  362.08
    121.6700	  595.00	  599.38	-1751.38	  362.39
    121.7700	  567.00	  601.52	-1781.52	  362.70
    121.8700	  566.00	  603.97	-1784.97	  363.01
    121.9700	  615.00	  606.62	-1738.62	  363.34
    122.0700	  603.00	  609.45	-1753.45	  363.67
    122.1700	  606.00	  612.34	-1753.34	  364.01
    122.2700	  578.00	  615.21	-1784.21	  364.36
    122.3700	  636.00	  617.96	-1728.96	  364.72
    122.4700	  627.00	  620.50	-1740.50	  365.08
    122.5700	  640.00	  622.73	-1729.73	  365.45
    122.6700	  695.00	  624.57	-1676.57	  365.83
    122.7700	  659.00	  625.94	-1713.94	  366.22
    122.8700	  654.00	  626.81	-1719.81	  366.62
    122.9700	  646.00	  627.15	-1728.15	  367.02
    123.0700	  645.00	  626.93	-1728.93	  367.43
    123.1700	  636.00	  626.19	-1737.19	  367.86
    123.2700	  614.00	  624.95	-1757.95	  368.28
    123.3700	  661.00	  623.27	-1709.27	  368.72
    123.4700	  576.00	  621.18	-1792.18	  369.17
    123.5700	  626.00	  618.77	-1739.77	  369.62
    123.6700	  624.00	  616.09	-1739.09	  370.09
    123.7700	  593.00	  613.21	-1767.21	  370.56
    123.8700	  605.00	  610.19	-1752.19	  371.04
    123.9700	  650.00	  607.09	-1704.09	  371.53
    124.0700	  661.00	  603.97	-1689.97	  372.03
    124.1700	  634.00	  600.87	-1713.87	  372.54
    124.2700	  667.00	  597.85	-1677.85	  373.06
    124.3700	  590.00	  594.94	-1751.94	  373.58
    124.4700	  637.00	  592.17	-1702.17	  374.12
    124.5700	  611.00	  589.56	-1725.56	  374.67
    124.6700	  570.00	  587.14	-1764.14	  375.22
    124.7700	  573.00	  584.92	-1758.92	  375.79
    124.8700	  594.00	  582.92	-1735.92	  376.36
    124.9700	  634.00	  495.32	-1608.32	  376.94
    125.0700	  559.00	  495.91	-1747.00	  377.54
    125.1700	  553.00	  496.51	-1747.00	  378.14
    125.2700	  578.00	  497.12	-1747.00	  378.75
    125.3700	  570.00	  497.75	-1747.00	  379.37
    125.4700	  550.00	  498.38	-1747.00	  380.01
    125.5700	  564.00	  499.02	-1747.00	  380.65
    125.6700	  527.00	  499.67	-1747.00	  381.30
    125.7700	  572.00	  500.34	-1747.00	  381.96
    125.8700	  571.00	  501.01	-1747.00	  382.64
    125.9700	  576.00	  501.69	-1747.00	  383.32
    126.0700	  594.00	  502.39	-1747.00	  384.01
    126.1700	  571.00	  503.09	-1747.00	  384.72
    126.2700	  592.00	  503.81	-1747.00	  385.43
    126.3700	  628.00	  504.53	-1747.00	  386.16
    126.4700	  572.00	  505.27	-1747.00	  386.90
    126.5700	  566.00	  506.02	-1747.00	  387.64
    126.6700	  588.00	  506.78	-1747.00	  388.40
    126.7700	  638.00	  507.54	-1747.00	  389.17
    126.8700	  587.00	  508.32	-1747.00	  389.95
    126.9700	  622.00	  509.12	-1747.00	  390.74
    127.0700	  631.00	  509.92	-1747.00	  391.54
    127.1700	  661.00	  510.73	-1747.00	  392.36
    127.2700	  634.00	  511.56	-1747.00	  393.18
    127.3700	  645.00	  512.39	-1747.00	  394.02
    127.4700	  596.00	  513.24	-1747.00	  394.87
    127.5700	  678.00	  514.10	-1747.00	  395.73
    127.6700	  690.00	  514.97	-1747.00	  396.60
    127.7700	  699.00	  515.86	-1747.00	  397.48
    127.8700	  733.00	  516.75	-1747.00	  398.38
    127.9700	  773.00	  517.66	-1747.00	  399.28
    128.0700	  769.00	  518.58	-1747.00	  400.20
    128.1700	  760.00	  519.51	-1747.00	  401.13
    128.2700	  796.00	  520.45	-1747.00	  402.08
    128.3700	  784.00	  521.41	-1747.00	  403.03
    128.4700	  766.00	  522.37	-1747.00	  404.00
    128.5700	    0.00	  523.35	-1747.00	  404.98
    128.6700	    0.00	  524.35	-1747.00	  405.97
     12.3032	        	        	        	        	       0	(  0  0  2)	  0  1
     24.8831	        	        	        	        	       0	(  0  0  4)	  0  1
     28.3301	        	        	        	        	       0	(  1  0  0)	  0  1
     29.0269	        	        	        	        	       0	(  1  0  1)	  0  1
     31.0322	        	        	        	        	       0	(  1  0  2)	  0  1
     34.1393	        	        	        	        	       0	(  1  0  3)	  0  1
     37.7787	        	        	        	        	       0	(  0  0  6)	  0  1
     38.1147	        	        	        	        	       0	(  1  0  4)	  0  1
     42.7630	        	        	        	        	       0	(  1  0  5)	  0  1
     47.9450	        	        	        	        	       0	(  1  0  6)	  0  1
     50.2659	        	        	        	        	       0	(  1  1  0)	  0  1
     51.1961	        	        	        	        	       0	(  0  0  8)	  0  1
     51.9881	        	        	        	        	       0	(  1  1  2)	  0  1
     53.5733	        	        	        	        	       0	(  1  0  7)	  0  1
     56.9336	        	        	        	        	       0	(  1  1  4)	  0  1
     58.7624	        	        	        	        	       0	(  2  0  0)	  0  1
     59.1538	        	        	        	        	       0	(  2  0  1)	  0  1
     59.6013	        	        	        	        	       0	(  1  0  8)	  0  1
     60.3186	        	        	        	        	       0	(  2  0  2)	  0  1
     62.2309	        	        	        	        	       0	(  2  0  3)	  0  1
     64.6248	        	        	        	        	       0	(  1  1  6)	  0  1
     64.8537	        	        	        	        	       0	(  2  0  4)	  0  1
     65.4198	        	        	        	        	       0	(  0  0 10)	  0  1
     66.0150	        	        	        	        	       0	(  1  0  9)	  0  1
     68.1464	        	        	        	        	       0	(  2  0  5)	  0  1
     72.0720	        	        	        	        	       0	(  2  0  6)	  0  1
     72.8281	        	        	        	        	       0	(  1  0 10)	  0  1
     74.6578	        	        	        	        	       0	(  1  1  8)	  0  1
     76.6039	        	        	        	        	       0	(  2  0  7)	  0  1
     80.0823	        	        	        	        	       0	(  1  0 11)	  0  1
     80.8933	        	        	        	        	       0	(  0  0 12)	  0  1
     81.0021	        	        	        	        	       0	(  2  1  0)	  0  1
     81.3418	        	        	        	        	       0	(  2  1  1)	  0  1
     81.7316	        	        	        	        	       0	(  2  0  8)	  0  1
     82.3591	        	        	        	        	       0	(  2  1  2)	  0  1
     84.0495	        	        	        	        	       0	(  2  1  3)	  0  1
     86.4079	        	        	        	        	       0	(  2  1  4)	  0  1
     86.9229	        	        	        	        	       0	(  1  1 10)	  0  1
     87.4666	        	        	        	        	       0	(  2  0  9)	  0  1
     87.8525	        	        	        	        	       0	(  1  0 12)	  0  1
     89.4321	        	        	        	        	       0	(  2  1  5)	  0  1
     93.1275	        	        	        	        	       0	(  2  1  6)	  0  1
     93.8504	        	        	        	        	       0	(  2  0 10)	  0  1
     94.8898	        	        	        	        	       0	(  3  0  0)	  0  1
     95.2269	        	        	        	        	       0	(  3  0  1)	  0  1
     96.2608	        	        	        	        	       0	(  1  0 13)	  0  1
     96.2396	        	        	        	        	       0	(  3  0  2)	  0  1
     97.5136	        	        	        	        	       0	(  2  1  7)	  0  1
     97.9320	        	        	        	        	       0	(  3  0  3)	  0  1
     98.4225	        	        	        	        	       0	(  0  0 14)	  0  1
    100.3136	        	        	        	        	       0	(  3  0  4)	  0  1
    100.9679	        	        	        	        	       0	(  2  0 11)	  0  1
    101.7844	        	        	        	        	       0	(  1  1 12)	  0  1
    102.6330	        	        	        	        	       0	(  2  1  8)	  0  1
    103.4034	        	        	        	        	       0	(  3  0  5)	  0  1
    105.5070	        	        	        	        	       0	(  1  0 14)	  0  1
    107.2362	        	        	        	        	       0	(  3  0  6)	  0  1
    108.5660	        	        	        	        	       0	(  2  1  9)	  0  1
    108.9736	        	        	        	        	       0	(  2  0 12)	  0  1
    111.8735	        	        	        	        	       0	(  3  0  7)	  0  1
    115.4579	        	        	        	        	       0	(  2  1 10)	  0  1
    115.9417	        	        	        	        	       0	(  1  0 15)	  0  1
    116.6123	        	        	        	        	       0	(  2  2  0)	  0  1
    117.4231	        	        	        	        	       0	(  3  0  8)	  0  1
    118.1505	        	        	        	        	       0	(  2  0 13)	  0  1
    118.1266	        	        	        	        	       0	(  2  2  2)	  0  1
    119.8927	        	        	        	        	       0	(  0  0 16)	  0  1
    120.6134	        	        	        	        	       0	(  1  1 14)	  0  1
    122.8090	        	        	        	        	       0	(  2  2  4)	  0  1
    123.5782	        	        	        	        	       0	(  2  1 11)	  0  1
    124.0779	        	        	        	        	       0	(  3  0  9)	  0  1
    124.6763	        	        	        	        	       0	(  3  1  0)	  0  1
    125.0862	        	        	        	        	       0	(  3  1  1)	  0  1
    126.3288	        	        	        	        	       0	(  3  1  2)	  0  1
    128.2715	        	        	        	        	       0	(  1  0 16)	  0  1
    128.4456	        	        	        	        	       0	(  3  1  3)	  0  1
    129.0692	        	        	        	        	       0	(  2  0 14)	  0  1
    131.2426	        	        	        	        	       0	(  2  2  6)	  0  1
    131.5193	        	        	        	        	       0	(  3  1  4)	  0  1
    132.2111	        	        	        	        	       0	(  3  0 10)	  0  1
    133.4804	        	        	        	        	       0	(  2  1 12)	  0  1
    135.7030	        	        	        	        	       0	(  3  1  5)	  0  1
    141.2933	        	        	        	        	       0	(  3  1  6)	  0  1
    142.6775	        	        	        	        	       0	(  3  0 11)	  0  1
    143.1882	        	        	        	        	       0	(  2  0 15)	  0  1
    144.4135	        	        	        	        	       0	(  1  0 17)	  0  1
    145.4625	        	        	        	        	       0	(  2  2  8)	  0  1
    146.6169	        	        	        	        	       0	(  2  1 13)	  0  1
    148.9579	        	        	        	        	       0	(  3  1  7)	  0  1
    149.5037	        	        	        	        	       0	(  1  1 16)	  0  1
    153.8762	        	        	        	        	       0	(  0  0 18)	  0  1
    158.5226	        	        	        	        	       0	(  3  0 12)	  0  1
    158.8198	        	        	        	        	       0	(  4  0  0)	  0  1
    159.7753	        	        	        	        	       0	(  4  0  1)	  0  1
    160.9295	        	        	        	        	       0	(  3  1  8)	  0  1
    162.9487	        	        	        	        	       0	(  4  0  2)	  0  1
    169.4866	        	        	        	        	       0	(  2  0 16)	  0  1
    170.2722	        	        	        	        	       0	(  4  0  3)	  0  1
    173.8420	        	        	        	        	       0	(  2  1 14)	  0  1
