MSG Master    CELL:    5.91413   5.91413  23.25435   90.0000   90.0000  120.0000   SPGR: P 63/m m c             TEMP:    983.25
  1   1280     2.52000     0.00000    -0.12743     0.00000     0.00000    0
    99     0     2
       0.00000      10.00000
     125.00000     130.00000
 2Theta	Yobs	Ycal	Yobs-Ycal	Backg	Posr	(hkl)	K
      0.7700	    0.00	  520.77	-1725.93	  405.82
      0.8700	    0.00	  521.67	-1725.93	  406.72
      0.9700	   47.00	  522.55	-1725.93	  407.61
      1.0700	   53.00	  523.43	-1725.93	  408.48
      1.1700	   40.00	  524.29	-1725.93	  409.34
      1.2700	   51.00	  525.14	-1725.93	  410.20
      1.3700	   42.00	  525.98	-1725.93	  411.04
      1.4700	  110.00	  526.81	-1725.93	  411.87
      1.5700	  297.00	  527.63	-1725.93	  412.68
      1.6700	  439.00	  528.44	-1725.93	  413.49
      1.7700	  576.00	  529.23	-1725.93	  414.29
      1.8700	  661.00	  530.02	-1725.93	  415.07
      1.9700	  660.00	  530.79	-1725.93	  415.84
      2.0700	  790.00	  531.55	-1725.93	  416.61
      2.1700	  795.00	  532.30	-1725.93	  417.36
      2.2700	  781.00	  533.04	-1725.93	  418.10
      2.3700	  748.00	  533.77	-1725.93	  418.83
      2.4700	  668.00	  534.49	-1725.93	  419.55
      2.5700	  683.00	  535.20	-1725.93	  420.26
      2.6700	  678.00	  535.90	-1725.93	  420.95
      2.7700	  659.00	  536.59	-1725.93	  421.64
      2.8700	  630.00	  537.27	-1725.93	  422.32
      2.9700	  637.00	  537.93	-1725.93	  422.99
      3.0700	  568.00	  538.59	-1725.93	  423.64
      3.1700	  608.00	  539.24	-1725.93	  424.29
      3.2700	  658.00	  539.87	-1725.93	  424.93
      3.3700	  737.00	  540.50	-1725.93	  425.55
      3.4700	  813.00	  541.12	-1725.93	  426.17
      3.5700	  873.00	  541.72	-1725.93	  426.78
      3.6700	  910.00	  542.32	-1725.93	  427.37
      3.7700	  999.00	  542.91	-1725.93	  427.96
      3.8700	 1024.00	  543.49	-1725.93	  428.54
      3.9700	 1140.00	  544.05	-1725.93	  429.11
      4.0700	 1149.00	  544.61	-1725.93	  429.67
      4.1700	 1148.00	  545.16	-1725.93	  430.22
      4.2700	 1177.00	  545.70	-1725.93	  430.75
      4.3700	 1220.00	  546.23	-1725.93	  431.29
      4.4700	 1107.00	  546.75	-1725.93	  431.81
      4.5700	 1121.00	  547.27	-1725.93	  432.32
      4.6700	 1100.00	  547.77	-1725.93	  432.82
      4.7700	 1030.00	  548.26	-1725.93	  433.31
      4.8700	 1009.00	  548.75	-1725.93	  433.80
      4.9700	  997.00	  549.22	-1725.93	  434.27
      5.0700	  964.00	  549.69	-1725.93	  434.74
      5.1700	  970.00	  550.15	-1725.93	  435.20
      5.2700	  940.00	  550.60	-1725.93	  435.65
      5.3700	  920.00	  551.04	-1725.93	  436.09
      5.4700	  907.00	  551.47	-1725.93	  436.52
      5.5700	  878.00	  551.89	-1725.93	  436.94
      5.6700	  938.00	  552.31	-1725.93	  437.36
      5.7700	  838.00	  552.71	-1725.93	  437.77
      5.8700	  906.00	  553.11	-1725.93	  438.16
      5.9700	  858.00	  553.50	-1725.93	  438.55
      6.0700	  788.00	  553.88	-1725.93	  438.94
      6.1700	  766.00	  554.26	-1725.93	  439.31
      6.2700	  766.00	  554.62	-1725.93	  439.67
      6.3700	  791.00	  554.98	-1725.93	  440.03
      6.4700	  784.00	  555.33	-1725.93	  440.38
      6.5700	  816.00	  555.67	-1725.93	  440.72
      6.6700	  707.00	  556.00	-1725.93	  441.05
      6.7700	  760.00	  556.33	-1725.93	  441.38
      6.8700	  741.00	  556.65	-1725.93	  441.70
      6.9700	  762.00	  556.96	-1725.93	  442.01
      7.0700	  706.00	  557.26	-1725.93	  442.31
      7.1700	  697.00	  557.55	-1725.93	  442.61
      7.2700	  673.00	  557.84	-1725.93	  442.89
      7.3700	  697.00	  558.12	-1725.93	  443.17
      7.4700	  676.00	  558.39	-1725.93	  443.45
      7.5700	  687.00	  558.66	-1725.93	  443.71
      7.6700	  643.00	  558.92	-1725.93	  443.97
      7.7700	  706.00	  559.17	-1725.93	  444.22
      7.8700	  637.00	  559.41	-1725.93	  444.46
      7.9700	  659.00	  559.65	-1725.93	  444.70
      8.0700	  624.00	  559.88	-1725.93	  444.93
      8.1700	  583.00	  560.10	-1725.93	  445.15
      8.2700	  665.00	  560.31	-1725.93	  445.37
      8.3700	  602.00	  560.52	-1725.93	  445.58
      8.4700	  601.00	  560.72	-1725.93	  445.78
      8.5700	  663.00	  560.92	-1725.93	  445.97
      8.6700	  625.00	  561.11	-1725.93	  446.16
      8.7700	  602.00	  561.29	-1725.93	  446.34
      8.8700	  634.00	  561.46	-1725.93	  446.52
      8.9700	  613.00	  561.63	-1725.93	  446.69
      9.0700	  646.00	  561.80	-1725.93	  446.85
      9.1700	  599.00	  561.95	-1725.93	  447.00
      9.2700	  576.00	  562.10	-1725.93	  447.15
      9.3700	  606.00	  562.24	-1725.93	  447.30
      9.4700	  645.00	  562.38	-1725.93	  447.43
      9.5700	  633.00	  562.51	-1725.93	  447.56
      9.6700	  536.00	  562.64	-1725.93	  447.69
      9.7700	  593.00	  562.75	-1725.93	  447.81
      9.8700	  617.00	  562.87	-1725.93	  447.92
      9.9700	  624.00	  562.97	-1725.93	  448.02
     10.0700	  585.00	  564.60	-1705.53	  448.12
     10.1700	  557.00	  564.87	-1733.80	  448.22
     10.2700	  587.00	  565.16	-1704.10	  448.31
     10.3700	  576.00	  565.52	-1715.45	  448.39
     10.4700	  619.00	  565.96	-1672.89	  448.47
     10.5700	  614.00	  566.56	-1678.49	  448.54
     10.6700	  608.00	  567.40	-1685.33	  448.60
     10.7700	  588.00	  568.58	-1706.51	  448.66
     10.8700	  557.00	  570.18	-1739.11	  448.72
     10.9700	  600.00	  572.21	-1698.14	  448.77
     11.0700	  575.00	  574.66	-1725.59	  448.81
     11.1700	  580.00	  577.55	-1723.48	  448.85
     11.2700	  593.00	  580.91	-1713.84	  448.88
     11.3700	  615.00	  584.83	-1695.76	  448.91
     11.4700	  600.00	  589.46	-1715.39	  448.93
     11.5700	  566.00	  595.03	-1754.96	  448.95
     11.6700	  636.00	  601.92	-1691.85	  448.96
     11.7700	  630.00	  610.62	-1706.55	  448.97
     11.8700	  621.00	  621.57	-1726.51	  448.97
     11.9700	  668.00	  634.54	-1692.47	  448.97
     12.0700	  645.00	  647.54	-1728.47	  448.96
     12.1700	  647.00	  655.91	-1734.84	  448.95
     12.2700	  676.00	  652.97	-1702.90	  448.93
     12.3700	  648.00	  636.39	-1714.32	  448.91
     12.4700	  628.00	  614.39	-1712.32	  448.88
     12.5700	  625.00	  595.90	-1696.83	  448.85
     12.6700	  619.00	  583.54	-1690.47	  448.82
     12.7700	  520.00	  576.35	-1782.28	  448.77
     12.8700	  582.00	  572.41	-1716.34	  448.73
     12.9700	  586.00	  570.19	-1710.12	  448.68
     13.0700	  555.00	  568.80	-1739.73	  448.63
     13.1700	  534.00	  567.81	-1759.74	  448.57
     13.2700	  554.00	  567.07	-1739.00	  448.50
     13.3700	  566.00	  566.48	-1726.41	  448.44
     13.4700	  535.00	  566.00	-1756.93	  448.36
     13.5700	  564.00	  565.59	-1727.52	  448.29
     13.6700	  581.00	  565.24	-1710.17	  448.21
     13.7700	  546.00	  564.94	-1744.87	  448.12
     13.8700	  539.00	  564.67	-1751.60	  448.04
     13.9700	  538.00	  564.42	-1752.35	  447.94
     14.0700	  591.00	  564.19	-1699.12	  447.85
     14.1700	  617.00	  563.98	-1672.91	  447.75
     14.2700	  534.00	  563.78	-1755.71	  447.64
     14.3700	  564.00	  563.58	-1725.52	  447.53
     14.4700	  529.00	  563.43	-1760.36	  447.42
     14.5700	  532.00	  563.25	-1757.18	  447.31
     14.6700	  557.00	  563.07	-1732.00	  447.19
     14.7700	  500.00	  562.90	-1788.83	  447.06
     14.8700	  574.00	  562.73	-1714.66	  446.94
     14.9700	  570.00	  562.55	-1718.49	  446.81
     15.0700	  545.00	  562.38	-1743.32	  446.67
     15.1700	  542.00	  562.21	-1746.15	  446.53
     15.2700	  551.00	  562.04	-1736.97	  446.39
     15.3700	  571.00	  561.87	-1716.80	  446.25
     15.4700	  519.00	  561.70	-1768.63	  446.10
     15.5700	  543.00	  561.53	-1744.46	  445.95
     15.6700	  548.00	  561.35	-1739.28	  445.80
     15.7700	  536.00	  561.18	-1751.11	  445.64
     15.8700	  569.00	  561.00	-1717.93	  445.48
     15.9700	  571.00	  560.82	-1715.75	  445.31
     16.0700	  565.00	  560.64	-1721.57	  445.15
     16.1700	  548.00	  560.45	-1738.38	  444.97
     16.2700	  588.00	  560.27	-1698.20	  444.80
     16.3700	  550.00	  560.08	-1736.01	  444.62
     16.4700	  543.00	  559.89	-1742.82	  444.44
     16.5700	  543.00	  559.70	-1742.63	  444.26
     16.6700	  542.00	  559.50	-1743.44	  444.08
     16.7700	  543.00	  559.31	-1742.24	  443.89
     16.8700	  567.00	  559.11	-1718.04	  443.70
     16.9700	  562.00	  558.91	-1722.84	  443.50
     17.0700	  535.00	  558.71	-1749.64	  443.31
     17.1700	  549.00	  558.50	-1735.43	  443.11
     17.2700	  477.00	  558.29	-1807.22	  442.90
     17.3700	  567.00	  558.08	-1717.01	  442.70
     17.4700	  553.00	  557.87	-1730.80	  442.49
     17.5700	  552.00	  557.66	-1731.59	  442.28
     17.6700	  569.00	  557.44	-1714.37	  442.07
     17.7700	  527.00	  557.22	-1756.15	  441.85
     17.8700	  552.00	  557.00	-1730.93	  441.64
     17.9700	  551.00	  556.89	-1731.82	  441.42
     18.0700	  556.00	  556.67	-1726.60	  441.19
     18.1700	  585.00	  556.44	-1697.37	  440.97
     18.2700	  596.00	  556.21	-1686.15	  440.74
     18.3700	  513.00	  555.99	-1768.92	  440.51
     18.4700	  567.00	  555.84	-1714.77	  440.28
     18.5700	  544.00	  555.61	-1737.54	  440.05
     18.6700	  552.00	  555.38	-1729.31	  439.81
     18.7700	  535.00	  555.15	-1746.08	  439.57
     18.8700	  584.00	  554.91	-1696.84	  439.33
     18.9700	  565.00	  554.67	-1715.60	  439.09
     19.0700	  552.00	  554.44	-1728.37	  438.84
     19.1700	  525.00	  554.19	-1755.13	  438.60
     19.2700	  549.00	  553.95	-1730.88	  438.35
     19.3700	  563.00	  553.71	-1716.64	  438.10
     19.4700	  558.00	  553.46	-1721.40	  437.85
     19.5700	  564.00	  553.22	-1715.15	  437.59
     19.6700	  539.00	  552.97	-1739.90	  437.34
     19.7700	  528.00	  552.72	-1750.65	  437.08
     19.8700	  562.00	  552.47	-1716.40	  436.82
     19.9700	  559.00	  552.22	-1719.15	  436.56
     20.0700	  551.00	  551.97	-1726.90	  436.29
     20.1700	  546.00	  551.75	-1731.68	  436.03
     20.2700	  529.00	  551.50	-1748.43	  435.76
     20.3700	  552.00	  551.24	-1725.17	  435.49
     20.4700	  526.00	  550.99	-1750.92	  435.22
     20.5700	  524.00	  550.73	-1752.66	  434.95
     20.6700	  516.00	  550.48	-1760.41	  434.68
     20.7700	  543.00	  550.22	-1733.15	  434.41
     20.8700	  543.00	  549.96	-1732.89	  434.13
     20.9700	  529.00	  549.71	-1746.64	  433.85
     21.0700	  538.00	  549.45	-1737.38	  433.57
     21.1700	  564.00	  549.19	-1711.12	  433.29
     21.2700	  550.00	  548.94	-1724.87	  433.01
     21.3700	  511.00	  548.68	-1763.61	  432.73
     21.4700	  542.00	  548.42	-1732.35	  432.45
     21.5700	  586.00	  548.17	-1688.10	  432.16
     21.6700	  547.00	  547.92	-1726.85	  431.88
     21.7700	  551.00	  547.66	-1722.60	  431.59
     21.8700	  528.00	  547.41	-1745.34	  431.30
     21.9700	  523.00	  547.17	-1750.10	  431.01
     22.0700	  549.00	  546.92	-1723.85	  430.72
     22.1700	  556.00	  546.68	-1716.61	  430.43
     22.2700	  495.00	  546.40	-1777.33	  430.13
     22.3700	  549.00	  546.16	-1723.09	  429.84
     22.4700	  568.00	  545.94	-1703.87	  429.54
     22.5700	  521.00	  545.72	-1750.65	  429.25
     22.6700	  572.00	  545.50	-1699.43	  428.95
     22.7700	  508.00	  545.46	-1763.39	  428.65
     22.8700	  567.00	  545.27	-1704.20	  428.35
     22.9700	  526.00	  545.10	-1745.03	  428.05
     23.0700	  539.00	  544.94	-1731.87	  427.75
     23.1700	  546.00	  544.81	-1724.74	  427.45
     23.2700	  550.00	  544.71	-1720.64	  427.15
     23.3700	  520.00	  544.64	-1750.57	  426.85
     23.4700	  570.00	  544.63	-1700.56	  426.54
     23.5700	  587.00	  544.68	-1683.62	  426.24
     23.6700	  543.00	  544.84	-1727.77	  425.94
     23.7700	  532.00	  545.15	-1739.08	  425.63
     23.8700	  546.00	  545.73	-1725.66	  425.32
     23.9700	  567.00	  546.78	-1705.71	  425.02
     24.0700	  546.00	  548.64	-1728.57	  424.71
     24.1700	  511.00	  551.80	-1766.73	  424.40
     24.2700	  593.00	  556.90	-1689.83	  424.09
     24.3700	  542.00	  564.56	-1748.49	  423.78
     24.4700	  592.00	  575.10	-1709.03	  423.48
     24.5700	  609.00	  588.10	-1705.03	  423.17
     24.6700	  575.00	  601.53	-1752.46	  422.85
     24.7700	  610.00	  611.05	-1726.98	  422.54
     24.8700	  637.00	  610.77	-1699.70	  422.23
     24.9700	  603.00	  598.73	-1721.66	  421.92
     25.0700	  565.00	  581.42	-1742.35	  421.61
     25.1700	  569.00	  566.12	-1723.05	  421.30
     25.2700	  575.00	  555.40	-1706.33	  420.99
     25.3700	  553.00	  548.88	-1721.82	  420.67
     25.4700	  573.00	  545.23	-1698.16	  420.36
     25.5700	  579.00	  543.16	-1690.09	  420.05
     25.6700	  567.00	  541.89	-1700.83	  419.73
     25.7700	  559.00	  541.03	-1707.96	  419.42
     25.8700	  584.00	  540.40	-1682.33	  419.11
     25.9700	  546.00	  539.93	-1719.86	  418.79
     26.0700	  563.00	  539.59	-1702.52	  418.48
     26.1700	  584.00	  539.35	-1681.28	  418.17
     26.2700	  540.00	  539.20	-1725.13	  417.85
     26.3700	  541.00	  539.15	-1724.08	  417.54
     26.4700	  558.00	  539.20	-1707.13	  417.23
     26.5700	  558.00	  539.35	-1707.28	  416.91
     26.6700	  563.00	  539.63	-1702.56	  416.60
     26.7700	  525.00	  540.05	-1740.98	  416.28
     26.8700	  551.00	  540.65	-1715.58	  415.97
     26.9700	  548.00	  541.48	-1719.41	  415.66
     27.0700	  542.00	  542.61	-1726.54	  415.34
     27.1700	  542.00	  544.16	-1728.09	  415.03
     27.2700	  535.00	  546.37	-1737.30	  414.72
     27.3700	  570.00	  549.68	-1705.61	  414.40
     27.4700	  569.00	  554.99	-1711.92	  414.09
     27.5700	  572.00	  563.89	-1717.82	  413.78
     27.6700	  545.00	  579.03	-1759.96	  413.46
     27.7700	  592.00	  603.96	-1737.89	  413.15
     27.8700	  623.00	  642.13	-1745.06	  412.84
     27.9700	  658.00	  694.59	-1762.52	  412.53
     28.0700	  752.00	  756.77	-1730.70	  412.22
     28.1700	  892.00	  815.32	-1649.25	  411.91
     28.2700	  954.00	  847.98	-1619.91	  411.60
     28.3700	  909.00	  835.89	-1652.82	  411.29
     28.4700	  776.00	  792.09	-1742.02	  410.98
     28.5700	  720.00	  753.15	-1759.09	  410.67
     28.6700	  684.00	  740.77	-1782.70	  410.36
     28.7700	  730.00	  754.65	-1750.58	  410.05
     28.8700	  797.00	  778.99	-1707.92	  409.74
     28.9700	  819.00	  788.86	-1695.79	  409.43
     29.0700	  787.00	  763.56	-1702.49	  409.12
     29.1700	  738.00	  709.20	-1697.13	  408.82
     29.2700	  640.00	  651.32	-1737.25	  408.51
     29.3700	  557.00	  606.07	-1775.00	  408.21
     29.4700	  608.00	  576.52	-1694.45	  407.90
     29.5700	  554.00	  559.41	-1731.34	  407.60
     29.6700	  580.00	  550.01	-1695.94	  407.29
     29.7700	  541.00	  544.70	-1729.64	  406.99
     29.8700	  588.00	  541.52	-1679.45	  406.69
     29.9700	  565.00	  539.49	-1700.42	  406.38
     30.0700	  593.00	  538.36	-1671.29	  406.08
     30.1700	  575.00	  538.18	-1689.12	  405.78
     30.2700	  604.00	  539.34	-1661.27	  405.48
     30.3700	  551.00	  542.58	-1717.51	  405.18
     30.4700	  565.00	  549.02	-1709.95	  404.88
     30.5700	  516.00	  559.85	-1769.78	  404.58
     30.6700	  610.00	  575.42	-1691.35	  404.29
     30.7700	  523.00	  594.15	-1797.08	  403.99
     30.8700	  619.00	  611.59	-1718.52	  403.69
     30.9700	  593.00	  620.45	-1753.38	  403.40
     31.0700	  627.00	  614.14	-1713.07	  403.11
     31.1700	  603.00	  594.90	-1717.83	  402.81
     31.2700	  614.00	  572.63	-1684.56	  402.52
     31.3700	  540.00	  554.33	-1740.27	  402.23
     31.4700	  544.00	  541.91	-1723.84	  401.94
     31.5700	  536.00	  534.50	-1724.43	  401.65
     31.6700	  538.00	  530.38	-1718.31	  401.36
     31.7700	  545.00	  528.08	-1709.01	  401.07
     31.8700	  540.00	  526.71	-1712.64	  400.78
     31.9700	  565.00	  525.82	-1686.75	  400.49
     32.0700	  536.00	  525.23	-1715.16	  400.21
     32.1700	  546.00	  524.88	-1704.81	  399.92
     32.2700	  552.00	  524.71	-1698.65	  399.64
     32.3700	  565.00	  524.74	-1685.67	  399.36
     32.4700	  542.00	  524.96	-1708.89	  399.08
     32.5700	  569.00	  525.39	-1682.32	  398.80
     32.6700	  504.00	  526.08	-1748.01	  398.52
     32.7700	  531.00	  527.06	-1721.99	  398.24
     32.8700	  533.00	  528.44	-1721.37	  397.96
     32.9700	  548.00	  530.36	-1708.29	  397.68
     33.0700	  534.00	  533.07	-1725.00	  397.41
     33.1700	  559.00	  537.10	-1704.03	  397.13
     33.2700	  520.00	  543.52	-1749.45	  396.86
     33.3700	  561.00	  554.45	-1719.38	  396.59
     33.4700	  561.00	  573.62	-1738.55	  396.32
     33.5700	  602.00	  606.55	-1730.48	  396.05
     33.6700	  650.00	  659.28	-1735.21	  395.78
     33.7700	  734.00	  734.55	-1726.48	  395.51
     33.8700	  835.00	  826.07	-1717.00	  395.24
     33.9700	  988.00	  914.14	-1652.07	  394.98
     34.0700	  999.00	  966.08	-1693.01	  394.71
     34.1700	 1107.00	  950.42	-1569.35	  394.45
     34.2700	  871.00	  871.10	-1726.03	  394.19
     34.3700	  794.00	  769.39	-1701.32	  393.93
     34.4700	  653.00	  680.08	-1753.01	  393.67
     34.5700	  604.00	  615.96	-1737.89	  393.41
     34.6700	  594.00	  575.85	-1707.78	  393.15
     34.7700	  592.00	  552.92	-1686.85	  392.90
     34.8700	  514.00	  540.14	-1752.07	  392.64
     34.9700	  563.00	  532.62	-1695.55	  392.39
     35.0700	  537.00	  527.69	-1716.62	  392.14
     35.1700	  493.00	  524.13	-1757.06	  391.88
     35.2700	  515.00	  521.35	-1732.28	  391.64
     35.3700	  485.00	  519.15	-1760.08	  391.39
     35.4700	  552.00	  517.34	-1691.27	  391.14
     35.5700	  490.00	  515.83	-1751.76	  390.89
     35.6700	  554.00	  514.55	-1686.48	  390.65
     35.7700	  483.00	  513.45	-1756.38	  390.41
     35.8700	  549.00	  512.49	-1689.42	  390.16
     35.9700	  532.00	  512.11	-1706.04	  389.92
     36.0700	  527.00	  511.38	-1710.31	  389.68
     36.1700	  532.00	  510.72	-1704.65	  389.45
     36.2700	  552.00	  510.15	-1684.09	  389.21
     36.3700	  517.00	  509.64	-1718.57	  388.98
     36.4700	  512.00	  509.18	-1723.11	  388.74
     36.5700	  504.00	  508.78	-1730.72	  388.51
     36.6700	  531.00	  508.45	-1703.38	  388.28
     36.7700	  502.00	  508.19	-1732.12	  388.05
     36.8700	  521.00	  508.05	-1712.98	  387.82
     36.9700	  533.00	  508.09	-1701.02	  387.59
     37.0700	  499.00	  508.45	-1735.38	  387.37
     37.1700	  509.00	  509.35	-1726.28	  387.14
     37.2700	  512.00	  511.03	-1724.97	  386.92
     37.3700	  532.00	  513.71	-1707.64	  386.70
     37.4700	  476.00	  517.30	-1767.23	  386.48
     37.5700	  566.00	  521.23	-1681.17	  386.26
     37.6700	  514.00	  524.34	-1736.27	  386.05
     37.7700	  500.00	  525.15	-1751.08	  385.83
     37.8700	  555.00	  522.96	-1693.90	  385.62
     37.9700	  523.00	  518.81	-1721.74	  385.41
     38.0700	  503.00	  514.33	-1737.26	  385.19
     38.1700	  529.00	  510.65	-1707.58	  384.99
     38.2700	  501.00	  507.76	-1732.69	  384.78
     38.3700	  529.00	  505.76	-1702.69	  384.57
     38.4700	  528.00	  504.45	-1702.38	  384.37
     38.5700	  511.00	  503.58	-1718.51	  384.16
     38.6700	  519.00	  502.98	-1709.91	  383.96
     38.7700	  510.00	  502.51	-1718.45	  383.76
     38.8700	  501.00	  502.04	-1726.97	  383.56
     38.9700	  488.00	  501.72	-1739.65	  383.36
     39.0700	  495.00	  501.43	-1732.36	  383.17
     39.1700	  514.00	  501.17	-1713.10	  382.97
     39.2700	  525.00	  500.93	-1701.86	  382.78
     39.3700	  502.00	  500.71	-1724.64	  382.59
     39.4700	  514.00	  500.50	-1712.43	  382.40
     39.5700	  529.00	  500.30	-1697.23	  382.21
     39.6700	  534.00	  500.04	-1691.97	  382.03
     39.7700	  516.00	  499.87	-1709.80	  381.84
     39.8700	  508.00	  499.72	-1717.65	  381.66
     39.9700	  491.00	  499.57	-1734.50	  381.47
     40.0700	  511.00	  499.44	-1714.37	  381.29
     40.1700	  530.00	  499.32	-1695.25	  381.12
     40.2700	  490.00	  499.21	-1735.14	  380.94
     40.3700	  498.00	  499.12	-1727.05	  380.76
     40.4700	  514.00	  499.05	-1710.98	  380.59
     40.5700	  467.00	  498.99	-1757.92	  380.42
     40.6700	  497.00	  498.95	-1727.88	  380.24
     40.7700	  501.00	  499.43	-1724.36	  380.08
     40.8700	  509.00	  499.44	-1716.38	  379.91
     40.9700	  472.00	  499.50	-1753.43	  379.74
     41.0700	  472.00	  499.59	-1753.52	  379.58
     41.1700	  472.00	  499.73	-1753.66	  379.41
     41.2700	  516.00	  499.93	-1709.86	  379.25
     41.3700	  478.00	  500.20	-1748.13	  379.09
     41.4700	  482.00	  500.58	-1744.51	  378.93
     41.5700	  441.00	  501.09	-1786.02	  378.78
     41.6700	  470.00	  501.81	-1757.74	  378.62
     41.7700	  497.00	  502.87	-1731.80	  378.47
     41.8700	  482.00	  504.56	-1748.49	  378.32
     41.9700	  510.00	  507.44	-1723.37	  378.17
     42.0700	  516.00	  512.39	-1722.32	  378.02
     42.1700	  521.00	  520.81	-1725.74	  377.87
     42.2700	  503.00	  534.17	-1757.10	  377.72
     42.3700	  557.00	  553.17	-1722.10	  377.58
     42.4700	  528.00	  576.95	-1774.88	  377.44
     42.5700	  549.00	  601.87	-1778.80	  377.30
     42.6700	  586.00	  620.59	-1760.53	  377.16
     42.7700	  559.00	  625.15	-1792.08	  377.02
     42.8700	  575.00	  612.58	-1763.51	  376.89
     42.9700	  588.00	  588.95	-1726.88	  376.75
     43.0700	  574.00	  563.28	-1715.21	  376.62
     43.1700	  546.00	  541.32	-1721.25	  376.49
     43.2700	  529.00	  525.17	-1722.10	  376.36
     43.3700	  491.00	  514.76	-1749.69	  376.23
     43.4700	  495.00	  508.35	-1739.28	  376.10
     43.5700	  518.00	  504.63	-1712.56	  375.98
     43.6700	  491.00	  502.43	-1737.36	  375.86
     43.7700	  473.00	  501.04	-1753.98	  375.73
     43.8700	  484.00	  500.09	-1742.02	  375.61
     43.9700	  494.00	  499.37	-1731.31	  375.50
     44.0700	  521.00	  498.82	-1703.75	  375.38
     44.1700	  469.00	  498.39	-1755.32	  375.27
     44.2700	  499.00	  498.04	-1724.97	  375.15
     44.3700	  513.00	  497.76	-1710.69	  375.04
     44.4700	  507.00	  497.54	-1716.47	  374.93
     44.5700	  540.00	  497.37	-1683.30	  374.82
     44.6700	  475.00	  497.44	-1748.37	  374.71
     44.7700	  518.00	  497.35	-1705.28	  374.61
     44.8700	  499.00	  497.29	-1724.22	  374.51
     44.9700	  463.00	  497.31	-1760.24	  374.40
     45.0700	  517.00	  497.31	-1706.24	  374.30
     45.1700	  481.00	  497.34	-1742.27	  374.20
     45.2700	  493.00	  497.40	-1730.33	  374.11
     45.3700	  514.00	  497.48	-1709.41	  374.01
     45.4700	  482.00	  497.59	-1741.52	  373.92
     45.5700	  550.00	  497.58	-1673.51	  373.82
     45.6700	  543.00	  497.75	-1680.68	  373.73
     45.7700	  511.00	  497.95	-1712.88	  373.64
     45.8700	  511.00	  498.18	-1713.12	  373.56
     45.9700	  466.00	  498.46	-1758.39	  373.47
     46.0700	  530.00	  498.77	-1694.70	  373.38
     46.1700	  479.00	  499.14	-1746.07	  373.30
     46.2700	  500.00	  499.61	-1725.54	  373.22
     46.3700	  516.00	  500.09	-1710.03	  373.14
     46.4700	  498.00	  500.68	-1728.61	  373.06
     46.5700	  495.00	  501.33	-1732.26	  372.99
     46.6700	  507.00	  502.10	-1721.03	  372.91
     46.7700	  527.00	  503.02	-1701.95	  372.84
     46.8700	  506.00	  504.17	-1724.10	  372.76
     46.9700	  480.00	  505.70	-1751.63	  372.69
     47.0700	  470.00	  507.90	-1763.83	  372.62
     47.1700	  539.00	  511.26	-1698.19	  372.56
     47.2700	  495.00	  516.52	-1747.45	  372.49
     47.3700	  524.00	  524.59	-1726.52	  372.43
     47.4700	  512.00	  536.27	-1750.20	  372.36
     47.5700	  526.00	  551.76	-1751.69	  372.30
     47.6700	  600.00	  570.05	-1695.98	  372.24
     47.7700	  578.00	  588.33	-1736.26	  372.18
     47.8700	  631.00	  601.93	-1696.86	  372.13
     47.9700	  584.00	  605.93	-1747.86	  372.07
     48.0700	  584.00	  598.97	-1740.90	  372.02
     48.1700	  590.00	  584.88	-1720.81	  371.97
     48.2700	  578.00	  569.15	-1717.08	  371.92
     48.3700	  550.00	  555.61	-1731.54	  371.87
     48.4700	  543.00	  546.02	-1728.95	  371.82
     48.5700	  563.00	  540.68	-1703.61	  371.77
     48.6700	  499.00	  539.46	-1766.40	  371.73
     48.7700	  520.00	  540.84	-1746.78	  371.69
     48.8700	  533.00	  544.59	-1737.52	  371.64
     48.9700	  497.00	  550.45	-1779.39	  371.60
     49.0700	  530.00	  558.72	-1754.65	  371.56
     49.1700	  509.00	  570.44	-1787.37	  371.53
     49.2700	  556.00	  588.05	-1757.98	  371.49
     49.3700	  579.00	  616.39	-1763.33	  371.46
     49.4700	  596.00	  664.08	-1794.01	  371.42
     49.5700	  654.00	  744.31	-1816.24	  371.39
     49.6700	  816.00	  873.73	-1783.66	  371.36
     49.7700	  985.00	 1067.80	-1808.73	  371.33
     49.8700	 1284.00	 1332.25	-1774.18	  371.31
     49.9700	 1590.00	 1652.18	-1788.11	  371.28
     50.0700	 2028.00	 1982.04	-1679.97	  371.26
     50.1700	 2346.00	 2241.98	-1621.91	  371.23
     50.2700	 2482.00	 2338.93	-1582.87	  371.21
     50.3700	 2289.00	 2227.99	-1664.93	  371.19
     50.4700	 1977.00	 1958.16	-1707.09	  371.17
     50.5700	 1632.00	 1627.31	-1721.24	  371.16
     50.6700	 1233.00	 1315.05	-1807.98	  371.14
     50.7700	  928.00	 1063.79	-1861.72	  371.13
     50.8700	  761.00	  885.32	-1850.25	  371.11
     50.9700	  697.00	  771.36	-1800.29	  371.10
     51.0700	  642.00	  704.00	-1787.93	  371.09
     51.1700	  611.00	  664.23	-1779.16	  371.08
     51.2700	  645.00	  637.74	-1718.67	  371.08
     51.3700	  561.00	  616.16	-1781.09	  371.07
     51.4700	  598.00	  597.37	-1725.30	  371.06
     51.5700	  589.00	  581.34	-1718.27	  371.06
     51.6700	  542.00	  568.36	-1752.29	  371.06
     51.7700	  572.00	  558.50	-1712.44	  371.06
     51.8700	  506.00	  551.51	-1771.44	  371.06
     51.9700	  548.00	  546.92	-1724.85	  371.06
     52.0700	  505.00	  544.26	-1765.19	  371.06
     52.1700	  570.00	  543.14	-1699.08	  371.07
     52.2700	  570.00	  543.38	-1699.31	  371.07
     52.3700	  601.00	  545.05	-1669.98	  371.08
     52.4700	  523.00	  548.59	-1751.52	  371.09
     52.5700	  570.00	  555.03	-1710.96	  371.10
     52.6700	  605.00	  566.30	-1687.23	  371.11
     52.7700	  658.00	  585.55	-1653.48	  371.12
     52.8700	  636.00	  617.21	-1707.14	  371.13
     52.9700	  660.00	  666.34	-1732.27	  371.15
     53.0700	  732.00	  737.11	-1731.05	  371.17
     53.1700	  826.00	  830.43	-1730.36	  371.18
     53.2700	 1019.00	  941.08	-1648.01	  371.20
     53.3700	 1067.00	 1055.11	-1714.04	  371.22
     53.4700	 1175.00	 1148.50	-1699.43	  371.24
     53.5700	 1195.00	 1192.13	-1723.06	  371.26
     53.6700	 1205.00	 1168.35	-1689.28	  371.29
     53.7700	 1025.00	 1086.73	-1787.66	  371.31
     53.8700	  955.00	  975.68	-1746.61	  371.34
     53.9700	  834.00	  862.29	-1754.22	  371.36
     54.0700	  750.00	  763.48	-1739.41	  371.39
     54.1700	  645.00	  686.69	-1767.62	  371.42
     54.2700	  630.00	  632.35	-1728.28	  371.45
     54.3700	  595.00	  596.94	-1727.87	  371.48
     54.4700	  554.00	  575.38	-1747.32	  371.51
     54.5700	  572.00	  562.94	-1716.87	  371.55
     54.6700	  587.00	  556.07	-1695.00	  371.58
     54.7700	  546.00	  552.50	-1732.43	  371.62
     54.8700	  616.00	  550.96	-1660.89	  371.66
     54.9700	  528.00	  550.81	-1748.74	  371.69
     55.0700	  529.00	  551.77	-1748.70	  371.73
     55.1700	  582.00	  553.74	-1697.67	  371.77
     55.2700	  557.00	  556.73	-1725.66	  371.82
     55.3700	  532.00	  560.85	-1754.78	  371.86
     55.4700	  580.00	  566.29	-1712.22	  371.90
     55.5700	  582.00	  573.46	-1717.39	  371.95
     55.6700	  565.00	  583.08	-1744.01	  371.99
     55.7700	  626.00	  596.59	-1696.52	  372.04
     55.8700	  607.00	  616.82	-1735.75	  372.09
     55.9700	  642.00	  648.66	-1732.59	  372.13
     56.0700	  683.00	  700.09	-1743.02	  372.18
     56.1700	  769.00	  782.53	-1739.46	  372.24
     56.2700	  815.00	  909.84	-1820.77	  372.29
     56.3700	 1055.00	 1095.10	-1766.03	  372.34
     56.4700	 1358.00	 1345.07	-1713.00	  372.39
     56.5700	 1622.00	 1653.41	-1757.34	  372.45
     56.6700	 1904.00	 1993.91	-1815.84	  372.50
     56.7700	 2342.00	 2315.38	-1699.31	  372.56
     56.8700	 2476.00	 2543.53	-1793.46	  372.62
     56.9700	 2536.00	 2605.05	-1794.98	  372.68
     57.0700	 2416.00	 2476.25	-1786.18	  372.74
     57.1700	 2197.00	 2204.46	-1733.39	  372.80
     57.2700	 1888.00	 1869.52	-1707.46	  372.86
     57.3700	 1455.00	 1538.83	-1809.76	  372.92
     57.4700	 1238.00	 1253.80	-1741.74	  372.98
     57.5700	  952.00	 1032.39	-1806.32	  373.05
     57.6700	  911.00	  875.33	-1690.26	  373.11
     57.7700	  788.00	  773.18	-1711.11	  373.18
     57.8700	  757.00	  712.93	-1681.86	  373.25
     57.9700	  727.00	  682.84	-1681.77	  373.31
     58.0700	  697.00	  674.80	-1703.73	  373.38
     58.1700	  738.00	  684.49	-1672.42	  373.45
     58.2700	  700.00	  710.38	-1736.31	  373.52
     58.3700	  805.00	  752.07	-1673.01	  373.59
     58.4700	  867.00	  808.85	-1667.78	  373.66
     58.5700	  929.00	  878.04	-1674.97	  373.74
     58.6700	 1005.00	  953.91	-1674.84	  373.81
     58.7700	 1094.00	 1028.20	-1660.13	  373.88
     58.8700	 1203.00	 1093.32	-1616.26	  373.96
     58.9700	 1283.00	 1145.32	-1588.25	  374.03
     59.0700	 1460.00	 1181.21	-1447.14	  374.11
     59.1700	 1355.00	 1196.67	-1567.60	  374.19
     59.2700	 1316.00	 1190.64	-1600.57	  374.26
     59.3700	 1333.00	 1170.38	-1563.31	  374.34
     59.4700	 1212.00	 1147.63	-1661.57	  374.42
     59.5700	 1238.00	 1131.84	-1619.77	  374.50
     59.6700	 1198.00	 1129.39	-1657.32	  374.58
     59.7700	 1152.00	 1146.92	-1720.85	  374.66
     59.8700	 1303.00	 1190.85	-1613.78	  374.75
     59.9700	 1334.00	 1262.06	-1653.99	  374.83
     60.0700	 1356.00	 1351.41	-1721.34	  374.91
     60.1700	 1536.00	 1438.41	-1628.34	  375.00
     60.2700	 1560.00	 1493.77	-1659.70	  375.08
     60.3700	 1467.00	 1490.08	-1749.01	  375.17
     60.4700	 1514.00	 1419.22	-1631.15	  375.25
     60.5700	 1320.00	 1298.07	-1704.00	  375.34
     60.6700	 1180.00	 1154.78	-1700.71	  375.43
     60.7700	 1004.00	 1013.85	-1735.78	  375.51
     60.8700	  871.00	  891.30	-1746.23	  375.60
     60.9700	  769.00	  795.17	-1752.10	  375.69
     61.0700	  674.00	  727.42	-1779.35	  375.78
     61.1700	  712.00	  686.43	-1700.36	  375.87
     61.2700	  645.00	  669.52	-1750.45	  375.96
     61.3700	  620.00	  674.96	-1780.89	  376.05
     61.4700	  682.00	  702.94	-1746.88	  376.14
     61.5700	  732.00	  755.14	-1749.07	  376.24
     61.6700	  847.00	  833.29	-1712.22	  376.33
     61.7700	  880.00	  936.91	-1782.84	  376.42
     61.8700	 1004.00	 1061.03	-1782.96	  376.52
     61.9700	 1101.00	 1194.28	-1819.21	  376.61
     62.0700	 1244.00	 1317.52	-1799.45	  376.70
     62.1700	 1373.00	 1405.08	-1758.01	  376.80
     62.2700	 1335.00	 1432.14	-1823.07	  376.90
     62.3700	 1283.00	 1389.24	-1832.17	  376.99
     62.4700	 1204.00	 1289.61	-1811.54	  377.09
     62.5700	 1062.00	 1159.28	-1823.21	  377.18
     62.6700	  977.00	 1023.01	-1771.94	  377.28
     62.7700	  858.00	  898.15	-1766.08	  377.38
     62.8700	  765.00	  794.37	-1755.30	  377.48
     62.9700	  655.00	  714.84	-1785.77	  377.58
     63.0700	  657.00	  658.16	-1727.09	  377.67
     63.1700	  629.00	  620.33	-1717.26	  377.77
     63.2700	  586.00	  596.58	-1736.51	  377.87
     63.3700	  581.00	  582.73	-1727.66	  377.97
     63.4700	  640.00	  575.74	-1661.67	  378.07
     63.5700	  550.00	  573.99	-1749.92	  378.17
     63.6700	  580.00	  577.01	-1722.94	  378.27
     63.7700	  614.00	  585.45	-1697.38	  378.38
     63.8700	  636.00	  600.58	-1690.51	  378.48
     63.9700	  681.00	  624.08	-1669.01	  378.58
     64.0700	  752.00	  657.37	-1631.30	  378.68
     64.1700	  781.00	  701.04	-1645.97	  378.78
     64.2700	  811.00	  754.10	-1669.03	  378.88
     64.3700	  853.00	  813.30	-1686.23	  378.99
     64.4700	  919.00	  872.60	-1679.53	  379.09
     64.5700	  933.00	  923.37	-1716.30	  379.19
     64.6700	  999.00	  956.18	-1683.11	  379.30
     64.7700	 1017.00	  964.35	-1673.28	  379.40
     64.8700	  986.00	  948.34	-1688.27	  379.50
     64.9700	  984.00	  912.45	-1654.38	  379.61
     65.0700	  864.00	  864.50	-1726.43	  379.71
     65.1700	  833.00	  812.72	-1705.65	  379.82
     65.2700	  792.00	  763.39	-1697.32	  379.92
     65.3700	  685.00	  719.86	-1760.79	  380.02
     65.4700	  690.00	  683.03	-1718.96	  380.13
     65.5700	  632.00	  652.68	-1746.61	  380.23
     65.6700	  618.00	  627.97	-1735.90	  380.34
     65.7700	  605.00	  608.49	-1729.42	  380.44
     65.8700	  564.00	  593.63	-1755.56	  380.55
     65.9700	  570.00	  582.73	-1738.66	  380.65
     66.0700	  525.00	  575.16	-1776.09	  380.76
     66.1700	  509.00	  570.41	-1787.34	  380.86
     66.2700	  541.00	  568.07	-1753.00	  380.97
     66.3700	  556.00	  567.81	-1737.74	  381.08
     66.4700	  590.00	  569.41	-1705.34	  381.18
     66.5700	  540.00	  572.85	-1758.78	  381.29
     66.6700	  526.00	  578.37	-1778.30	  381.39
     66.7700	  577.00	  586.67	-1735.60	  381.50
     66.8700	  584.00	  599.35	-1741.28	  381.60
     66.9700	  611.00	  618.27	-1733.20	  381.71
     67.0700	  658.00	  647.37	-1715.31	  381.81
     67.1700	  671.00	  691.94	-1746.87	  381.92
     67.2700	  693.00	  758.70	-1791.63	  382.02
     67.3700	  861.00	  855.24	-1720.17	  382.13
     67.4700	  945.00	  988.45	-1769.38	  382.23
     67.5700	 1117.00	 1162.47	-1771.41	  382.34
     67.6700	 1433.00	 1376.08	-1669.01	  382.44
     67.7700	 1647.00	 1619.99	-1698.92	  382.55
     67.8700	 1950.00	 1875.51	-1651.44	  382.65
     67.9700	 2104.00	 2112.92	-1734.85	  382.76
     68.0700	 2278.00	 2293.33	-1741.26	  382.86
     68.1700	 2316.00	 2377.14	-1787.07	  382.97
     68.2700	 2423.00	 2342.27	-1645.20	  383.07
     68.3700	 2206.00	 2198.23	-1718.16	  383.18
     68.4700	 1979.00	 1979.80	-1726.73	  383.28
     68.5700	 1805.00	 1727.88	-1648.81	  383.38
     68.6700	 1434.00	 1476.54	-1768.47	  383.49
     68.7700	 1224.00	 1249.10	-1751.03	  383.59
     68.8700	 1034.00	 1058.45	-1750.38	  383.69
     68.9700	  882.00	  908.91	-1752.84	  383.80
     69.0700	  822.00	  798.08	-1702.01	  383.90
     69.1700	  724.00	  720.27	-1722.20	  384.00
     69.2700	  670.00	  667.82	-1723.75	  384.10
     69.3700	  651.00	  633.45	-1708.38	  384.21
     69.4700	  626.00	  611.27	-1711.20	  384.31
     69.5700	  580.00	  596.87	-1742.80	  384.41
     69.6700	  549.00	  587.32	-1764.25	  384.51
     69.7700	  634.00	  580.83	-1672.76	  384.61
     69.8700	  554.00	  576.35	-1748.28	  384.71
     69.9700	  583.00	  573.30	-1716.23	  384.81
     70.0700	  521.00	  571.38	-1776.31	  384.91
     70.1700	  572.00	  570.43	-1724.36	  385.01
     70.2700	  612.00	  570.42	-1684.35	  385.11
     70.3700	  611.00	  571.43	-1686.36	  385.21
     70.4700	  580.00	  573.64	-1719.57	  385.31
     70.5700	  544.00	  577.47	-1759.40	  385.40
     70.6700	  602.00	  583.63	-1707.56	  385.50
     70.7700	  578.00	  593.33	-1741.26	  385.60
     70.8700	  654.00	  608.47	-1680.40	  385.70
     70.9700	  628.00	  631.79	-1729.72	  385.79
     71.0700	  628.00	  666.97	-1764.91	  385.89
     71.1700	  700.00	  718.43	-1744.36	  385.98
     71.2700	  739.00	  790.86	-1777.80	  386.08
     71.3700	  906.00	  889.12	-1709.05	  386.17
     71.4700	 1014.00	 1013.63	-1725.56	  386.27
     71.5700	 1121.00	 1163.94	-1768.87	  386.36
     71.6700	 1314.00	 1334.19	-1746.12	  386.46
     71.7700	 1382.00	 1512.92	-1856.85	  386.55
     71.8700	 1681.00	 1682.47	-1727.40	  386.64
     71.9700	 1826.00	 1819.65	-1719.58	  386.73
     72.0700	 1874.00	 1899.50	-1751.43	  386.82
     72.1700	 1831.00	 1904.22	-1799.15	  386.91
     72.2700	 1867.00	 1832.62	-1691.55	  387.01
     72.3700	 1766.00	 1700.95	-1660.88	  387.09
     72.4700	 1479.00	 1533.86	-1780.79	  387.18
     72.5700	 1425.00	 1355.07	-1656.00	  387.27
     72.6700	 1259.00	 1182.84	-1649.77	  387.36
     72.7700	 1013.00	 1029.30	-1742.23	  387.45
     72.8700	  956.00	  900.89	-1670.82	  387.53
     72.9700	  852.00	  799.32	-1673.25	  387.62
     73.0700	  821.00	  722.84	-1627.78	  387.71
     73.1700	  683.00	  667.65	-1710.58	  387.79
     73.2700	  668.00	  628.64	-1686.57	  387.88
     73.3700	  661.00	  602.37	-1667.30	  387.96
     73.4700	  621.00	  584.62	-1689.55	  388.04
     73.5700	  589.00	  572.55	-1709.48	  388.13
     73.6700	  570.00	  564.20	-1720.13	  388.21
     73.7700	  607.00	  558.29	-1677.22	  388.29
     73.8700	  621.00	  554.03	-1658.96	  388.37
     73.9700	  577.00	  550.95	-1699.88	  388.45
     74.0700	  638.00	  548.75	-1636.68	  388.53
     74.1700	  579.00	  547.25	-1694.18	  388.61
     74.2700	  599.00	  546.27	-1673.20	  388.68
     74.3700	  597.00	  545.66	-1674.59	  388.76
     74.4700	  620.00	  545.25	-1651.18	  388.84
     74.5700	  574.00	  544.84	-1696.77	  388.91
     74.6700	  617.00	  544.25	-1653.18	  388.99
     74.7700	  625.00	  543.37	-1644.30	  389.06
     74.8700	  641.00	  542.19	-1627.12	  389.14
     74.9700	  639.00	  540.86	-1627.80	  389.21
     75.0700	  550.00	  539.59	-1715.53	  389.28
     75.1700	  590.00	  538.64	-1674.57	  389.35
     75.2700	  568.00	  538.28	-1696.21	  389.42
     75.3700	  594.00	  538.83	-1670.76	  389.49
     75.4700	  580.00	  540.62	-1686.55	  389.56
     75.5700	  532.00	  544.18	-1738.11	  389.63
     75.6700	  549.00	  549.90	-1726.83	  389.69
     75.7700	  529.00	  558.22	-1755.15	  389.76
     75.8700	  651.00	  569.48	-1644.41	  389.82
     75.9700	  545.00	  583.71	-1764.64	  389.89
     76.0700	  646.00	  600.88	-1680.81	  389.95
     76.1700	  655.00	  620.25	-1691.18	  390.01
     76.2700	  675.00	  640.67	-1691.60	  390.08
     76.3700	  613.00	  660.42	-1773.35	  390.14
     76.4700	  682.00	  677.27	-1721.20	  390.20
     76.5700	  676.00	  688.73	-1738.66	  390.26
     76.6700	  688.00	  692.67	-1730.60	  390.31
     76.7700	  695.00	  688.17	-1719.10	  390.37
     76.8700	  680.00	  676.23	-1722.16	  390.43
     76.9700	  644.00	  658.90	-1740.83	  390.48
     77.0700	  650.00	  638.69	-1714.62	  390.54
     77.1700	  543.00	  617.82	-1800.75	  390.59
     77.2700	  589.00	  597.97	-1734.90	  390.64
     77.3700	  542.00	  580.27	-1764.20	  390.70
     77.4700	  559.00	  565.34	-1732.27	  390.75
     77.5700	  543.00	  553.15	-1736.08	  390.80
     77.6700	  558.00	  543.94	-1711.87	  390.85
     77.7700	  536.00	  537.15	-1727.08	  390.89
     77.8700	  483.00	  532.30	-1775.23	  390.94
     77.9700	  537.00	  528.94	-1717.87	  390.99
     78.0700	  550.00	  526.65	-1702.58	  391.03
     78.1700	  506.00	  525.10	-1745.03	  391.07
     78.2700	  497.00	  524.07	-1753.00	  391.12
     78.3700	  471.00	  523.37	-1778.30	  391.16
     78.4700	  528.00	  522.91	-1720.84	  391.20
     78.5700	  494.00	  522.62	-1754.56	  391.24
     78.6700	  529.00	  522.49	-1719.42	  391.28
     78.7700	  553.00	  522.49	-1695.42	  391.32
     78.8700	  512.00	  522.63	-1736.56	  391.35
     78.9700	  473.00	  522.94	-1775.87	  391.39
     79.0700	  506.00	  523.45	-1743.38	  391.42
     79.1700	  545.00	  524.18	-1705.11	  391.46
     79.2700	  504.00	  525.19	-1747.12	  391.49
     79.3700	  509.00	  526.50	-1743.43	  391.52
     79.4700	  532.00	  528.17	-1722.10	  391.55
     79.5700	  471.00	  530.24	-1785.17	  391.58
     79.6700	  478.00	  532.75	-1780.68	  391.61
     79.7700	  545.00	  535.76	-1716.69	  391.63
     79.8700	  548.00	  539.36	-1717.29	  391.66
     79.9700	  501.00	  543.64	-1768.57	  391.68
     80.0700	  546.00	  548.54	-1728.47	  391.71
     80.1700	  543.00	  554.65	-1737.58	  391.73
     80.2700	  521.00	  562.05	-1766.98	  391.75
     80.3700	  550.00	  571.07	-1747.00	  391.77
     80.4700	  599.00	  582.01	-1708.94	  391.79
     80.5700	  582.00	  595.07	-1739.00	  391.81
     80.6700	  597.00	  610.18	-1739.11	  391.82
     80.7700	  623.00	  627.01	-1729.94	  391.84
     80.8700	  607.00	  644.88	-1763.81	  391.85
     80.9700	  711.00	  662.82	-1677.75	  391.87
     81.0700	  725.00	  679.65	-1680.58	  391.88
     81.1700	  664.00	  694.25	-1756.18	  391.89
     81.2700	  691.00	  705.68	-1740.61	  391.90
     81.3700	  732.00	  713.21	-1707.14	  391.91
     81.4700	  717.00	  716.37	-1725.30	  391.91
     81.5700	  753.00	  715.00	-1687.93	  391.92
     81.6700	  712.00	  709.22	-1723.15	  391.92
     81.7700	  713.00	  699.35	-1712.28	  391.93
     81.8700	  764.00	  685.95	-1647.88	  391.93
     81.9700	  740.00	  669.91	-1655.84	  391.93
     82.0700	  712.00	  652.39	-1666.32	  391.93
     82.1700	  661.00	  634.56	-1699.49	  391.93
     82.2700	  675.00	  617.38	-1668.31	  391.92
     82.3700	  592.00	  601.50	-1735.43	  391.92
     82.4700	  604.00	  587.32	-1709.25	  391.92
     82.5700	  642.00	  575.06	-1658.99	  391.91
     82.6700	  558.00	  564.83	-1732.76	  391.90
     82.7700	  594.00	  556.66	-1688.59	  391.89
     82.8700	  559.00	  550.51	-1717.44	  391.88
     82.9700	  488.00	  546.32	-1784.25	  391.87
     83.0700	  554.00	  543.97	-1715.91	  391.86
     83.1700	  536.00	  543.29	-1733.22	  391.84
     83.2700	  521.00	  544.26	-1749.19	  391.83
     83.3700	  525.00	  546.64	-1747.57	  391.81
     83.4700	  515.00	  550.18	-1761.11	  391.79
     83.5700	  541.00	  554.66	-1739.59	  391.77
     83.6700	  503.00	  559.67	-1782.60	  391.75
     83.7700	  533.00	  564.74	-1757.67	  391.73
     83.8700	  529.00	  569.35	-1766.28	  391.71
     83.9700	  571.00	  572.89	-1727.82	  391.68
     84.0700	  573.00	  574.81	-1727.74	  391.66
     84.1700	  549.00	  574.75	-1751.68	  391.63
     84.2700	  517.00	  572.65	-1781.58	  391.60
     84.3700	  551.00	  568.81	-1743.75	  391.57
     84.4700	  594.00	  563.72	-1695.65	  391.54
     84.5700	  528.00	  557.92	-1755.85	  391.51
     84.6700	  559.00	  551.92	-1718.85	  391.48
     84.7700	  487.00	  546.10	-1785.03	  391.44
     84.8700	  552.00	  540.78	-1714.71	  391.40
     84.9700	  544.00	  536.13	-1718.06	  391.37
     85.0700	  516.00	  532.25	-1742.18	  391.33
     85.1700	  543.00	  529.15	-1712.08	  391.29
     85.2700	  523.00	  526.78	-1729.71	  391.25
     85.3700	  505.00	  525.07	-1746.00	  391.20
     85.4700	  510.00	  523.91	-1739.84	  391.16
     85.5700	  527.00	  523.22	-1722.15	  391.11
     85.6700	  538.00	  522.94	-1710.87	  391.07
     85.7700	  481.00	  523.03	-1767.96	  391.02
     85.8700	  533.00	  523.51	-1716.44	  390.97
     85.9700	  506.00	  524.41	-1744.34	  390.92
     86.0700	  518.00	  525.82	-1733.75	  390.86
     86.1700	  535.00	  527.87	-1718.80	  390.81
     86.2700	  508.00	  530.72	-1748.65	  390.76
     86.3700	  577.00	  534.54	-1683.47	  390.70
     86.4700	  550.00	  539.51	-1715.44	  390.64
     86.5700	  552.00	  545.76	-1719.69	  390.58
     86.6700	  572.00	  553.39	-1707.32	  390.52
     86.7700	  583.00	  562.37	-1705.30	  390.46
     86.8700	  537.00	  572.56	-1761.49	  390.40
     86.9700	  617.00	  583.67	-1692.60	  390.33
     87.0700	  618.00	  595.24	-1703.17	  390.27
     87.1700	  642.00	  606.63	-1690.56	  390.20
     87.2700	  625.00	  617.03	-1717.97	  390.13
     87.3700	  637.00	  625.54	-1714.48	  390.06
     87.4700	  668.00	  631.25	-1689.19	  389.99
     87.5700	  638.00	  633.48	-1721.41	  389.92
     87.6700	  609.00	  631.98	-1748.91	  389.84
     87.7700	  619.00	  626.69	-1733.62	  389.77
     87.8700	  616.00	  619.09	-1729.02	  389.69
     87.9700	  609.00	  609.77	-1726.70	  389.61
     88.0700	  638.00	  599.70	-1687.63	  389.53
     88.1700	  564.00	  589.76	-1751.69	  389.45
     88.2700	  588.00	  580.68	-1718.61	  389.37
     88.3700	  596.00	  573.04	-1702.97	  389.28
     88.4700	  602.00	  567.22	-1691.15	  389.20
     88.5700	  555.00	  563.43	-1734.36	  389.11
     88.6700	  588.00	  561.71	-1699.64	  389.02
     88.7700	  583.00	  561.93	-1704.86	  388.94
     88.8700	  577.00	  563.83	-1712.76	  388.85
     88.9700	  552.00	  567.04	-1740.97	  388.75
     89.0700	  585.00	  571.08	-1712.01	  388.66
     89.1700	  567.00	  575.41	-1734.34	  388.57
     89.2700	  602.00	  579.43	-1703.36	  388.47
     89.3700	  584.00	  582.54	-1724.47	  388.37
     89.4700	  580.00	  584.22	-1730.15	  388.27
     89.5700	  609.00	  584.12	-1701.05	  388.17
     89.6700	  579.00	  582.15	-1729.08	  388.07
     89.7700	  636.00	  578.52	-1668.45	  387.97
     89.8700	  578.00	  573.60	-1721.53	  387.87
     89.9700	  596.00	  567.85	-1697.78	  387.76
     90.0700	  550.00	  561.74	-1737.67	  387.65
     90.1700	  506.00	  555.64	-1775.57	  387.55
     90.2700	  544.00	  549.87	-1731.80	  387.44
     90.3700	  493.00	  544.64	-1777.57	  387.33
     90.4700	  495.00	  540.11	-1771.04	  387.21
     90.5700	  509.00	  536.34	-1753.27	  387.10
     90.6700	  466.00	  533.33	-1793.26	  386.99
     90.7700	  534.00	  531.05	-1722.98	  386.87
     90.8700	  510.00	  529.44	-1745.37	  386.75
     90.9700	  542.00	  528.41	-1712.35	  386.63
     91.0700	  499.00	  527.92	-1754.85	  386.51
     91.1700	  502.00	  527.89	-1751.82	  386.39
     91.2700	  521.00	  528.32	-1733.25	  386.27
     91.3700	  539.00	  529.21	-1716.14	  386.15
     91.4700	  508.00	  530.61	-1748.54	  386.02
     91.5700	  546.00	  532.62	-1712.55	  385.90
     91.6700	  508.00	  535.36	-1753.29	  385.77
     91.7700	  535.00	  538.99	-1729.92	  385.64
     91.8700	  499.00	  543.71	-1770.64	  385.51
     91.9700	  561.00	  549.72	-1714.65	  385.38
     92.0700	  547.00	  557.21	-1736.14	  385.24
     92.1700	  572.00	  566.37	-1720.30	  385.11
     92.2700	  554.00	  577.32	-1749.25	  384.98
     92.3700	  521.00	  590.11	-1795.04	  384.84
     92.4700	  597.00	  604.69	-1733.62	  384.70
     92.5700	  581.00	  620.92	-1765.85	  384.56
     92.6700	  631.00	  638.49	-1733.42	  384.42
     92.7700	  638.00	  656.98	-1744.91	  384.28
     92.8700	  670.00	  675.81	-1731.75	  384.14
     92.9700	  674.00	  694.30	-1746.23	  383.99
     93.0700	  737.00	  711.41	-1700.35	  383.85
     93.1700	  711.00	  727.08	-1742.01	  383.70
     93.2700	  698.00	  740.63	-1768.56	  383.55
     93.3700	  799.00	  752.06	-1678.99	  383.40
     93.4700	  779.00	  761.69	-1708.62	  383.25
     93.5700	  812.00	  770.02	-1683.95	  383.10
     93.6700	  846.00	  777.58	-1657.51	  382.95
     93.7700	  816.00	  784.83	-1694.76	  382.80
     93.8700	  760.00	  792.14	-1758.07	  382.64
     93.9700	  805.00	  799.89	-1720.82	  382.49
     94.0700	  839.00	  808.50	-1695.43	  382.33
     94.1700	  858.00	  818.40	-1686.33	  382.17
     94.2700	  848.00	  829.86	-1707.80	  382.01
     94.3700	  828.00	  842.87	-1740.80	  381.85
     94.4700	  862.00	  856.96	-1720.89	  381.69
     94.5700	  931.00	  871.26	-1666.19	  381.53
     94.6700	  867.00	  884.45	-1743.38	  381.36
     94.7700	  896.00	  894.92	-1724.85	  381.20
     94.8700	  941.00	  900.96	-1685.89	  381.03
     94.9700	  984.00	  901.11	-1643.04	  380.86
     95.0700	  897.00	  894.49	-1723.42	  380.70
     95.1700	  831.00	  881.14	-1776.08	  380.53
     95.2700	  876.00	  861.96	-1711.90	  380.36
     95.3700	  857.00	  838.49	-1707.43	  380.18
     95.4700	  839.00	  812.60	-1699.53	  380.01
     95.5700	  775.00	  786.21	-1737.14	  379.84
     95.6700	  753.00	  761.15	-1734.08	  379.66
     95.7700	  759.00	  739.13	-1706.06	  379.49
     95.8700	  744.00	  721.66	-1703.59	  379.31
     95.9700	  688.00	  710.11	-1748.04	  379.13
     96.0700	  688.00	  705.62	-1743.55	  378.96
     96.1700	  731.00	  709.20	-1704.13	  378.78
     96.2700	  704.00	  721.63	-1743.56	  378.59
     96.3700	  775.00	  743.48	-1694.41	  378.41
     96.4700	  767.00	  775.07	-1734.00	  378.23
     96.5700	  806.00	  816.38	-1736.32	  378.05
     96.6700	  891.00	  867.05	-1701.99	  377.86
     96.7700	  864.00	  926.24	-1788.17	  377.68
     96.8700	  971.00	  992.57	-1747.50	  377.49
     96.9700	 1052.00	 1064.07	-1738.00	  377.30
     97.0700	 1201.00	 1138.18	-1663.11	  377.11
     97.1700	 1167.00	 1211.72	-1770.65	  376.92
     97.2700	 1281.00	 1280.97	-1725.91	  376.73
     97.3700	 1294.00	 1341.78	-1773.71	  376.54
     97.4700	 1347.00	 1389.89	-1768.82	  376.35
     97.5700	 1363.00	 1421.54	-1784.48	  376.16
     97.6700	 1374.00	 1434.18	-1786.11	  375.97
     97.7700	 1465.00	 1426.99	-1687.92	  375.77
     97.8700	 1394.00	 1401.17	-1733.10	  375.58
     97.9700	 1389.00	 1359.47	-1696.40	  375.38
     98.0700	 1303.00	 1305.66	-1728.59	  375.18
     98.1700	 1255.00	 1243.80	-1714.73	  374.99
     98.2700	 1152.00	 1177.87	-1751.80	  374.79
     98.3700	 1150.00	 1111.55	-1687.48	  374.59
     98.4700	 1033.00	 1048.05	-1740.98	  374.39
     98.5700	  950.00	  990.13	-1766.06	  374.19
     98.6700	  954.00	  940.05	-1711.98	  373.99
     98.7700	  836.00	  899.64	-1789.57	  373.78
     98.8700	  855.00	  870.33	-1741.26	  373.58
     98.9700	  861.00	  853.20	-1718.13	  373.38
     99.0700	  855.00	  849.03	-1719.96	  373.17
     99.1700	  845.00	  858.31	-1739.24	  372.97
     99.2700	  895.00	  881.27	-1712.20	  372.76
     99.3700	  913.00	  917.99	-1730.92	  372.56
     99.4700	  960.00	  968.18	-1734.11	  372.35
     99.5700	 1010.00	 1031.30	-1747.23	  372.14
     99.6700	 1071.00	 1106.45	-1761.38	  371.94
     99.7700	 1190.00	 1192.25	-1728.18	  371.73
     99.8700	 1285.00	 1286.82	-1727.75	  371.52
     99.9700	 1373.00	 1387.67	-1740.60	  371.31
    100.0700	 1491.00	 1491.71	-1726.64	  371.10
    100.1700	 1608.00	 1595.27	-1713.20	  370.89
    100.2700	 1661.00	 1694.26	-1759.19	  370.68
    100.3700	 1743.00	 1784.57	-1767.50	  370.47
    100.4700	 1942.00	 1862.47	-1646.40	  370.25
    100.5700	 1965.00	 1925.04	-1685.97	  370.04
    100.6700	 1971.00	 1970.23	-1725.16	  369.83
    100.7700	 2106.00	 1996.79	-1616.72	  369.61
    100.8700	 1967.00	 2004.01	-1762.94	  369.40
    100.9700	 1999.00	 1991.64	-1718.57	  369.19
    101.0700	 2062.00	 1960.10	-1624.03	  368.97
    101.1700	 1937.00	 1910.81	-1699.74	  368.76
    101.2700	 1846.00	 1846.48	-1726.41	  368.54
    101.3700	 1715.00	 1770.94	-1781.87	  368.32
    101.4700	 1737.00	 1688.69	-1677.62	  368.11
    101.5700	 1592.00	 1604.29	-1738.22	  367.89
    101.6700	 1474.00	 1521.87	-1773.80	  367.68
    101.7700	 1428.00	 1444.79	-1742.72	  367.46
    101.8700	 1402.00	 1375.48	-1699.41	  367.24
    101.9700	 1323.00	 1315.45	-1718.39	  367.02
    102.0700	 1270.00	 1265.26	-1721.19	  366.81
    102.1700	 1240.00	 1224.60	-1710.53	  366.59
    102.2700	 1214.00	 1192.43	-1704.36	  366.37
    102.3700	 1144.00	 1167.05	-1748.98	  366.15
    102.4700	 1129.00	 1146.26	-1743.19	  365.93
    102.5700	 1136.00	 1127.62	-1717.55	  365.71
    102.6700	 1144.00	 1108.72	-1690.65	  365.50
    102.7700	 1077.00	 1087.49	-1736.42	  365.28
    102.8700	 1084.00	 1062.52	-1704.45	  365.06
    102.9700	  967.00	 1033.21	-1792.14	  364.84
    103.0700	  972.00	  999.71	-1753.64	  364.62
    103.1700	  925.00	  962.73	-1763.66	  364.40
    103.2700	  909.00	  923.34	-1740.27	  364.18
    103.3700	  882.00	  882.69	-1726.62	  363.96
    103.4700	  820.00	  841.96	-1747.89	  363.74
    103.5700	  871.00	  802.17	-1657.11	  363.53
    103.6700	  769.00	  764.25	-1721.18	  363.31
    103.7700	  732.00	  728.91	-1722.85	  363.09
    103.8700	  678.00	  696.68	-1744.61	  362.87
    103.9700	  685.00	  667.89	-1708.83	  362.65
    104.0700	  650.00	  642.69	-1718.63	  362.43
    104.1700	  624.00	  621.07	-1723.00	  362.21
    104.2700	  635.00	  602.88	-1693.81	  362.00
    104.3700	  585.00	  587.86	-1728.79	  361.78
    104.4700	  574.00	  575.71	-1727.64	  361.56
    104.5700	  590.00	  566.08	-1702.01	  361.34
    104.6700	  546.00	  558.61	-1738.54	  361.13
    104.7700	  529.00	  552.97	-1749.90	  360.91
    104.8700	  598.00	  548.85	-1676.78	  360.69
    104.9700	  538.00	  545.99	-1733.92	  360.48
    105.0700	  544.00	  544.17	-1726.10	  360.26
    105.1700	  494.00	  543.20	-1775.13	  360.05
    105.2700	  558.00	  542.99	-1710.92	  359.83
    105.3700	  569.00	  543.42	-1700.35	  359.62
    105.4700	  555.00	  544.45	-1715.38	  359.40
    105.5700	  483.00	  546.06	-1788.99	  359.19
    105.6700	  562.00	  548.25	-1712.18	  358.98
    105.7700	  560.00	  551.09	-1717.02	  358.76
    105.8700	  544.00	  554.62	-1736.55	  358.55
    105.9700	  540.00	  558.90	-1744.83	  358.34
    106.0700	  581.00	  564.00	-1708.93	  358.13
    106.1700	  520.00	  569.96	-1775.89	  357.92
    106.2700	  596.00	  576.78	-1706.71	  357.71
    106.3700	  584.00	  584.41	-1726.34	  357.50
    106.4700	  612.00	  592.80	-1706.74	  357.29
    106.5700	  621.00	  601.82	-1706.75	  357.09
    106.6700	  641.00	  611.27	-1696.20	  356.88
    106.7700	  610.00	  620.93	-1736.86	  356.67
    106.8700	  606.00	  630.52	-1750.46	  356.47
    106.9700	  612.00	  639.74	-1753.68	  356.26
    107.0700	  627.00	  648.26	-1747.20	  356.06
    107.1700	  632.00	  655.76	-1749.69	  355.86
    107.2700	  656.00	  661.97	-1731.90	  355.66
    107.3700	  656.00	  666.70	-1736.63	  355.45
    107.4700	  694.00	  669.92	-1701.85	  355.26
    107.5700	  649.00	  671.72	-1748.65	  355.06
    107.6700	  681.00	  672.35	-1717.28	  354.86
    107.7700	  664.00	  672.13	-1734.06	  354.66
    107.8700	  665.00	  671.44	-1732.37	  354.47
    107.9700	  679.00	  670.64	-1717.57	  354.27
    108.0700	  692.00	  670.04	-1703.97	  354.08
    108.1700	  635.00	  669.86	-1760.79	  353.88
    108.2700	  685.00	  670.25	-1711.18	  353.69
    108.3700	  628.00	  671.23	-1769.17	  353.50
    108.4700	  654.00	  672.75	-1744.68	  353.31
    108.5700	  664.00	  674.64	-1736.57	  353.13
    108.6700	  682.00	  676.65	-1720.58	  352.94
    108.7700	  713.00	  678.44	-1691.37	  352.75
    108.8700	  718.00	  679.64	-1687.57	  352.57
    108.9700	  674.00	  679.86	-1731.79	  352.39
    109.0700	  681.00	  678.77	-1723.70	  352.21
    109.1700	  681.00	  676.12	-1721.05	  352.03
    109.2700	  694.00	  671.79	-1703.72	  351.85
    109.3700	  648.00	  665.82	-1743.75	  351.67
    109.4700	  600.00	  658.38	-1784.31	  351.49
    109.5700	  663.00	  649.71	-1712.65	  351.32
    109.6700	  662.00	  640.16	-1704.09	  351.15
    109.7700	  650.00	  630.04	-1705.97	  350.98
    109.8700	  670.00	  619.67	-1675.60	  350.81
    109.9700	  602.00	  609.35	-1733.28	  350.64
    110.0700	  628.00	  599.33	-1697.26	  350.47
    110.1700	  589.00	  589.84	-1726.77	  350.31
    110.2700	  566.00	  581.05	-1740.98	  350.15
    110.3700	  610.00	  573.08	-1689.01	  349.99
    110.4700	  584.00	  566.04	-1707.97	  349.83
    110.5700	  585.00	  559.95	-1700.89	  349.67
    110.6700	  577.00	  554.84	-1703.77	  349.52
    110.7700	  560.00	  550.68	-1716.61	  349.36
    110.8700	  593.00	  547.42	-1680.35	  349.21
    110.9700	  538.00	  545.00	-1732.93	  349.06
    111.0700	  554.00	  543.35	-1715.28	  348.91
    111.1700	  520.00	  542.38	-1748.31	  348.77
    111.2700	  534.00	  542.01	-1733.94	  348.63
    111.3700	  521.00	  542.17	-1747.10	  348.48
    111.4700	  538.00	  542.77	-1730.70	  348.34
    111.5700	  532.00	  543.77	-1737.70	  348.21
    111.6700	  537.00	  545.10	-1734.03	  348.07
    111.7700	  523.00	  546.71	-1749.64	  347.94
    111.8700	  546.00	  548.57	-1728.50	  347.81
    111.9700	  538.00	  550.65	-1738.58	  347.68
    112.0700	  569.00	  552.94	-1709.87	  347.56
    112.1700	  550.00	  555.44	-1731.37	  347.43
    112.2700	  583.00	  558.14	-1701.07	  347.31
    112.3700	  552.00	  561.07	-1735.00	  347.19
    112.4700	  587.00	  564.25	-1703.18	  347.08
    112.5700	  571.00	  567.71	-1722.65	  346.96
    112.6700	  548.00	  571.51	-1749.45	  346.85
    112.7700	  580.00	  575.71	-1721.64	  346.74
    112.8700	  588.00	  580.38	-1718.31	  346.64
    112.9700	  578.00	  585.62	-1733.55	  346.53
    113.0700	  589.00	  591.56	-1728.50	  346.43
    113.1700	  622.00	  598.38	-1702.31	  346.33
    113.2700	  576.00	  606.28	-1756.22	  346.24
    113.3700	  663.00	  615.55	-1678.48	  346.15
    113.4700	  637.00	  626.54	-1715.47	  346.06
    113.5700	  608.00	  639.70	-1757.63	  345.97
    113.6700	  701.00	  655.61	-1680.54	  345.89
    113.7700	  704.00	  674.96	-1696.89	  345.81
    113.8700	  733.00	  698.62	-1691.55	  345.73
    113.9700	  781.00	  727.63	-1672.56	  345.65
    114.0700	  795.00	  763.23	-1694.16	  345.58
    114.1700	  887.00	  806.89	-1645.82	  345.51
    114.2700	  862.00	  860.27	-1724.20	  345.45
    114.3700	  942.00	  925.23	-1709.16	  345.38
    114.4700	 1074.00	 1003.82	-1655.75	  345.32
    114.5700	 1182.00	 1098.25	-1642.18	  345.27
    114.6700	 1336.00	 1210.81	-1600.74	  345.22
    114.7700	 1459.00	 1343.81	-1610.75	  345.17
    114.8700	 1649.00	 1499.45	-1576.38	  345.12
    114.9700	 1746.00	 1679.66	-1659.59	  345.08
    115.0700	 1969.00	 1886.09	-1643.02	  345.04
    115.1700	 2158.00	 2119.89	-1687.82	  345.00
    115.2700	 2476.00	 2381.50	-1631.43	  344.97
    115.3700	 2697.00	 2670.56	-1699.49	  344.94
    115.4700	 3031.00	 2985.72	-1680.65	  344.92
    115.5700	 3266.00	 3324.69	-1784.62	  344.89
    115.6700	 3648.00	 3684.01	-1761.94	  344.88
    115.7700	 4188.00	 4058.96	-1596.89	  344.86
    115.8700	 4262.00	 4443.63	-1907.56	  344.85
    115.9700	 4717.00	 4830.87	-1839.80	  344.84
    116.0700	 5142.00	 5212.53	-1796.46	  344.84
    116.1700	 5543.00	 5579.44	-1762.37	  344.84
    116.2700	 5817.00	 5921.51	-1830.44	  344.85
    116.3700	 5993.00	 6228.18	-1961.11	  344.86
    116.4700	 6480.00	 6488.84	-1734.77	  344.87
    116.5700	 6752.00	 6693.58	-1667.51	  344.89
    116.6700	 6818.00	 6833.94	-1741.87	  344.91
    116.7700	 6813.00	 6903.72	-1816.65	  344.93
    116.8700	 6842.00	 6899.90	-1783.83	  344.96
    116.9700	 6776.00	 6822.94	-1772.87	  345.00
    117.0700	 6557.00	 6676.75	-1845.68	  345.04
    117.1700	 6381.00	 6468.11	-1813.04	  345.08
    117.2700	 6190.00	 6205.94	-1741.87	  345.12
    117.3700	 5897.00	 5900.36	-1729.30	  345.18
    117.4700	 5528.00	 5561.96	-1759.90	  345.23
    117.5700	 5052.00	 5201.05	-1874.98	  345.29
    117.6700	 4783.00	 4827.26	-1770.19	  345.36
    117.7700	 4451.00	 4449.46	-1724.39	  345.43
    117.8700	 4236.00	 4075.41	-1565.34	  345.50
    117.9700	 3816.00	 3711.76	-1621.69	  345.58
    118.0700	 3482.00	 3363.85	-1607.78	  345.66
    118.1700	 3179.00	 3035.82	-1582.75	  345.75
    118.2700	 2805.00	 2730.77	-1651.70	  345.84
    118.3700	 2532.00	 2450.68	-1644.61	  345.94
    118.4700	 2261.00	 2196.60	-1661.53	  346.04
    118.5700	 1991.00	 1968.65	-1703.58	  346.15
    118.6700	 1746.00	 1766.27	-1746.20	  346.26
    118.7700	 1582.00	 1588.39	-1732.32	  346.38
    118.8700	 1417.00	 1433.48	-1742.41	  346.50
    118.9700	 1258.00	 1299.73	-1767.66	  346.63
    119.0700	 1141.00	 1185.12	-1770.05	  346.77
    119.1700	 1044.00	 1087.53	-1769.46	  346.90
    119.2700	  961.00	 1004.93	-1769.86	  347.05
    119.3700	  986.00	  935.33	-1675.26	  347.20
    119.4700	  874.00	  876.90	-1728.83	  347.35
    119.5700	  788.00	  827.94	-1765.87	  347.51
    119.6700	  838.00	  786.97	-1674.90	  347.68
    119.7700	  700.00	  752.69	-1778.62	  347.85
    119.8700	  657.00	  723.98	-1792.91	  348.03
    119.9700	  670.00	  699.92	-1755.85	  348.21
    120.0700	  607.00	  679.71	-1798.64	  348.40
    120.1700	  631.00	  662.70	-1757.63	  348.59
    120.2700	  649.00	  648.37	-1725.30	  348.79
    120.3700	  555.00	  636.29	-1807.22	  349.00
    120.4700	  625.00	  626.11	-1727.04	  349.21
    120.5700	  606.00	  617.56	-1737.49	  349.42
    120.6700	  629.00	  610.41	-1707.34	  349.65
    120.7700	  568.00	  604.48	-1762.41	  349.88
    120.8700	  567.00	  599.64	-1758.57	  350.11
    120.9700	  580.00	  595.78	-1741.71	  350.35
    121.0700	  554.00	  592.79	-1764.72	  350.60
    121.1700	  578.00	  590.60	-1738.53	  350.86
    121.2700	  572.00	  589.15	-1743.08	  351.12
    121.3700	  564.00	  588.39	-1750.32	  351.38
    121.4700	  615.00	  588.25	-1699.19	  351.66
    121.5700	  597.00	  588.70	-1717.63	  351.94
    121.6700	  605.00	  589.68	-1710.61	  352.22
    121.7700	  617.00	  591.13	-1700.06	  352.52
    121.8700	  533.00	  593.00	-1785.93	  352.82
    121.9700	  589.00	  595.22	-1732.15	  353.12
    122.0700	  625.00	  597.73	-1698.66	  353.44
    122.1700	  635.00	  600.46	-1691.39	  353.76
    122.2700	  630.00	  603.31	-1699.24	  354.08
    122.3700	  601.00	  606.21	-1731.14	  354.42
    122.4700	  570.00	  609.06	-1764.99	  354.76
    122.5700	  640.00	  611.77	-1697.70	  355.11
    122.6700	  600.00	  614.25	-1740.18	  355.46
    122.7700	  628.00	  616.40	-1714.34	  355.82
    122.8700	  653.00	  618.16	-1691.09	  356.19
    122.9700	  602.00	  619.43	-1743.36	  356.57
    123.0700	  642.00	  620.21	-1704.14	  356.95
    123.1700	  634.00	  620.46	-1712.39	  357.35
    123.2700	  661.00	  620.17	-1685.10	  357.74
    123.3700	  646.00	  619.37	-1699.30	  358.15
    123.4700	  627.00	  618.08	-1717.02	  358.56
    123.5700	  604.00	  616.37	-1738.30	  358.99
    123.6700	  627.00	  614.29	-1713.22	  359.41
    123.7700	  584.00	  611.89	-1753.82	  359.85
    123.8700	  654.00	  609.25	-1681.18	  360.30
    123.9700	  640.00	  606.42	-1692.35	  360.75
    124.0700	  592.00	  603.46	-1737.39	  361.21
    124.1700	  600.00	  600.43	-1726.36	  361.68
    124.2700	  573.00	  597.39	-1750.33	  362.15
    124.3700	  616.00	  594.40	-1704.33	  362.64
    124.4700	  590.00	  591.48	-1727.41	  363.13
    124.5700	  608.00	  588.67	-1706.60	  363.63
    124.6700	  578.00	  586.01	-1733.94	  364.14
    124.7700	  557.00	  583.51	-1752.44	  364.66
    124.8700	  575.00	  581.19	-1732.12	  365.19
    124.9700	  616.00	  480.67	-1590.60	  365.72
    125.0700	  606.00	  481.21	-1725.93	  366.26
    125.1700	  565.00	  481.76	-1725.93	  366.82
    125.2700	  559.00	  482.32	-1725.93	  367.38
    125.3700	  554.00	  482.89	-1725.93	  367.95
    125.4700	  584.00	  483.47	-1725.93	  368.52
    125.5700	  576.00	  484.06	-1725.93	  369.11
    125.6700	  580.00	  484.65	-1725.93	  369.71
    125.7700	  630.00	  485.26	-1725.93	  370.31
    125.8700	  552.00	  485.87	-1725.93	  370.92
    125.9700	  578.00	  486.49	-1725.93	  371.55
    126.0700	  608.00	  487.13	-1725.93	  372.18
    126.1700	  560.00	  487.77	-1725.93	  372.82
    126.2700	  531.00	  488.42	-1725.93	  373.47
    126.3700	  549.00	  489.08	-1725.93	  374.13
    126.4700	  595.00	  489.75	-1725.93	  374.80
    126.5700	  549.00	  490.43	-1725.93	  375.48
    126.6700	  590.00	  491.11	-1725.93	  376.17
    126.7700	  588.00	  491.81	-1725.93	  376.87
    126.8700	  605.00	  492.52	-1725.93	  377.57
    126.9700	  584.00	  493.24	-1725.93	  378.29
    127.0700	  621.00	  493.97	-1725.93	  379.02
    127.1700	  677.00	  494.70	-1725.93	  379.76
    127.2700	  634.00	  495.45	-1725.93	  380.50
    127.3700	  627.00	  496.21	-1725.93	  381.26
    127.4700	  661.00	  496.97	-1725.93	  382.03
    127.5700	  619.00	  497.75	-1725.93	  382.80
    127.6700	  604.00	  498.54	-1725.93	  383.59
    127.7700	  701.00	  499.34	-1725.93	  384.39
    127.8700	  682.00	  500.15	-1725.93	  385.20
    127.9700	  706.00	  500.97	-1725.93	  386.02
    128.0700	  718.00	  501.79	-1725.93	  386.85
    128.1700	  763.00	  502.63	-1725.93	  387.69
    128.2700	  767.00	  503.49	-1725.93	  388.54
    128.3700	  762.00	  504.35	-1725.93	  389.40
    128.4700	  759.00	  505.22	-1725.93	  390.27
    128.5700	    0.00	  506.10	-1725.93	  391.15
    128.6700	    0.00	  507.00	-1725.93	  392.05
     12.3150	        	        	        	        	       0	(  0  0  2)	  0  1
     24.9071	        	        	        	        	       0	(  0  0  4)	  0  1
     28.3554	        	        	        	        	       0	(  1  0  0)	  0  1
     29.0531	        	        	        	        	       0	(  1  0  1)	  0  1
     31.0605	        	        	        	        	       0	(  1  0  2)	  0  1
     34.1709	        	        	        	        	       0	(  1  0  3)	  0  1
     37.8160	        	        	        	        	       0	(  0  0  6)	  0  1
     38.1507	        	        	        	        	       0	(  1  0  4)	  0  1
     42.8042	        	        	        	        	       0	(  1  0  5)	  0  1
     47.9921	        	        	        	        	       0	(  1  0  6)	  0  1
     50.3130	        	        	        	        	       0	(  1  1  0)	  0  1
     51.2483	        	        	        	        	       0	(  0  0  8)	  0  1
     52.0373	        	        	        	        	       0	(  1  1  2)	  0  1
     53.6271	        	        	        	        	       0	(  1  0  7)	  0  1
     56.9891	        	        	        	        	       0	(  1  1  4)	  0  1
     58.8190	        	        	        	        	       0	(  2  0  0)	  0  1
     59.2109	        	        	        	        	       0	(  2  0  1)	  0  1
     59.6626	        	        	        	        	       0	(  1  0  8)	  0  1
     60.3772	        	        	        	        	       0	(  2  0  2)	  0  1
     62.2921	        	        	        	        	       0	(  2  0  3)	  0  1
     64.6904	        	        	        	        	       0	(  1  1  6)	  0  1
     64.9185	        	        	        	        	       0	(  2  0  4)	  0  1
     65.4899	        	        	        	        	       0	(  0  0 10)	  0  1
     66.0847	        	        	        	        	       0	(  1  0  9)	  0  1
     68.2157	        	        	        	        	       0	(  2  0  5)	  0  1
     72.1470	        	        	        	        	       0	(  2  0  6)	  0  1
     72.9075	        	        	        	        	       0	(  1  0 10)	  0  1
     74.7378	        	        	        	        	       0	(  1  1  8)	  0  1
     76.6858	        	        	        	        	       0	(  2  0  7)	  0  1
     80.1729	        	        	        	        	       0	(  1  0 11)	  0  1
     80.9863	        	        	        	        	       0	(  0  0 12)	  0  1
     81.0880	        	        	        	        	       0	(  2  1  0)	  0  1
     81.4283	        	        	        	        	       0	(  2  1  1)	  0  1
     81.8218	        	        	        	        	       0	(  2  0  8)	  0  1
     82.4473	        	        	        	        	       0	(  2  1  2)	  0  1
     84.1407	        	        	        	        	       0	(  2  1  3)	  0  1
     86.5032	        	        	        	        	       0	(  2  1  4)	  0  1
     87.0233	        	        	        	        	       0	(  1  1 10)	  0  1
     87.5669	        	        	        	        	       0	(  2  0  9)	  0  1
     87.9566	        	        	        	        	       0	(  1  0 12)	  0  1
     89.5330	        	        	        	        	       0	(  2  1  5)	  0  1
     93.2356	        	        	        	        	       0	(  2  1  6)	  0  1
     93.9630	        	        	        	        	       0	(  2  0 10)	  0  1
     94.9994	        	        	        	        	       0	(  3  0  0)	  0  1
     95.3373	        	        	        	        	       0	(  3  0  1)	  0  1
     96.3521	        	        	        	        	       0	(  3  0  2)	  0  1
     96.3815	        	        	        	        	       0	(  1  0 13)	  0  1
     97.6309	        	        	        	        	       0	(  2  1  7)	  0  1
     98.0481	        	        	        	        	       0	(  3  0  3)	  0  1
     98.5490	        	        	        	        	       0	(  0  0 14)	  0  1
    100.4351	        	        	        	        	       0	(  3  0  4)	  0  1
    101.0961	        	        	        	        	       0	(  2  0 11)	  0  1
    101.9156	        	        	        	        	       0	(  1  1 12)	  0  1
    102.7620	        	        	        	        	       0	(  2  1  8)	  0  1
    103.5322	        	        	        	        	       0	(  3  0  5)	  0  1
    105.6496	        	        	        	        	       0	(  1  0 14)	  0  1
    107.3748	        	        	        	        	       0	(  3  0  6)	  0  1
    108.7103	        	        	        	        	       0	(  2  1  9)	  0  1
    109.1223	        	        	        	        	       0	(  2  0 12)	  0  1
    112.0252	        	        	        	        	       0	(  3  0  7)	  0  1
    115.6230	        	        	        	        	       0	(  2  1 10)	  0  1
    116.1153	        	        	        	        	       0	(  1  0 15)	  0  1
    116.7756	        	        	        	        	       0	(  2  2  0)	  0  1
    117.5925	        	        	        	        	       0	(  3  0  8)	  0  1
    118.2950	        	        	        	        	       0	(  2  2  2)	  0  1
    118.3283	        	        	        	        	       0	(  2  0 13)	  0  1
    120.0817	        	        	        	        	       0	(  0  0 16)	  0  1
    120.8016	        	        	        	        	       0	(  1  1 14)	  0  1
    122.9949	        	        	        	        	       0	(  2  2  4)	  0  1
    123.7734	        	        	        	        	       0	(  2  1 11)	  0  1
    124.2727	        	        	        	        	       0	(  3  0  9)	  0  1
    124.8687	        	        	        	        	       0	(  3  1  0)	  0  1
    125.2804	        	        	        	        	       0	(  3  1  1)	  0  1
    126.5285	        	        	        	        	       0	(  3  1  2)	  0  1
    128.4959	        	        	        	        	       0	(  1  0 16)	  0  1
    128.6552	        	        	        	        	       0	(  3  1  3)	  0  1
    129.2937	        	        	        	        	       0	(  2  0 14)	  0  1
    131.4677	        	        	        	        	       0	(  2  2  6)	  0  1
    131.7446	        	        	        	        	       0	(  3  1  4)	  0  1
    132.4458	        	        	        	        	       0	(  3  0 10)	  0  1
    133.7253	        	        	        	        	       0	(  2  1 12)	  0  1
    135.9530	        	        	        	        	       0	(  3  1  5)	  0  1
    141.5843	        	        	        	        	       0	(  3  1  6)	  0  1
    142.9872	        	        	        	        	       0	(  3  0 11)	  0  1
    143.5113	        	        	        	        	       0	(  2  0 15)	  0  1
    144.7541	        	        	        	        	       0	(  1  0 17)	  0  1
    145.7941	        	        	        	        	       0	(  2  2  8)	  0  1
    146.9704	        	        	        	        	       0	(  2  1 13)	  0  1
    149.3281	        	        	        	        	       0	(  3  1  7)	  0  1
    149.9015	        	        	        	        	       0	(  1  1 16)	  0  1
    154.3524	        	        	        	        	       0	(  0  0 18)	  0  1
    159.0825	        	        	        	        	       0	(  3  0 12)	  0  1
    159.3676	        	        	        	        	       0	(  4  0  0)	  0  1
    160.3506	        	        	        	        	       0	(  4  0  1)	  0  1
    161.5517	        	        	        	        	       0	(  3  1  8)	  0  1
    163.6387	        	        	        	        	       0	(  4  0  2)	  0  1
    170.7379	        	        	        	        	       0	(  2  0 16)	  0  1
    171.5572	        	        	        	        	       0	(  4  0  3)	  0  1
    176.3734	        	        	        	        	       0	(  2  1 14)	  0  1
