MSG Master    CELL:    5.91745   5.91745  23.26184   90.0000   90.0000  120.0000   SPGR: P 63/m m c             TEMP:   1036.65
  1   1280     2.52000     0.00000    -0.12166     0.00000     0.00000    0
    99     0     2
       0.00000      10.00000
     125.00000     130.00000
 2Theta	Yobs	Ycal	Yobs-Ycal	Backg	Posr	(hkl)	K
      0.7700	    0.00	  549.88	-1802.50	  434.79
      0.8700	    0.00	  550.55	-1802.50	  435.46
      0.9700	   51.00	  551.21	-1802.50	  436.12
      1.0700	   37.00	  551.86	-1802.50	  436.77
      1.1700	   51.00	  552.51	-1802.50	  437.41
      1.2700	   46.00	  553.14	-1802.50	  438.04
      1.3700	   45.00	  553.76	-1802.50	  438.66
      1.4700	   99.00	  554.37	-1802.50	  439.27
      1.5700	  274.00	  554.96	-1802.50	  439.87
      1.6700	  453.00	  555.55	-1802.50	  440.46
      1.7700	  599.00	  556.13	-1802.50	  441.04
      1.8700	  651.00	  556.70	-1802.50	  441.61
      1.9700	  721.00	  557.26	-1802.50	  442.17
      2.0700	  848.00	  557.81	-1802.50	  442.72
      2.1700	  812.00	  558.35	-1802.50	  443.26
      2.2700	  736.00	  558.88	-1802.50	  443.79
      2.3700	  710.00	  559.40	-1802.50	  444.31
      2.4700	  694.00	  559.92	-1802.50	  444.82
      2.5700	  694.00	  560.42	-1802.50	  445.32
      2.6700	  671.00	  560.91	-1802.50	  445.82
      2.7700	  691.00	  561.39	-1802.50	  446.30
      2.8700	  640.00	  561.87	-1802.50	  446.77
      2.9700	  643.00	  562.33	-1802.50	  447.24
      3.0700	  592.00	  562.79	-1802.50	  447.69
      3.1700	  580.00	  563.23	-1802.50	  448.14
      3.2700	  618.00	  563.67	-1802.50	  448.58
      3.3700	  681.00	  564.10	-1802.50	  449.01
      3.4700	  791.00	  564.52	-1802.50	  449.43
      3.5700	  788.00	  564.93	-1802.50	  449.84
      3.6700	  805.00	  565.33	-1802.50	  450.24
      3.7700	  930.00	  565.73	-1802.50	  450.63
      3.8700	  978.00	  566.11	-1802.50	  451.02
      3.9700	 1047.00	  566.49	-1802.50	  451.39
      4.0700	 1049.00	  566.85	-1802.50	  451.76
      4.1700	 1022.00	  567.21	-1802.50	  452.12
      4.2700	 1114.00	  567.57	-1802.50	  452.47
      4.3700	 1088.00	  567.91	-1802.50	  452.82
      4.4700	 1051.00	  568.24	-1802.50	  453.15
      4.5700	 1055.00	  568.57	-1802.50	  453.48
      4.6700	 1033.00	  568.89	-1802.50	  453.80
      4.7700	  985.00	  569.20	-1802.50	  454.11
      4.8700	  990.00	  569.50	-1802.50	  454.41
      4.9700	  973.00	  569.80	-1802.50	  454.70
      5.0700	  888.00	  570.08	-1802.50	  454.99
      5.1700	  997.00	  570.36	-1802.50	  455.27
      5.2700	  893.00	  570.63	-1802.50	  455.54
      5.3700	  945.00	  570.90	-1802.50	  455.80
      5.4700	  889.00	  571.15	-1802.50	  456.06
      5.5700	  820.00	  571.40	-1802.50	  456.31
      5.6700	  854.00	  571.64	-1802.50	  456.55
      5.7700	  796.00	  571.88	-1802.50	  456.78
      5.8700	  797.00	  572.10	-1802.50	  457.01
      5.9700	  842.00	  572.32	-1802.50	  457.23
      6.0700	  808.00	  572.53	-1802.50	  457.44
      6.1700	  776.00	  572.74	-1802.50	  457.65
      6.2700	  780.00	  572.94	-1802.50	  457.84
      6.3700	  789.00	  573.13	-1802.50	  458.03
      6.4700	  791.00	  573.31	-1802.50	  458.22
      6.5700	  731.00	  573.49	-1802.50	  458.39
      6.6700	  740.00	  573.66	-1802.50	  458.56
      6.7700	  752.00	  573.82	-1802.50	  458.73
      6.8700	  699.00	  573.98	-1802.50	  458.88
      6.9700	  663.00	  574.13	-1802.50	  459.03
      7.0700	  722.00	  574.27	-1802.50	  459.18
      7.1700	  709.00	  574.41	-1802.50	  459.31
      7.2700	  663.00	  574.53	-1802.50	  459.44
      7.3700	  682.00	  574.66	-1802.50	  459.57
      7.4700	  632.00	  574.78	-1802.50	  459.68
      7.5700	  630.00	  574.89	-1802.50	  459.79
      7.6700	  643.00	  574.99	-1802.50	  459.90
      7.7700	  643.00	  575.09	-1802.50	  460.00
      7.8700	  608.00	  575.18	-1802.50	  460.09
      7.9700	  597.00	  575.27	-1802.50	  460.17
      8.0700	  634.00	  575.35	-1802.50	  460.25
      8.1700	  632.00	  575.42	-1802.50	  460.33
      8.2700	  634.00	  575.49	-1802.50	  460.40
      8.3700	  645.00	  575.55	-1802.50	  460.46
      8.4700	  586.00	  575.61	-1802.50	  460.51
      8.5700	  607.00	  575.66	-1802.50	  460.57
      8.6700	  625.00	  575.70	-1802.50	  460.61
      8.7700	  656.00	  575.74	-1802.50	  460.65
      8.8700	  606.00	  575.77	-1802.50	  460.68
      8.9700	  633.00	  575.80	-1802.50	  460.71
      9.0700	  651.00	  575.82	-1802.50	  460.73
      9.1700	  634.00	  575.84	-1802.50	  460.75
      9.2700	  588.00	  575.85	-1802.50	  460.76
      9.3700	  609.00	  575.86	-1802.50	  460.77
      9.4700	  558.00	  575.86	-1802.50	  460.77
      9.5700	  582.00	  575.85	-1802.50	  460.76
      9.6700	  549.00	  575.84	-1802.50	  460.75
      9.7700	  623.00	  575.83	-1802.50	  460.74
      9.8700	  564.00	  575.81	-1802.50	  460.72
      9.9700	  541.00	  575.78	-1802.50	  460.69
     10.0700	  584.00	  576.47	-1794.97	  460.66
     10.1700	  555.00	  576.50	-1824.00	  460.63
     10.2700	  585.00	  576.55	-1794.05	  460.59
     10.3700	  565.00	  576.61	-1814.11	  460.54
     10.4700	  608.00	  576.72	-1771.22	  460.49
     10.5700	  616.00	  576.92	-1763.42	  460.44
     10.6700	  613.00	  577.29	-1766.79	  460.38
     10.7700	  609.00	  577.95	-1771.45	  460.32
     10.8700	  580.00	  578.95	-1801.45	  460.25
     10.9700	  572.00	  580.31	-1810.81	  460.17
     11.0700	  600.00	  581.99	-1784.49	  460.10
     11.1700	  588.00	  583.97	-1798.47	  460.01
     11.2700	  607.00	  586.29	-1781.79	  459.93
     11.3700	  531.00	  589.01	-1860.51	  459.84
     11.4700	  598.00	  592.24	-1796.74	  459.74
     11.5700	  620.00	  596.17	-1778.67	  459.64
     11.6700	  620.00	  601.08	-1783.58	  459.54
     11.7700	  611.00	  607.52	-1799.02	  459.43
     11.8700	  609.00	  616.34	-1809.84	  459.32
     11.9700	  657.00	  628.37	-1773.87	  459.20
     12.0700	  708.00	  642.62	-1737.12	  459.08
     12.1700	  693.00	  653.75	-1763.25	  458.96
     12.2700	  652.00	  652.39	-1802.89	  458.83
     12.3700	  685.00	  634.27	-1751.77	  458.70
     12.4700	  604.00	  610.43	-1808.93	  458.57
     12.5700	  600.00	  592.59	-1795.09	  458.43
     12.6700	  569.00	  582.93	-1816.43	  458.28
     12.7700	  593.00	  578.64	-1788.14	  458.14
     12.8700	  583.00	  576.76	-1796.26	  457.98
     12.9700	  543.00	  575.73	-1835.23	  457.83
     13.0700	  578.00	  575.03	-1799.53	  457.67
     13.1700	  601.00	  574.48	-1775.98	  457.51
     13.2700	  547.00	  574.03	-1829.53	  457.35
     13.3700	  527.00	  573.64	-1849.14	  457.18
     13.4700	  574.00	  573.29	-1801.79	  457.01
     13.5700	  529.00	  572.98	-1846.48	  456.83
     13.6700	  560.00	  572.69	-1815.19	  456.65
     13.7700	  559.00	  572.42	-1815.92	  456.47
     13.8700	  580.00	  572.16	-1794.66	  456.29
     13.9700	  552.00	  571.91	-1822.41	  456.10
     14.0700	  544.00	  571.66	-1830.16	  455.91
     14.1700	  557.00	  571.42	-1816.92	  455.71
     14.2700	  530.00	  571.18	-1843.68	  455.51
     14.3700	  605.00	  570.95	-1768.45	  455.31
     14.4700	  594.00	  570.71	-1779.21	  455.11
     14.5700	  576.00	  570.48	-1796.98	  454.90
     14.6700	  544.00	  570.25	-1828.75	  454.69
     14.7700	  572.00	  570.02	-1800.52	  454.48
     14.8700	  570.00	  569.78	-1802.28	  454.27
     14.9700	  562.00	  569.55	-1810.05	  454.05
     15.0700	  582.00	  569.31	-1789.81	  453.83
     15.1700	  567.00	  569.07	-1804.57	  453.60
     15.2700	  529.00	  568.84	-1842.34	  453.38
     15.3700	  545.00	  568.60	-1826.10	  453.15
     15.4700	  564.00	  568.35	-1806.85	  452.92
     15.5700	  583.00	  568.11	-1787.61	  452.68
     15.6700	  540.00	  567.87	-1830.37	  452.45
     15.7700	  520.00	  567.62	-1850.12	  452.21
     15.8700	  563.00	  567.37	-1806.87	  451.97
     15.9700	  556.00	  567.12	-1813.62	  451.72
     16.0700	  549.00	  566.87	-1820.37	  451.48
     16.1700	  577.00	  566.61	-1792.11	  451.23
     16.2700	  591.00	  566.36	-1777.86	  450.98
     16.3700	  552.00	  566.13	-1816.63	  450.72
     16.4700	  582.00	  565.87	-1786.37	  450.47
     16.5700	  502.00	  565.61	-1866.11	  450.21
     16.6700	  611.00	  565.34	-1756.84	  449.95
     16.7700	  572.00	  565.08	-1795.58	  449.69
     16.8700	  570.00	  564.81	-1797.31	  449.43
     16.9700	  561.00	  564.54	-1806.04	  449.16
     17.0700	  527.00	  564.27	-1839.77	  448.89
     17.1700	  523.00	  564.00	-1843.50	  448.62
     17.2700	  528.00	  563.73	-1838.23	  448.35
     17.3700	  561.00	  563.45	-1804.95	  448.08
     17.4700	  559.00	  563.18	-1806.68	  447.80
     17.5700	  569.00	  562.90	-1796.40	  447.52
     17.6700	  588.00	  562.62	-1777.12	  447.24
     17.7700	  574.00	  562.34	-1790.84	  446.96
     17.8700	  554.00	  562.15	-1810.65	  446.68
     17.9700	  579.00	  561.87	-1785.37	  446.40
     18.0700	  535.00	  561.59	-1829.09	  446.11
     18.1700	  583.00	  561.30	-1780.80	  445.82
     18.2700	  569.00	  561.01	-1794.51	  445.53
     18.3700	  536.00	  560.73	-1827.23	  445.24
     18.4700	  579.00	  560.44	-1783.94	  444.95
     18.5700	  563.00	  560.15	-1799.65	  444.66
     18.6700	  523.00	  559.85	-1839.35	  444.36
     18.7700	  596.00	  559.56	-1766.06	  444.07
     18.8700	  551.00	  559.36	-1810.86	  443.77
     18.9700	  553.00	  559.07	-1808.57	  443.47
     19.0700	  581.00	  558.77	-1780.27	  443.17
     19.1700	  552.00	  558.48	-1808.98	  442.87
     19.2700	  542.00	  558.18	-1818.68	  442.56
     19.3700	  526.00	  557.88	-1834.38	  442.26
     19.4700	  579.00	  557.58	-1781.08	  441.95
     19.5700	  562.00	  557.29	-1797.79	  441.65
     19.6700	  535.00	  556.99	-1824.49	  441.34
     19.7700	  562.00	  556.68	-1797.18	  441.03
     19.8700	  532.00	  556.38	-1826.88	  440.72
     19.9700	  563.00	  556.08	-1795.58	  440.41
     20.0700	  545.00	  555.78	-1813.28	  440.09
     20.1700	  597.00	  555.47	-1760.97	  439.78
     20.2700	  568.00	  555.17	-1789.67	  439.47
     20.3700	  548.00	  554.84	-1809.34	  439.15
     20.4700	  507.00	  554.54	-1850.04	  438.84
     20.5700	  578.00	  554.23	-1778.73	  438.52
     20.6700	  518.00	  553.93	-1838.43	  438.20
     20.7700	  525.00	  553.62	-1831.12	  437.88
     20.8700	  524.00	  553.36	-1831.86	  437.56
     20.9700	  556.00	  553.05	-1799.55	  437.24
     21.0700	  546.00	  552.75	-1809.25	  436.92
     21.1700	  613.00	  552.45	-1741.95	  436.60
     21.2700	  538.00	  552.14	-1816.64	  436.28
     21.3700	  553.00	  551.84	-1801.34	  435.96
     21.4700	  544.00	  551.54	-1810.04	  435.63
     21.5700	  567.00	  551.24	-1786.74	  435.31
     21.6700	  539.00	  550.94	-1814.44	  434.98
     21.7700	  569.00	  550.64	-1784.14	  434.66
     21.8700	  562.00	  550.35	-1790.85	  434.33
     21.9700	  555.00	  550.05	-1797.55	  434.01
     22.0700	  489.00	  549.76	-1863.26	  433.68
     22.1700	  523.00	  549.47	-1828.97	  433.35
     22.2700	  562.00	  549.18	-1789.68	  433.02
     22.3700	  568.00	  548.90	-1783.40	  432.70
     22.4700	  531.00	  548.62	-1820.12	  432.37
     22.5700	  574.00	  548.34	-1776.84	  432.04
     22.6700	  549.00	  548.07	-1801.57	  431.71
     22.7700	  530.00	  547.81	-1820.31	  431.38
     22.8700	  553.00	  547.55	-1797.05	  431.05
     22.9700	  578.00	  547.30	-1771.80	  430.72
     23.0700	  546.00	  547.07	-1803.57	  430.39
     23.1700	  554.00	  546.85	-1795.35	  430.06
     23.2700	  523.00	  546.65	-1826.15	  429.73
     23.3700	  547.00	  546.47	-1801.97	  429.40
     23.4700	  491.00	  546.33	-1857.83	  429.07
     23.5700	  574.00	  546.22	-1774.72	  428.74
     23.6700	  581.00	  546.18	-1767.68	  428.41
     23.7700	  578.00	  546.36	-1770.86	  428.08
     23.8700	  543.00	  546.60	-1806.10	  427.75
     23.9700	  555.00	  547.22	-1794.72	  427.42
     24.0700	  550.00	  548.62	-1801.12	  427.09
     24.1700	  549.00	  551.46	-1804.96	  426.76
     24.2700	  549.00	  556.58	-1810.08	  426.43
     24.3700	  570.00	  564.98	-1797.48	  426.09
     24.4700	  539.00	  577.78	-1841.28	  425.76
     24.5700	  573.00	  595.64	-1825.14	  425.43
     24.6700	  663.00	  616.47	-1755.97	  425.10
     24.7700	  596.00	  632.78	-1839.28	  424.77
     24.8700	  643.00	  633.05	-1792.55	  424.44
     24.9700	  582.00	  613.11	-1833.61	  424.12
     25.0700	  569.00	  585.92	-1819.42	  423.79
     25.1700	  561.00	  564.65	-1806.15	  423.46
     25.2700	  599.00	  552.49	-1755.99	  423.13
     25.3700	  576.00	  546.84	-1773.34	  422.80
     25.4700	  578.00	  544.37	-1768.87	  422.47
     25.5700	  561.00	  543.12	-1784.62	  422.14
     25.6700	  525.00	  542.33	-1819.83	  421.82
     25.7700	  536.00	  541.77	-1808.27	  421.49
     25.8700	  563.00	  541.34	-1780.84	  421.16
     25.9700	  555.00	  541.02	-1788.52	  420.84
     26.0700	  555.00	  540.79	-1788.29	  420.51
     26.1700	  561.00	  540.63	-1782.13	  420.19
     26.2700	  565.00	  540.56	-1778.06	  419.86
     26.3700	  544.00	  540.56	-1799.06	  419.54
     26.4700	  543.00	  540.64	-1800.14	  419.22
     26.5700	  586.00	  540.83	-1757.33	  418.89
     26.6700	  590.00	  541.12	-1753.62	  418.57
     26.7700	  529.00	  541.56	-1815.06	  418.25
     26.8700	  530.00	  542.16	-1814.66	  417.93
     26.9700	  573.00	  542.99	-1772.49	  417.61
     27.0700	  571.00	  544.12	-1775.62	  417.29
     27.1700	  480.00	  545.67	-1868.17	  416.97
     27.2700	  543.00	  547.88	-1807.38	  416.65
     27.3700	  517.00	  551.20	-1836.70	  416.33
     27.4700	  538.00	  556.53	-1821.03	  416.01
     27.5700	  589.00	  565.46	-1778.96	  415.70
     27.6700	  572.00	  580.51	-1811.01	  415.38
     27.7700	  581.00	  605.00	-1826.50	  415.07
     27.8700	  565.00	  641.93	-1879.43	  414.75
     27.9700	  699.00	  691.77	-1795.27	  414.44
     28.0700	  766.00	  749.55	-1786.05	  414.12
     28.1700	  919.00	  802.27	-1685.77	  413.81
     28.2700	  969.00	  829.41	-1662.91	  413.50
     28.3700	  929.00	  816.33	-1689.83	  413.19
     28.4700	  827.00	  779.44	-1754.94	  412.88
     28.5700	  735.00	  753.02	-1820.52	  412.57
     28.6700	  734.00	  755.23	-1823.73	  412.27
     28.7700	  783.00	  783.14	-1802.64	  411.96
     28.8700	  789.00	  817.51	-1831.01	  411.65
     28.9700	  840.00	  828.83	-1791.33	  411.35
     29.0700	  784.00	  794.70	-1813.20	  411.05
     29.1700	  711.00	  727.59	-1819.09	  410.74
     29.2700	  721.00	  659.79	-1741.29	  410.44
     29.3700	  596.00	  609.13	-1815.63	  410.14
     29.4700	  615.00	  577.65	-1765.15	  409.84
     29.5700	  659.00	  560.33	-1703.83	  409.54
     29.6700	  609.00	  551.17	-1744.67	  409.24
     29.7700	  581.00	  546.05	-1767.55	  408.95
     29.8700	  607.00	  542.91	-1738.41	  408.65
     29.9700	  596.00	  540.90	-1747.40	  408.36
     30.0700	  599.00	  539.78	-1743.28	  408.06
     30.1700	  552.00	  539.64	-1790.14	  407.77
     30.2700	  574.00	  540.98	-1769.48	  407.48
     30.3700	  563.00	  544.78	-1784.28	  407.19
     30.4700	  571.00	  552.62	-1784.12	  406.90
     30.5700	  578.00	  566.27	-1790.77	  406.61
     30.6700	  572.00	  586.52	-1817.02	  406.33
     30.7700	  597.00	  611.29	-1816.79	  406.04
     30.8700	  619.00	  634.19	-1817.69	  405.76
     30.9700	  618.00	  644.69	-1829.19	  405.48
     31.0700	  631.00	  634.05	-1805.55	  405.20
     31.1700	  554.00	  607.17	-1855.67	  404.91
     31.2700	  519.00	  578.28	-1861.78	  404.64
     31.3700	  565.00	  556.12	-1793.62	  404.36
     31.4700	  514.00	  542.27	-1830.77	  404.08
     31.5700	  523.00	  534.73	-1814.23	  403.81
     31.6700	  548.00	  530.85	-1785.35	  403.53
     31.7700	  517.00	  528.73	-1814.23	  403.26
     31.8700	  536.00	  527.42	-1793.92	  402.99
     31.9700	  532.00	  526.52	-1797.02	  402.72
     32.0700	  556.00	  525.87	-1772.37	  402.45
     32.1700	  533.00	  525.41	-1794.91	  402.18
     32.2700	  517.00	  525.12	-1810.62	  401.92
     32.3700	  549.00	  524.99	-1778.49	  401.65
     32.4700	  563.00	  525.01	-1764.51	  401.39
     32.5700	  542.00	  525.19	-1785.69	  401.13
     32.6700	  574.00	  525.56	-1754.06	  400.87
     32.7700	  547.00	  526.17	-1781.67	  400.61
     32.8700	  540.00	  527.06	-1789.56	  400.35
     32.9700	  531.00	  528.35	-1799.85	  400.09
     33.0700	  515.00	  530.22	-1817.72	  399.84
     33.1700	  524.00	  533.05	-1811.55	  399.59
     33.2700	  552.00	  537.75	-1788.25	  399.33
     33.3700	  514.00	  546.25	-1834.75	  399.08
     33.4700	  575.00	  562.53	-1790.03	  398.84
     33.5700	  591.00	  593.04	-1804.54	  398.59
     33.6700	  616.00	  645.86	-1832.36	  398.34
     33.7700	  724.00	  725.92	-1804.42	  398.10
     33.8700	  847.00	  826.90	-1782.40	  397.86
     33.9700	 1021.00	  924.52	-1706.02	  397.61
     34.0700	 1142.00	  977.92	-1638.42	  397.37
     34.1700	 1059.00	  950.64	-1694.14	  397.14
     34.2700	  919.00	  854.08	-1737.58	  396.90
     34.3700	  759.00	  740.93	-1784.43	  396.67
     34.4700	  648.00	  649.42	-1803.92	  396.43
     34.5700	  608.00	  590.16	-1784.66	  396.20
     34.6700	  539.00	  557.47	-1820.97	  395.97
     34.7700	  523.00	  541.02	-1820.52	  395.74
     34.8700	  577.00	  532.59	-1758.09	  395.51
     34.9700	  584.00	  527.71	-1746.21	  395.29
     35.0700	  561.00	  524.41	-1765.91	  395.06
     35.1700	  513.00	  521.95	-1811.45	  394.84
     35.2700	  503.00	  520.02	-1819.52	  394.62
     35.3700	  476.00	  518.47	-1844.97	  394.40
     35.4700	  518.00	  517.18	-1801.68	  394.18
     35.5700	  530.00	  516.09	-1788.59	  393.97
     35.6700	  518.00	  515.16	-1799.66	  393.75
     35.7700	  474.00	  514.35	-1842.85	  393.54
     35.8700	  543.00	  514.14	-1773.64	  393.33
     35.9700	  523.00	  513.52	-1793.02	  393.12
     36.0700	  502.00	  512.97	-1813.47	  392.91
     36.1700	  525.00	  512.47	-1789.97	  392.71
     36.2700	  486.00	  512.02	-1828.52	  392.50
     36.3700	  519.00	  511.61	-1795.11	  392.30
     36.4700	  506.00	  511.24	-1807.74	  392.10
     36.5700	  521.00	  510.91	-1792.41	  391.90
     36.6700	  506.00	  510.62	-1807.12	  391.70
     36.7700	  522.00	  510.37	-1790.87	  391.51
     36.8700	  562.00	  510.17	-1750.67	  391.31
     36.9700	  464.00	  510.07	-1848.57	  391.12
     37.0700	  518.00	  510.15	-1794.65	  390.93
     37.1700	  535.00	  510.62	-1778.12	  390.74
     37.2700	  521.00	  511.78	-1793.28	  390.55
     37.3700	  495.00	  514.02	-1821.52	  390.37
     37.4700	  467.00	  517.52	-1853.02	  390.18
     37.5700	  526.00	  521.91	-1798.41	  390.00
     37.6700	  525.00	  526.05	-1803.55	  389.82
     37.7700	  505.00	  528.42	-1825.92	  389.64
     37.8700	  540.00	  528.12	-1790.62	  389.47
     37.9700	  543.00	  525.90	-1785.40	  389.29
     38.0700	  530.00	  522.71	-1795.21	  389.12
     38.1700	  498.00	  518.93	-1823.43	  388.95
     38.2700	  509.00	  515.04	-1808.54	  388.78
     38.3700	  508.00	  511.73	-1806.23	  388.61
     38.4700	  503.00	  509.31	-1808.81	  388.44
     38.5700	  494.00	  507.73	-1816.23	  388.28
     38.6700	  521.00	  506.77	-1788.27	  388.11
     38.7700	  480.00	  506.19	-1828.69	  387.95
     38.8700	  518.00	  505.80	-1790.30	  387.79
     38.9700	  493.00	  505.41	-1814.91	  387.64
     39.0700	  489.00	  505.17	-1818.67	  387.48
     39.1700	  515.00	  504.96	-1792.46	  387.33
     39.2700	  503.00	  504.77	-1804.27	  387.17
     39.3700	  501.00	  504.50	-1806.00	  387.02
     39.4700	  472.00	  504.34	-1834.84	  386.88
     39.5700	  526.00	  504.19	-1780.69	  386.73
     39.6700	  526.00	  504.17	-1780.67	  386.58
     39.7700	  493.00	  504.04	-1813.54	  386.44
     39.8700	  484.00	  503.93	-1822.43	  386.30
     39.9700	  566.00	  503.82	-1740.32	  386.16
     40.0700	  492.00	  503.72	-1814.22	  386.02
     40.1700	  531.00	  503.63	-1775.13	  385.89
     40.2700	  508.00	  503.55	-1798.05	  385.75
     40.3700	  493.00	  503.49	-1812.99	  385.62
     40.4700	  512.00	  503.43	-1793.93	  385.49
     40.5700	  481.00	  503.39	-1824.89	  385.36
     40.6700	  510.00	  503.37	-1795.87	  385.23
     40.7700	  522.00	  503.36	-1783.86	  385.11
     40.8700	  516.00	  503.37	-1789.87	  384.98
     40.9700	  479.00	  503.41	-1826.91	  384.86
     41.0700	  505.00	  503.48	-1800.98	  384.74
     41.1700	  526.00	  503.58	-1780.08	  384.62
     41.2700	  502.00	  503.70	-1804.20	  384.51
     41.3700	  521.00	  503.90	-1785.40	  384.39
     41.4700	  534.00	  504.18	-1772.68	  384.28
     41.5700	  533.00	  504.99	-1774.49	  384.17
     41.6700	  515.00	  505.52	-1793.02	  384.06
     41.7700	  522.00	  506.30	-1786.80	  383.95
     41.8700	  517.00	  507.57	-1793.07	  383.85
     41.9700	  515.00	  509.88	-1797.38	  383.74
     42.0700	  505.00	  514.37	-1811.87	  383.64
     42.1700	  473.00	  523.06	-1852.56	  383.54
     42.2700	  528.00	  538.32	-1812.82	  383.44
     42.3700	  520.00	  562.13	-1844.63	  383.35
     42.4700	  558.00	  593.59	-1838.09	  383.25
     42.5700	  566.00	  626.86	-1863.36	  383.16
     42.6700	  566.00	  651.12	-1887.62	  383.07
     42.7700	  636.00	  654.39	-1820.89	  382.98
     42.8700	  541.00	  634.09	-1895.59	  382.89
     42.9700	  591.00	  600.74	-1812.24	  382.81
     43.0700	  512.00	  567.37	-1857.87	  382.72
     43.1700	  495.00	  541.36	-1848.86	  382.64
     43.2700	  492.00	  524.41	-1834.91	  382.56
     43.3700	  504.00	  514.83	-1813.33	  382.48
     43.4700	  528.00	  509.90	-1784.40	  382.40
     43.5700	  525.00	  507.41	-1784.91	  382.33
     43.6700	  495.00	  506.23	-1813.73	  382.25
     43.7700	  492.00	  505.38	-1815.88	  382.18
     43.8700	  502.00	  504.79	-1805.29	  382.11
     43.9700	  516.00	  504.35	-1790.85	  382.05
     44.0700	  535.00	  504.01	-1771.51	  381.98
     44.1700	  537.00	  503.79	-1769.29	  381.91
     44.2700	  503.00	  503.60	-1803.10	  381.85
     44.3700	  524.00	  503.46	-1781.96	  381.79
     44.4700	  545.00	  503.24	-1760.74	  381.73
     44.5700	  492.00	  503.18	-1813.68	  381.67
     44.6700	  510.00	  503.15	-1795.65	  381.62
     44.7700	  504.00	  503.15	-1801.65	  381.56
     44.8700	  454.00	  503.18	-1851.68	  381.51
     44.9700	  498.00	  503.22	-1807.72	  381.46
     45.0700	  534.00	  503.29	-1771.79	  381.41
     45.1700	  516.00	  503.57	-1790.07	  381.36
     45.2700	  513.00	  503.68	-1793.18	  381.32
     45.3700	  528.00	  503.82	-1778.32	  381.28
     45.4700	  508.00	  503.98	-1798.48	  381.23
     45.5700	  498.00	  504.16	-1808.66	  381.19
     45.6700	  510.00	  504.37	-1796.87	  381.15
     45.7700	  513.00	  504.60	-1794.10	  381.12
     45.8700	  469.00	  504.87	-1838.37	  381.08
     45.9700	  486.00	  505.16	-1821.66	  381.05
     46.0700	  497.00	  505.48	-1810.98	  381.02
     46.1700	  479.00	  505.84	-1829.34	  380.99
     46.2700	  460.00	  506.24	-1848.74	  380.96
     46.3700	  540.00	  506.69	-1769.19	  380.93
     46.4700	  463.00	  507.20	-1846.70	  380.91
     46.5700	  490.00	  507.77	-1820.27	  380.88
     46.6700	  489.00	  508.41	-1821.91	  380.86
     46.7700	  492.00	  509.16	-1819.66	  380.84
     46.8700	  509.00	  510.05	-1803.55	  380.82
     46.9700	  500.00	  511.16	-1813.66	  380.81
     47.0700	  557.00	  512.71	-1758.21	  380.79
     47.1700	  505.00	  515.11	-1812.61	  380.78
     47.2700	  497.00	  519.09	-1824.59	  380.76
     47.3700	  528.00	  525.80	-1800.30	  380.75
     47.4700	  528.00	  536.30	-1810.80	  380.75
     47.5700	  532.00	  551.17	-1821.67	  380.74
     47.6700	  580.00	  569.40	-1791.90	  380.73
     47.7700	  589.00	  587.72	-1801.22	  380.73
     47.8700	  596.00	  600.68	-1807.18	  380.73
     47.9700	  608.00	  603.21	-1797.71	  380.73
     48.0700	  581.00	  594.69	-1816.19	  380.73
     48.1700	  597.00	  579.97	-1785.47	  380.73
     48.2700	  571.00	  564.94	-1796.44	  380.73
     48.3700	  568.00	  553.36	-1787.86	  380.74
     48.4700	  513.00	  546.59	-1836.09	  380.75
     48.5700	  562.00	  544.30	-1784.80	  380.76
     48.6700	  526.00	  545.47	-1821.97	  380.77
     48.7700	  510.00	  549.16	-1841.66	  380.78
     48.8700	  526.00	  554.82	-1831.32	  380.79
     48.9700	  550.00	  562.48	-1814.98	  380.81
     49.0700	  545.00	  572.76	-1830.26	  380.82
     49.1700	  558.00	  587.18	-1831.68	  380.84
     49.2700	  613.00	  608.97	-1798.47	  380.86
     49.3700	  631.00	  644.26	-1815.76	  380.88
     49.4700	  788.00	  703.44	-1717.94	  380.90
     49.5700	  785.00	  801.94	-1819.44	  380.93
     49.6700	  921.00	  956.93	-1838.43	  380.95
     49.7700	 1067.00	 1183.22	-1918.72	  380.98
     49.8700	 1409.00	 1482.26	-1875.76	  381.01
     49.9700	 1819.00	 1830.98	-1814.48	  381.04
     50.0700	 2134.00	 2171.97	-1840.47	  381.07
     50.1700	 2507.00	 2413.53	-1709.03	  381.10
     50.2700	 2596.00	 2462.37	-1668.87	  381.14
     50.3700	 2241.00	 2294.01	-1855.51	  381.17
     50.4700	 2009.00	 1980.56	-1774.06	  381.21
     50.5700	 1600.00	 1625.76	-1828.26	  381.25
     50.6700	 1132.00	 1304.55	-1975.05	  381.29
     50.7700	  850.00	 1053.34	-2005.84	  381.33
     50.8700	  723.00	  878.87	-1958.37	  381.37
     50.9700	  634.00	  769.42	-1937.92	  381.42
     51.0700	  653.00	  705.20	-1854.70	  381.46
     51.1700	  634.00	  666.72	-1835.22	  381.51
     51.2700	  645.00	  639.80	-1797.30	  381.56
     51.3700	  613.00	  617.46	-1806.96	  381.61
     51.4700	  589.00	  598.03	-1811.53	  381.66
     51.5700	  578.00	  581.85	-1806.35	  381.71
     51.6700	  527.00	  569.31	-1844.81	  381.77
     51.7700	  591.00	  560.25	-1771.75	  381.82
     51.8700	  557.00	  554.04	-1799.54	  381.88
     51.9700	  529.00	  549.87	-1823.37	  381.93
     52.0700	  528.00	  547.07	-1821.57	  381.99
     52.1700	  577.00	  545.26	-1770.76	  382.05
     52.2700	  545.00	  544.33	-1801.83	  382.12
     52.3700	  569.00	  544.55	-1778.05	  382.18
     52.4700	  568.00	  545.80	-1780.30	  382.24
     52.5700	  570.00	  549.06	-1781.56	  382.31
     52.6700	  565.00	  556.04	-1793.54	  382.38
     52.7700	  588.00	  570.09	-1784.59	  382.44
     52.8700	  619.00	  596.75	-1780.25	  382.51
     52.9700	  722.00	  643.52	-1724.02	  382.58
     53.0700	  847.00	  717.81	-1673.31	  382.65
     53.1700	  905.00	  822.81	-1720.31	  382.73
     53.2700	 1018.00	  952.20	-1736.70	  382.80
     53.3700	 1115.00	 1086.22	-1773.72	  382.88
     53.4700	 1176.00	 1191.76	-1818.26	  382.95
     53.5700	 1183.00	 1231.83	-1851.33	  383.03
     53.6700	 1069.00	 1188.77	-1922.27	  383.11
     53.7700	 1034.00	 1080.77	-1849.27	  383.19
     53.8700	  897.00	  945.85	-1851.35	  383.27
     53.9700	  784.00	  817.12	-1835.62	  383.35
     54.0700	  727.00	  713.73	-1789.23	  383.44
     54.1700	  666.00	  641.29	-1777.79	  383.52
     54.2700	  593.00	  596.23	-1805.73	  383.61
     54.3700	  568.00	  570.86	-1805.36	  383.69
     54.4700	  563.00	  557.72	-1797.22	  383.78
     54.5700	  579.00	  551.30	-1774.80	  383.87
     54.6700	  535.00	  548.36	-1815.86	  383.96
     54.7700	  539.00	  547.24	-1810.74	  384.05
     54.8700	  612.00	  547.22	-1737.72	  384.14
     54.9700	  520.00	  548.01	-1830.51	  384.24
     55.0700	  552.00	  549.52	-1800.02	  384.33
     55.1700	  574.00	  551.75	-1780.25	  384.43
     55.2700	  525.00	  554.74	-1832.24	  384.52
     55.3700	  606.00	  558.63	-1755.13	  384.62
     55.4700	  636.00	  563.56	-1730.06	  384.72
     55.5700	  563.00	  569.89	-1809.39	  384.82
     55.6700	  530.00	  578.29	-1850.79	  384.92
     55.7700	  537.00	  590.10	-1855.60	  385.02
     55.8700	  610.00	  608.10	-1800.60	  385.12
     55.9700	  637.00	  637.61	-1803.11	  385.23
     56.0700	  630.00	  687.81	-1860.31	  385.33
     56.1700	  708.00	  772.54	-1867.04	  385.44
     56.2700	  838.00	  909.32	-1873.82	  385.54
     56.3700	 1006.00	 1115.03	-1911.53	  385.65
     56.4700	 1283.00	 1398.06	-1917.56	  385.76
     56.5700	 1714.00	 1748.59	-1837.09	  385.87
     56.6700	 2019.00	 2129.76	-1913.26	  385.98
     56.7700	 2397.00	 2473.91	-1879.41	  386.09
     56.8700	 2633.00	 2690.29	-1859.79	  386.20
     56.9700	 2596.00	 2702.82	-1909.32	  386.31
     57.0700	 2389.00	 2506.11	-1919.61	  386.42
     57.1700	 2181.00	 2171.70	-1793.20	  386.54
     57.2700	 1808.00	 1792.43	-1786.93	  386.65
     57.3700	 1429.00	 1439.61	-1813.11	  386.77
     57.4700	 1074.00	 1152.87	-1881.37	  386.88
     57.5700	  892.00	  944.47	-1854.97	  387.00
     57.6700	  821.00	  807.70	-1789.20	  387.12
     57.7700	  721.00	  726.70	-1808.20	  387.24
     57.8700	  711.00	  684.96	-1776.46	  387.36
     57.9700	  629.00	  669.98	-1843.48	  387.48
     58.0700	  666.00	  674.60	-1811.10	  387.60
     58.1700	  723.00	  696.02	-1775.52	  387.72
     58.2700	  738.00	  733.96	-1798.46	  387.84
     58.3700	  756.00	  788.79	-1835.29	  387.97
     58.4700	  932.00	  859.74	-1730.24	  388.09
     58.5700	 1105.00	  943.25	-1640.75	  388.22
     58.6700	 1246.00	 1031.95	-1588.45	  388.34
     58.7700	 1365.00	 1116.08	-1553.58	  388.47
     58.8700	 1534.00	 1187.74	-1456.24	  388.59
     58.9700	 1595.00	 1242.41	-1449.91	  388.72
     59.0700	 1669.00	 1275.11	-1408.61	  388.85
     59.1700	 1639.00	 1280.25	-1443.75	  388.98
     59.2700	 1496.00	 1259.07	-1565.57	  389.11
     59.3700	 1419.00	 1223.08	-1606.58	  389.24
     59.4700	 1302.00	 1186.57	-1687.07	  389.37
     59.5700	 1240.00	 1159.71	-1722.21	  389.50
     59.6700	 1145.00	 1149.50	-1807.00	  389.63
     59.7700	 1131.00	 1163.48	-1834.98	  389.76
     59.8700	 1181.00	 1207.91	-1829.41	  389.89
     59.9700	 1335.00	 1281.70	-1749.20	  390.03
     60.0700	 1441.00	 1372.26	-1733.76	  390.16
     60.1700	 1521.00	 1454.77	-1736.27	  390.29
     60.2700	 1574.00	 1497.07	-1725.57	  390.43
     60.3700	 1538.00	 1473.94	-1738.44	  390.56
     60.4700	 1461.00	 1384.56	-1726.06	  390.70
     60.5700	 1282.00	 1251.68	-1772.18	  390.84
     60.6700	 1116.00	 1104.54	-1791.04	  390.97
     60.7700	  920.00	  966.12	-1848.62	  391.11
     60.8700	  830.00	  850.44	-1822.94	  391.25
     60.9700	  747.00	  763.42	-1818.92	  391.39
     61.0700	  679.00	  705.15	-1828.65	  391.52
     61.1700	  658.00	  672.84	-1817.34	  391.66
     61.2700	  616.00	  663.55	-1850.05	  391.80
     61.3700	  618.00	  676.26	-1860.76	  391.94
     61.4700	  662.00	  712.38	-1852.88	  392.08
     61.5700	  700.00	  774.91	-1877.41	  392.22
     61.6700	  838.00	  866.33	-1830.83	  392.36
     61.7700	  902.00	  985.72	-1886.22	  392.50
     61.8700	 1068.00	 1125.96	-1860.46	  392.64
     61.9700	 1211.00	 1271.75	-1863.25	  392.79
     62.0700	 1296.00	 1398.86	-1905.36	  392.93
     62.1700	 1369.00	 1477.34	-1910.84	  393.07
     62.2700	 1381.00	 1483.01	-1904.51	  393.21
     62.3700	 1293.00	 1413.34	-1922.84	  393.36
     62.4700	 1227.00	 1289.63	-1865.13	  393.50
     62.5700	 1077.00	 1142.02	-1867.52	  393.64
     62.6700	  950.00	  996.09	-1848.59	  393.79
     62.7700	  810.00	  868.48	-1860.98	  393.93
     62.8700	  675.00	  767.20	-1894.70	  394.07
     62.9700	  634.00	  693.25	-1861.75	  394.22
     63.0700	  576.00	  643.11	-1869.61	  394.36
     63.1700	  562.00	  611.24	-1851.74	  394.51
     63.2700	  612.00	  592.11	-1782.61	  394.65
     63.3700	  568.00	  581.35	-1815.85	  394.80
     63.4700	  538.00	  576.18	-1840.68	  394.94
     63.5700	  581.00	  575.32	-1796.82	  395.09
     63.6700	  601.00	  578.83	-1780.33	  395.23
     63.7700	  581.00	  587.83	-1809.33	  395.38
     63.8700	  611.00	  604.26	-1795.76	  395.52
     63.9700	  683.00	  630.38	-1749.88	  395.67
     64.0700	  673.00	  668.03	-1797.53	  395.81
     64.1700	  801.00	  717.68	-1719.18	  395.96
     64.2700	  838.00	  777.40	-1741.90	  396.11
     64.3700	  947.00	  842.08	-1697.58	  396.25
     64.4700	  956.00	  903.27	-1749.77	  396.40
     64.5700	 1023.00	  949.84	-1729.34	  396.54
     64.6700	 1009.00	  971.76	-1765.26	  396.69
     64.7700	  968.00	  964.24	-1798.74	  396.84
     64.8700	  989.00	  931.54	-1745.04	  396.98
     64.9700	  953.00	  881.55	-1731.05	  397.13
     65.0700	  837.00	  824.31	-1789.81	  397.27
     65.1700	  822.00	  768.51	-1749.01	  397.42
     65.2700	  760.00	  719.67	-1762.17	  397.57
     65.3700	  717.00	  679.85	-1765.35	  397.71
     65.4700	  685.00	  648.57	-1766.07	  397.86
     65.5700	  589.00	  624.32	-1837.82	  398.00
     65.6700	  590.00	  605.67	-1818.17	  398.15
     65.7700	  620.00	  591.51	-1774.01	  398.29
     65.8700	  574.00	  581.06	-1809.56	  398.44
     65.9700	  574.00	  573.70	-1802.20	  398.58
     66.0700	  567.00	  568.96	-1804.46	  398.73
     66.1700	  584.00	  566.43	-1784.93	  398.87
     66.2700	  579.00	  565.72	-1789.22	  399.02
     66.3700	  554.00	  566.51	-1815.01	  399.16
     66.4700	  524.00	  568.62	-1847.12	  399.31
     66.5700	  548.00	  572.04	-1826.54	  399.45
     66.6700	  553.00	  577.12	-1826.62	  399.59
     66.7700	  548.00	  584.36	-1838.86	  399.74
     66.8700	  599.00	  595.27	-1798.77	  399.88
     66.9700	  612.00	  612.36	-1802.86	  400.03
     67.0700	  619.00	  639.76	-1823.26	  400.17
     67.1700	  644.00	  683.56	-1842.06	  400.31
     67.2700	  740.00	  751.83	-1814.33	  400.45
     67.3700	  839.00	  853.67	-1817.17	  400.60
     67.4700	  973.00	  997.87	-1827.37	  400.74
     67.5700	 1211.00	 1188.85	-1780.35	  400.88
     67.6700	 1419.00	 1424.21	-1807.71	  401.02
     67.7700	 1695.00	 1691.02	-1798.52	  401.16
     67.8700	 2032.00	 1964.12	-1734.62	  401.30
     67.9700	 2195.00	 2206.06	-1813.56	  401.44
     68.0700	 2400.00	 2371.52	-1774.02	  401.58
     68.1700	 2451.00	 2420.56	-1772.06	  401.72
     68.2700	 2272.00	 2339.59	-1870.09	  401.86
     68.3700	 2177.00	 2150.57	-1776.07	  402.00
     68.4700	 1990.00	 1896.84	-1709.34	  402.14
     68.5700	 1640.00	 1622.62	-1785.12	  402.27
     68.6700	 1420.00	 1362.32	-1744.82	  402.41
     68.7700	 1114.00	 1138.03	-1826.53	  402.55
     68.8700	  884.00	  959.56	-1878.06	  402.68
     68.9700	  832.00	  827.41	-1797.91	  402.82
     69.0700	  721.00	  735.45	-1816.95	  402.96
     69.1700	  688.00	  674.80	-1789.30	  403.09
     69.2700	  652.00	  636.40	-1786.90	  403.23
     69.3700	  566.00	  612.65	-1849.15	  403.36
     69.4700	  643.00	  597.97	-1757.47	  403.49
     69.5700	  590.00	  588.68	-1801.18	  403.63
     69.6700	  638.00	  582.58	-1747.08	  403.76
     69.7700	  578.00	  578.42	-1802.92	  403.89
     69.8700	  557.00	  575.53	-1821.03	  404.02
     69.9700	  569.00	  573.59	-1807.09	  404.15
     70.0700	  589.00	  572.41	-1785.91	  404.28
     70.1700	  537.00	  571.94	-1837.44	  404.41
     70.2700	  562.00	  572.17	-1812.67	  404.54
     70.3700	  584.00	  573.16	-1791.66	  404.67
     70.4700	  608.00	  575.08	-1769.58	  404.80
     70.5700	  578.00	  578.33	-1802.83	  404.92
     70.6700	  599.00	  583.60	-1787.10	  405.05
     70.7700	  584.00	  592.15	-1810.65	  405.18
     70.8700	  566.00	  606.04	-1842.54	  405.30
     70.9700	  624.00	  628.43	-1806.93	  405.43
     71.0700	  605.00	  663.76	-1861.26	  405.55
     71.1700	  733.00	  717.54	-1787.04	  405.67
     71.2700	  783.00	  796.63	-1816.13	  405.79
     71.3700	  858.00	  904.52	-1849.02	  405.92
     71.4700	 1007.00	 1044.59	-1840.09	  406.04
     71.5700	 1179.00	 1214.79	-1838.29	  406.16
     71.6700	 1342.00	 1406.65	-1867.15	  406.28
     71.7700	 1573.00	 1604.28	-1833.78	  406.40
     71.8700	 1751.00	 1784.67	-1836.17	  406.51
     71.9700	 1889.00	 1919.52	-1833.02	  406.63
     72.0700	 1943.00	 1981.80	-1841.30	  406.75
     72.1700	 1976.00	 1956.93	-1783.43	  406.86
     72.2700	 1837.00	 1851.25	-1816.75	  406.98
     72.3700	 1743.00	 1687.69	-1747.19	  407.09
     72.4700	 1590.00	 1495.95	-1708.45	  407.20
     72.5700	 1439.00	 1301.09	-1664.59	  407.32
     72.6700	 1266.00	 1121.85	-1658.35	  407.43
     72.7700	 1152.00	  969.43	-1619.93	  407.54
     72.8700	  986.00	  848.11	-1664.61	  407.65
     72.9700	  940.00	  756.98	-1619.48	  407.76
     73.0700	  812.00	  691.79	-1682.29	  407.86
     73.1700	  851.00	  646.97	-1598.47	  407.97
     73.2700	  700.00	  616.98	-1719.48	  408.08
     73.3700	  654.00	  597.16	-1745.66	  408.18
     73.4700	  664.00	  584.05	-1722.55	  408.29
     73.5700	  609.00	  575.25	-1768.75	  408.39
     73.6700	  632.00	  569.28	-1739.78	  408.49
     73.7700	  592.00	  565.24	-1775.74	  408.59
     73.8700	  585.00	  562.62	-1780.12	  408.69
     73.9700	  619.00	  561.12	-1744.62	  408.79
     74.0700	  556.00	  560.52	-1807.02	  408.89
     74.1700	  637.00	  560.64	-1726.14	  408.99
     74.2700	  647.00	  561.28	-1716.78	  409.08
     74.3700	  638.00	  562.20	-1726.70	  409.18
     74.4700	  654.00	  563.08	-1711.58	  409.27
     74.5700	  647.00	  563.60	-1719.10	  409.37
     74.6700	  667.00	  563.47	-1698.97	  409.46
     74.7700	  647.00	  562.54	-1718.04	  409.55
     74.8700	  595.00	  560.88	-1768.38	  409.64
     74.9700	  591.00	  558.77	-1770.27	  409.73
     75.0700	  650.00	  556.55	-1709.05	  409.82
     75.1700	  607.00	  554.55	-1750.05	  409.90
     75.2700	  567.00	  553.21	-1788.71	  409.99
     75.3700	  577.00	  552.88	-1778.38	  410.08
     75.4700	  563.00	  553.90	-1793.40	  410.16
     75.5700	  551.00	  556.83	-1808.33	  410.24
     75.6700	  592.00	  562.12	-1772.62	  410.32
     75.7700	  568.00	  570.15	-1804.65	  410.40
     75.8700	  591.00	  581.48	-1792.98	  410.48
     75.9700	  566.00	  596.13	-1832.63	  410.56
     76.0700	  606.00	  613.80	-1810.30	  410.64
     76.1700	  680.00	  633.67	-1756.17	  410.71
     76.2700	  713.00	  654.28	-1743.78	  410.79
     76.3700	  636.00	  673.57	-1840.07	  410.86
     76.4700	  692.00	  689.05	-1799.55	  410.93
     76.5700	  686.00	  698.15	-1814.65	  411.00
     76.6700	  733.00	  699.08	-1768.58	  411.07
     76.7700	  634.00	  691.61	-1860.11	  411.14
     76.8700	  643.00	  677.22	-1836.72	  411.21
     76.9700	  604.00	  658.35	-1856.85	  411.27
     77.0700	  616.00	  637.39	-1823.89	  411.34
     77.1700	  566.00	  616.88	-1853.38	  411.40
     77.2700	  594.00	  598.20	-1806.70	  411.46
     77.3700	  540.00	  582.31	-1844.81	  411.52
     77.4700	  492.00	  569.59	-1880.09	  411.58
     77.5700	  522.00	  559.94	-1840.44	  411.64
     77.6700	  518.00	  552.98	-1837.48	  411.70
     77.7700	  561.00	  548.17	-1789.67	  411.76
     77.8700	  552.00	  544.97	-1795.47	  411.81
     77.9700	  549.00	  542.91	-1796.41	  411.86
     78.0700	  541.00	  541.59	-1803.09	  411.91
     78.1700	  491.00	  540.77	-1852.27	  411.97
     78.2700	  498.00	  540.25	-1844.75	  412.01
     78.3700	  524.00	  539.92	-1818.42	  412.06
     78.4700	  531.00	  539.73	-1811.23	  412.11
     78.5700	  531.00	  539.64	-1811.14	  412.15
     78.6700	  542.00	  539.64	-1800.14	  412.20
     78.7700	  512.00	  539.73	-1830.23	  412.24
     78.8700	  554.00	  539.93	-1788.43	  412.28
     78.9700	  514.00	  540.25	-1828.75	  412.32
     79.0700	  532.00	  540.74	-1811.24	  412.36
     79.1700	  534.00	  541.44	-1809.94	  412.39
     79.2700	  524.00	  542.41	-1820.91	  412.43
     79.3700	  539.00	  543.52	-1807.02	  412.46
     79.4700	  543.00	  545.21	-1804.71	  412.50
     79.5700	  528.00	  547.38	-1821.88	  412.53
     79.6700	  535.00	  550.12	-1817.62	  412.56
     79.7700	  524.00	  553.55	-1832.05	  412.59
     79.8700	  532.00	  557.81	-1828.31	  412.61
     79.9700	  541.00	  563.07	-1824.57	  412.64
     80.0700	  567.00	  569.54	-1805.04	  412.66
     80.1700	  557.00	  577.47	-1822.97	  412.68
     80.2700	  551.00	  587.10	-1838.60	  412.70
     80.3700	  579.00	  598.69	-1822.19	  412.72
     80.4700	  570.00	  612.32	-1844.82	  412.74
     80.5700	  627.00	  627.85	-1803.35	  412.76
     80.6700	  647.00	  644.86	-1800.36	  412.77
     80.7700	  652.00	  662.52	-1813.02	  412.79
     80.8700	  657.00	  679.69	-1825.19	  412.80
     80.9700	  707.00	  694.99	-1790.49	  412.81
     81.0700	  666.00	  707.14	-1843.64	  412.82
     81.1700	  681.00	  715.17	-1836.67	  412.83
     81.2700	  683.00	  718.55	-1838.05	  412.83
     81.3700	  770.00	  717.17	-1749.67	  412.84
     81.4700	  759.00	  711.28	-1754.78	  412.84
     81.5700	  724.00	  701.50	-1780.00	  412.84
     81.6700	  845.00	  688.68	-1646.18	  412.84
     81.7700	  718.00	  673.70	-1758.20	  412.84
     81.8700	  678.00	  657.46	-1781.96	  412.84
     81.9700	  736.00	  640.82	-1707.32	  412.83
     82.0700	  692.00	  624.75	-1735.25	  412.82
     82.1700	  679.00	  609.87	-1733.36	  412.82
     82.2700	  622.00	  596.62	-1777.12	  412.81
     82.3700	  637.00	  585.23	-1750.73	  412.79
     82.4700	  628.00	  575.75	-1750.25	  412.78
     82.5700	  608.00	  568.16	-1762.66	  412.77
     82.6700	  577.00	  562.33	-1787.83	  412.75
     82.7700	  555.00	  558.18	-1805.68	  412.73
     82.8700	  517.00	  555.59	-1841.09	  412.71
     82.9700	  515.00	  554.43	-1841.93	  412.69
     83.0700	  552.00	  554.64	-1805.14	  412.67
     83.1700	  547.00	  556.12	-1811.62	  412.65
     83.2700	  537.00	  558.80	-1824.30	  412.62
     83.3700	  530.00	  562.53	-1835.03	  412.59
     83.4700	  509.00	  567.14	-1860.64	  412.57
     83.5700	  571.00	  572.32	-1803.82	  412.54
     83.6700	  523.00	  577.71	-1857.21	  412.50
     83.7700	  568.00	  582.82	-1817.32	  412.47
     83.8700	  559.00	  587.11	-1830.61	  412.43
     83.9700	  598.00	  590.00	-1794.50	  412.40
     84.0700	  560.00	  591.02	-1833.52	  412.36
     84.1700	  520.00	  589.97	-1872.47	  412.32
     84.2700	  573.00	  587.00	-1816.50	  412.28
     84.3700	  557.00	  582.50	-1828.00	  412.23
     84.4700	  557.00	  577.03	-1822.53	  412.19
     84.5700	  498.00	  571.12	-1875.62	  412.14
     84.6700	  555.00	  565.23	-1812.73	  412.09
     84.7700	  537.00	  559.73	-1825.23	  412.04
     84.8700	  548.00	  554.85	-1809.35	  411.99
     84.9700	  538.00	  550.72	-1815.22	  411.93
     85.0700	  509.00	  547.41	-1840.91	  411.88
     85.1700	  515.00	  544.88	-1832.38	  411.82
     85.2700	  574.00	  543.06	-1771.56	  411.76
     85.3700	  543.00	  541.85	-1801.35	  411.70
     85.4700	  544.00	  541.18	-1799.68	  411.64
     85.5700	  487.00	  540.93	-1856.43	  411.58
     85.6700	  524.00	  541.06	-1819.56	  411.51
     85.7700	  506.00	  541.52	-1838.02	  411.44
     85.8700	  518.00	  542.29	-1826.79	  411.38
     85.9700	  493.00	  543.39	-1852.89	  411.31
     86.0700	  557.00	  544.84	-1790.34	  411.23
     86.1700	  520.00	  546.71	-1829.21	  411.16
     86.2700	  491.00	  549.09	-1860.59	  411.08
     86.3700	  543.00	  552.07	-1811.57	  411.01
     86.4700	  547.00	  555.78	-1811.28	  410.93
     86.5700	  571.00	  560.33	-1791.83	  410.85
     86.6700	  592.00	  565.80	-1776.30	  410.76
     86.7700	  604.00	  571.87	-1770.37	  410.68
     86.8700	  603.00	  579.07	-1778.57	  410.59
     86.9700	  642.00	  586.83	-1747.33	  410.51
     87.0700	  606.00	  594.74	-1791.24	  410.42
     87.1700	  618.00	  602.28	-1786.78	  410.33
     87.2700	  657.00	  608.79	-1754.29	  410.23
     87.3700	  697.00	  613.60	-1719.10	  410.14
     87.4700	  658.00	  616.10	-1760.60	  410.04
     87.5700	  616.00	  615.93	-1802.43	  409.95
     87.6700	  668.00	  613.13	-1747.63	  409.85
     87.7700	  628.00	  608.11	-1782.61	  409.75
     87.8700	  613.00	  601.58	-1791.08	  409.64
     87.9700	  613.00	  594.33	-1783.83	  409.54
     88.0700	  648.00	  587.12	-1741.62	  409.43
     88.1700	  574.00	  580.66	-1809.16	  409.32
     88.2700	  566.00	  575.49	-1811.99	  409.21
     88.3700	  562.00	  572.02	-1812.52	  409.10
     88.4700	  542.00	  570.49	-1830.99	  408.99
     88.5700	  575.00	  570.99	-1798.49	  408.87
     88.6700	  554.00	  573.43	-1821.93	  408.76
     88.7700	  590.00	  577.58	-1790.08	  408.64
     88.8700	  579.00	  583.08	-1806.58	  408.52
     88.9700	  583.00	  589.45	-1808.95	  408.40
     89.0700	  639.00	  596.11	-1759.61	  408.28
     89.1700	  562.00	  602.39	-1842.89	  408.15
     89.2700	  655.00	  607.62	-1755.12	  408.02
     89.3700	  607.00	  611.12	-1806.62	  407.90
     89.4700	  573.00	  612.39	-1841.89	  407.77
     89.5700	  616.00	  611.20	-1797.70	  407.63
     89.6700	  586.00	  607.69	-1824.19	  407.50
     89.7700	  564.00	  602.26	-1840.76	  407.37
     89.8700	  563.00	  595.49	-1834.99	  407.23
     89.9700	  597.00	  587.98	-1793.48	  407.09
     90.0700	  553.00	  580.28	-1829.78	  406.95
     90.1700	  549.00	  572.83	-1826.33	  406.81
     90.2700	  546.00	  565.99	-1822.49	  406.66
     90.3700	  528.00	  559.97	-1834.47	  406.52
     90.4700	  527.00	  554.88	-1830.38	  406.37
     90.5700	  505.00	  550.77	-1848.27	  406.22
     90.6700	  514.00	  547.57	-1836.07	  406.07
     90.7700	  512.00	  545.20	-1835.70	  405.92
     90.8700	  521.00	  543.54	-1825.04	  405.77
     90.9700	  471.00	  542.49	-1873.99	  405.61
     91.0700	  522.00	  541.95	-1822.45	  405.46
     91.1700	  544.00	  541.85	-1800.35	  405.30
     91.2700	  570.00	  542.16	-1774.66	  405.14
     91.3700	  499.00	  542.89	-1846.39	  404.98
     91.4700	  532.00	  544.09	-1814.59	  404.81
     91.5700	  558.00	  545.85	-1790.35	  404.65
     91.6700	  523.00	  548.32	-1827.82	  404.48
     91.7700	  512.00	  551.64	-1842.14	  404.31
     91.8700	  515.00	  555.80	-1843.30	  404.14
     91.9700	  552.00	  561.42	-1811.92	  403.97
     92.0700	  567.00	  568.47	-1803.97	  403.80
     92.1700	  540.00	  577.09	-1839.59	  403.63
     92.2700	  578.00	  587.34	-1811.84	  403.45
     92.3700	  591.00	  599.24	-1810.74	  403.27
     92.4700	  619.00	  612.63	-1796.13	  403.09
     92.5700	  638.00	  627.28	-1791.78	  402.91
     92.6700	  685.00	  642.81	-1760.31	  402.73
     92.7700	  671.00	  658.71	-1790.21	  402.55
     92.8700	  734.00	  674.38	-1742.88	  402.36
     92.9700	  704.00	  689.16	-1787.66	  402.17
     93.0700	  789.00	  702.45	-1715.95	  401.98
     93.1700	  756.00	  713.86	-1760.36	  401.79
     93.2700	  792.00	  723.35	-1733.85	  401.60
     93.3700	  738.00	  731.26	-1795.76	  401.41
     93.4700	  867.00	  738.21	-1673.71	  401.21
     93.5700	  895.00	  744.93	-1652.43	  401.02
     93.6700	  821.00	  752.12	-1733.62	  400.82
     93.7700	  872.00	  760.42	-1690.92	  400.62
     93.8700	  853.00	  770.31	-1719.81	  400.42
     93.9700	  843.00	  782.22	-1741.72	  400.22
     94.0700	  847.00	  796.43	-1751.93	  400.01
     94.1700	  850.00	  813.06	-1765.56	  399.81
     94.2700	  810.00	  831.90	-1824.40	  399.60
     94.3700	  823.00	  852.33	-1831.83	  399.39
     94.4700	  838.00	  873.30	-1837.80	  399.18
     94.5700	  936.00	  893.32	-1759.82	  398.97
     94.6700	  945.00	  910.59	-1768.09	  398.76
     94.7700	  902.00	  923.11	-1823.61	  398.55
     94.8700	  944.00	  929.06	-1787.56	  398.33
     94.9700	  960.00	  927.15	-1769.65	  398.11
     95.0700	  913.00	  917.05	-1806.55	  397.90
     95.1700	  920.00	  899.45	-1781.95	  397.68
     95.2700	  903.00	  875.84	-1775.34	  397.46
     95.3700	  785.00	  848.23	-1865.73	  397.23
     95.4700	  815.00	  818.74	-1806.24	  397.01
     95.5700	  816.00	  789.43	-1775.93	  396.78
     95.6700	  724.00	  762.20	-1840.70	  396.56
     95.7700	  708.00	  738.76	-1833.26	  396.33
     95.8700	  680.00	  720.63	-1843.14	  396.10
     95.9700	  676.00	  709.17	-1835.67	  395.87
     96.0700	  642.00	  705.53	-1866.03	  395.64
     96.1700	  674.00	  710.71	-1839.21	  395.41
     96.2700	  720.00	  725.50	-1808.00	  395.17
     96.3700	  751.00	  750.50	-1802.00	  394.94
     96.4700	  713.00	  785.98	-1875.48	  394.70
     96.5700	  791.00	  831.87	-1843.37	  394.46
     96.6700	  876.00	  887.60	-1814.10	  394.22
     96.7700	  954.00	  952.00	-1800.50	  393.98
     96.8700	 1016.00	 1023.30	-1809.80	  393.74
     96.9700	 1017.00	 1098.97	-1884.47	  393.50
     97.0700	 1184.00	 1175.85	-1794.35	  393.25
     97.1700	 1204.00	 1250.08	-1848.58	  393.01
     97.2700	 1346.00	 1317.34	-1773.84	  392.76
     97.3700	 1367.00	 1373.10	-1808.60	  392.51
     97.4700	 1383.00	 1413.07	-1832.57	  392.26
     97.5700	 1415.00	 1433.96	-1821.46	  392.01
     97.6700	 1414.00	 1434.13	-1822.63	  391.76
     97.7700	 1369.00	 1413.96	-1847.46	  391.51
     97.8700	 1443.00	 1375.72	-1735.22	  391.25
     97.9700	 1345.00	 1323.07	-1780.57	  391.00
     98.0700	 1257.00	 1260.20	-1805.70	  390.74
     98.1700	 1154.00	 1191.50	-1840.00	  390.49
     98.2700	 1106.00	 1121.11	-1817.61	  390.23
     98.3700	 1008.00	 1052.73	-1847.23	  389.97
     98.4700	  943.00	  989.54	-1849.04	  389.71
     98.5700	  920.00	  934.13	-1816.63	  389.45
     98.6700	  883.00	  888.57	-1808.07	  389.19
     98.7700	  851.00	  854.42	-1805.92	  388.92
     98.8700	  841.00	  832.80	-1794.30	  388.66
     98.9700	  767.00	  824.52	-1860.02	  388.39
     99.0700	  797.00	  830.10	-1835.60	  388.13
     99.1700	  847.00	  849.86	-1805.36	  387.86
     99.2700	  833.00	  883.88	-1853.38	  387.59
     99.3700	  890.00	  932.09	-1844.59	  387.33
     99.4700	  970.00	  994.10	-1826.60	  387.06
     99.5700	 1025.00	 1069.24	-1846.74	  386.78
     99.6700	 1119.00	 1156.40	-1839.90	  386.51
     99.7700	 1267.00	 1253.93	-1789.43	  386.24
     99.8700	 1316.00	 1359.58	-1846.08	  385.97
     99.9700	 1483.00	 1470.37	-1789.87	  385.69
    100.0700	 1640.00	 1582.67	-1745.17	  385.42
    100.1700	 1689.00	 1692.23	-1805.73	  385.14
    100.2700	 1820.00	 1794.50	-1777.00	  384.87
    100.3700	 1856.00	 1885.13	-1831.63	  384.59
    100.4700	 2091.00	 1960.43	-1671.93	  384.31
    100.5700	 2065.00	 2017.67	-1755.17	  384.03
    100.6700	 2040.00	 2055.03	-1817.53	  383.75
    100.7700	 2070.00	 2071.39	-1803.89	  383.47
    100.8700	 2115.00	 2066.14	-1753.64	  383.19
    100.9700	 2064.00	 2039.29	-1777.79	  382.91
    101.0700	 2064.00	 1991.84	-1730.34	  382.63
    101.1700	 2038.00	 1926.09	-1690.59	  382.35
    101.2700	 1884.00	 1845.71	-1764.21	  382.06
    101.3700	 1706.00	 1755.39	-1851.89	  381.78
    101.4700	 1633.00	 1660.27	-1829.77	  381.50
    101.5700	 1604.00	 1565.27	-1763.77	  381.21
    101.6700	 1487.00	 1474.66	-1790.16	  380.92
    101.7700	 1458.00	 1391.82	-1736.32	  380.64
    101.8700	 1362.00	 1319.08	-1759.58	  380.35
    101.9700	 1262.00	 1257.67	-1798.17	  380.06
    102.0700	 1207.00	 1207.75	-1803.25	  379.78
    102.1700	 1139.00	 1168.53	-1832.03	  379.49
    102.2700	 1132.00	 1138.36	-1808.86	  379.20
    102.3700	 1053.00	 1115.00	-1864.50	  378.91
    102.4700	 1107.00	 1095.76	-1791.26	  378.62
    102.5700	 1112.00	 1077.89	-1768.39	  378.33
    102.6700	 1044.00	 1058.87	-1817.37	  378.04
    102.7700	 1116.00	 1036.82	-1723.32	  377.75
    102.8700	  887.00	 1010.63	-1926.13	  377.46
    102.9700	  959.00	  980.07	-1823.57	  377.17
    103.0700	  926.00	  945.62	-1822.12	  376.88
    103.1700	  917.00	  908.19	-1793.69	  376.59
    103.2700	  840.00	  868.99	-1831.49	  376.29
    103.3700	  880.00	  829.25	-1751.75	  376.00
    103.4700	  754.00	  790.17	-1838.67	  375.71
    103.5700	  768.00	  752.79	-1787.29	  375.42
    103.6700	  704.00	  717.97	-1816.47	  375.13
    103.7700	  681.00	  686.36	-1807.86	  374.83
    103.8700	  656.00	  658.37	-1804.87	  374.54
    103.9700	  654.00	  634.21	-1782.71	  374.25
    104.0700	  607.00	  613.85	-1809.35	  373.95
    104.1700	  569.00	  597.16	-1830.66	  373.66
    104.2700	  592.00	  583.86	-1794.36	  373.37
    104.3700	  591.00	  573.60	-1785.10	  373.07
    104.4700	  527.00	  566.00	-1841.50	  372.78
    104.5700	  570.00	  560.66	-1793.16	  372.49
    104.6700	  549.00	  557.21	-1810.71	  372.20
    104.7700	  550.00	  555.31	-1807.81	  371.90
    104.8700	  550.00	  554.64	-1807.14	  371.61
    104.9700	  518.00	  554.95	-1839.45	  371.32
    105.0700	  515.00	  556.01	-1843.51	  371.02
    105.1700	  564.00	  557.63	-1796.13	  370.73
    105.2700	  505.00	  559.71	-1857.21	  370.44
    105.3700	  581.00	  562.13	-1783.63	  370.15
    105.4700	  542.00	  564.84	-1825.34	  369.86
    105.5700	  503.00	  567.81	-1867.31	  369.56
    105.6700	  529.00	  571.11	-1844.61	  369.27
    105.7700	  561.00	  574.80	-1816.30	  368.98
    105.8700	  569.00	  579.01	-1812.51	  368.69
    105.9700	  619.00	  583.87	-1767.37	  368.40
    106.0700	  577.00	  589.48	-1814.98	  368.11
    106.1700	  558.00	  595.95	-1840.45	  367.82
    106.2700	  601.00	  603.31	-1804.81	  367.53
    106.3700	  571.00	  611.54	-1843.04	  367.25
    106.4700	  570.00	  620.53	-1853.03	  366.96
    106.5700	  590.00	  630.11	-1842.61	  366.67
    106.6700	  599.00	  640.03	-1843.53	  366.38
    106.7700	  625.00	  649.97	-1827.47	  366.10
    106.8700	  630.00	  659.55	-1832.05	  365.81
    106.9700	  656.00	  668.36	-1814.86	  365.53
    107.0700	  700.00	  675.99	-1778.49	  365.24
    107.1700	  681.00	  682.07	-1803.57	  364.96
    107.2700	  690.00	  686.33	-1798.83	  364.68
    107.3700	  691.00	  688.65	-1800.15	  364.39
    107.4700	  684.00	  689.09	-1807.59	  364.11
    107.5700	  687.00	  687.91	-1803.41	  363.83
    107.6700	  641.00	  685.49	-1846.99	  363.55
    107.7700	  660.00	  682.27	-1824.77	  363.27
    107.8700	  690.00	  678.72	-1791.22	  362.99
    107.9700	  635.00	  675.26	-1842.76	  362.72
    108.0700	  676.00	  672.25	-1798.75	  362.44
    108.1700	  651.00	  669.91	-1821.41	  362.17
    108.2700	  632.00	  668.38	-1838.88	  361.89
    108.3700	  704.00	  667.67	-1766.17	  361.62
    108.4700	  644.00	  667.66	-1826.16	  361.35
    108.5700	  716.00	  668.13	-1754.63	  361.07
    108.6700	  696.00	  668.79	-1775.29	  360.80
    108.7700	  726.00	  669.26	-1745.76	  360.54
    108.8700	  671.00	  669.15	-1800.65	  360.27
    108.9700	  684.00	  668.08	-1786.58	  360.00
    109.0700	  662.00	  665.75	-1806.25	  359.74
    109.1700	  638.00	  661.97	-1826.47	  359.47
    109.2700	  652.00	  656.69	-1807.19	  359.21
    109.3700	  687.00	  650.00	-1765.50	  358.95
    109.4700	  633.00	  642.09	-1811.59	  358.69
    109.5700	  677.00	  633.24	-1758.74	  358.43
    109.6700	  659.00	  623.75	-1767.25	  358.17
    109.7700	  579.00	  613.94	-1837.44	  357.91
    109.8700	  648.00	  604.12	-1758.62	  357.66
    109.9700	  619.00	  594.57	-1778.07	  357.41
    110.0700	  621.00	  585.53	-1767.03	  357.16
    110.1700	  597.00	  577.17	-1782.67	  356.91
    110.2700	  581.00	  569.66	-1791.16	  356.66
    110.3700	  578.00	  563.08	-1787.58	  356.41
    110.4700	  558.00	  557.47	-1801.97	  356.17
    110.5700	  570.00	  552.85	-1785.35	  355.92
    110.6700	  521.00	  549.18	-1830.68	  355.68
    110.7700	  550.00	  546.40	-1798.90	  355.44
    110.8700	  548.00	  544.44	-1798.94	  355.20
    110.9700	  560.00	  543.21	-1785.71	  354.97
    111.0700	  551.00	  542.63	-1794.13	  354.73
    111.1700	  522.00	  542.61	-1823.11	  354.50
    111.2700	  536.00	  543.07	-1809.57	  354.27
    111.3700	  533.00	  543.95	-1813.45	  354.04
    111.4700	  499.00	  545.18	-1848.68	  353.82
    111.5700	  539.00	  546.71	-1810.21	  353.59
    111.6700	  590.00	  548.52	-1761.02	  353.37
    111.7700	  533.00	  550.56	-1820.06	  353.15
    111.8700	  510.00	  552.82	-1845.32	  352.93
    111.9700	  522.00	  555.30	-1835.80	  352.72
    112.0700	  506.00	  558.00	-1854.50	  352.50
    112.1700	  549.00	  560.91	-1814.41	  352.29
    112.2700	  545.00	  564.07	-1821.57	  352.08
    112.3700	  613.00	  567.50	-1757.00	  351.88
    112.4700	  586.00	  571.23	-1787.73	  351.67
    112.5700	  595.00	  575.31	-1782.81	  351.47
    112.6700	  605.00	  579.80	-1777.30	  351.27
    112.7700	  612.00	  584.79	-1775.29	  351.08
    112.8700	  626.00	  590.37	-1766.87	  350.88
    112.9700	  671.00	  596.67	-1728.17	  350.69
    113.0700	  744.00	  603.89	-1662.39	  350.50
    113.1700	  709.00	  612.23	-1705.73	  350.31
    113.2700	  719.00	  621.99	-1705.49	  350.13
    113.3700	  749.00	  633.53	-1687.03	  349.95
    113.4700	  779.00	  647.32	-1670.82	  349.77
    113.5700	  831.00	  663.95	-1635.45	  349.60
    113.6700	  795.00	  684.14	-1691.64	  349.42
    113.7700	  884.00	  708.78	-1627.28	  349.25
    113.8700	  902.00	  738.94	-1639.44	  349.09
    113.9700	  980.00	  775.89	-1598.39	  348.92
    114.0700	 1029.00	  821.11	-1594.61	  348.76
    114.1700	 1131.00	  876.29	-1547.79	  348.60
    114.2700	 1121.00	  943.33	-1624.83	  348.45
    114.3700	 1273.00	 1024.32	-1553.82	  348.30
    114.4700	 1390.00	 1121.47	-1533.97	  348.15
    114.5700	 1459.00	 1237.12	-1580.62	  348.00
    114.6700	 1514.00	 1373.55	-1662.05	  347.86
    114.7700	 1776.00	 1532.97	-1559.47	  347.72
    114.8700	 1841.00	 1717.40	-1678.90	  347.59
    114.9700	 2090.00	 1928.39	-1640.89	  347.46
    115.0700	 2194.00	 2167.13	-1775.63	  347.33
    115.1700	 2525.00	 2434.02	-1711.52	  347.20
    115.2700	 2760.00	 2728.62	-1771.12	  347.08
    115.3700	 2982.00	 3049.69	-1870.19	  346.96
    115.4700	 3312.00	 3394.73	-1885.23	  346.85
    115.5700	 3519.00	 3760.28	-2043.78	  346.74
    115.6700	 3858.00	 4141.54	-2086.04	  346.63
    115.7700	 4337.00	 4532.46	-1997.96	  346.53
    115.8700	 4521.00	 4925.98	-2207.48	  346.43
    115.9700	 5064.00	 5313.65	-2052.15	  346.33
    116.0700	 5320.00	 5686.23	-2168.73	  346.24
    116.1700	 5790.00	 6033.45	-2045.95	  346.15
    116.2700	 6196.00	 6344.54	-1951.04	  346.07
    116.3700	 6619.00	 6608.79	-1792.29	  345.99
    116.4700	 6704.00	 6815.97	-1914.47	  345.91
    116.5700	 6976.00	 6957.45	-1783.95	  345.84
    116.6700	 7078.00	 7026.93	-1751.43	  345.77
    116.7700	 7210.00	 7021.27	-1613.77	  345.71
    116.8700	 7011.00	 6940.98	-1732.48	  345.65
    116.9700	 6969.00	 6790.07	-1623.57	  345.59
    117.0700	 6628.00	 6575.49	-1749.99	  345.54
    117.1700	 6381.00	 6306.41	-1727.91	  345.49
    117.2700	 6026.00	 5993.24	-1769.74	  345.45
    117.3700	 5801.00	 5646.66	-1648.16	  345.41
    117.4700	 5270.00	 5277.35	-1809.85	  345.38
    117.5700	 4903.00	 4895.10	-1794.60	  345.35
    117.6700	 4523.00	 4508.96	-1788.46	  345.33
    117.7700	 4342.00	 4126.88	-1587.38	  345.31
    117.8700	 3935.00	 3755.48	-1622.98	  345.29
    117.9700	 3595.00	 3400.36	-1607.86	  345.28
    118.0700	 3160.00	 3065.69	-1708.19	  345.28
    118.1700	 2772.00	 2754.63	-1785.13	  345.28
    118.2700	 2610.00	 2469.22	-1661.72	  345.28
    118.3700	 2138.00	 2210.38	-1874.88	  345.29
    118.4700	 1863.00	 1978.37	-1917.87	  345.30
    118.5700	 1684.00	 1772.52	-1891.02	  345.32
    118.6700	 1546.00	 1591.75	-1848.25	  345.35
    118.7700	 1362.00	 1434.50	-1875.00	  345.38
    118.8700	 1228.00	 1298.82	-1873.32	  345.41
    118.9700	 1044.00	 1182.71	-1941.21	  345.45
    119.0700	  955.00	 1084.00	-1931.50	  345.50
    119.1700	  911.00	 1000.60	-1892.10	  345.55
    119.2700	  872.00	  930.48	-1860.98	  345.60
    119.3700	  768.00	  871.75	-1906.25	  345.67
    119.4700	  718.00	  822.72	-1907.22	  345.73
    119.5700	  743.00	  781.84	-1841.34	  345.81
    119.6700	  670.00	  747.79	-1880.29	  345.88
    119.7700	  665.00	  719.44	-1856.94	  345.97
    119.8700	  624.00	  695.81	-1874.31	  346.06
    119.9700	  590.00	  676.10	-1888.60	  346.15
    120.0700	  583.00	  659.62	-1879.12	  346.25
    120.1700	  546.00	  645.84	-1902.34	  346.36
    120.2700	  610.00	  634.32	-1826.82	  346.47
    120.3700	  525.00	  624.67	-1902.17	  346.59
    120.4700	  574.00	  616.63	-1845.13	  346.72
    120.5700	  524.00	  609.96	-1888.46	  346.85
    120.6700	  563.00	  604.49	-1843.99	  346.98
    120.7700	  544.00	  600.06	-1858.56	  347.13
    120.8700	  611.00	  596.57	-1788.07	  347.28
    120.9700	  561.00	  593.94	-1835.44	  347.43
    121.0700	  542.00	  592.10	-1852.60	  347.60
    121.1700	  573.00	  590.98	-1820.48	  347.76
    121.2700	  550.00	  590.55	-1843.05	  347.94
    121.3700	  538.00	  590.76	-1855.26	  348.12
    121.4700	  588.00	  591.56	-1806.06	  348.31
    121.5700	  573.00	  592.92	-1822.42	  348.50
    121.6700	  604.00	  594.77	-1793.27	  348.71
    121.7700	  595.00	  597.05	-1804.55	  348.91
    121.8700	  573.00	  599.70	-1829.20	  349.13
    121.9700	  620.00	  602.65	-1785.15	  349.35
    122.0700	  578.00	  605.82	-1830.32	  349.58
    122.1700	  579.00	  609.10	-1832.60	  349.82
    122.2700	  629.00	  612.40	-1785.90	  350.06
    122.3700	  639.00	  615.60	-1779.10	  350.31
    122.4700	  622.00	  618.60	-1799.10	  350.57
    122.5700	  618.00	  621.28	-1805.78	  350.83
    122.6700	  676.00	  623.55	-1750.05	  351.10
    122.7700	  633.00	  625.30	-1794.80	  351.38
    122.8700	  644.00	  626.47	-1784.97	  351.67
    122.9700	  673.00	  627.00	-1756.50	  351.96
    123.0700	  615.00	  626.86	-1814.36	  352.27
    123.1700	  638.00	  626.07	-1790.57	  352.57
    123.2700	  643.00	  624.66	-1784.16	  352.89
    123.3700	  647.00	  622.67	-1778.17	  353.22
    123.4700	  715.00	  620.16	-1707.66	  353.55
    123.5700	  617.00	  617.22	-1802.72	  353.89
    123.6700	  647.00	  613.91	-1769.41	  354.24
    123.7700	  638.00	  610.33	-1774.83	  354.59
    123.8700	  656.00	  606.55	-1753.05	  354.96
    123.9700	  594.00	  602.65	-1811.15	  355.33
    124.0700	  644.00	  598.70	-1757.20	  355.71
    124.1700	  624.00	  594.75	-1773.25	  356.10
    124.2700	  612.00	  590.89	-1781.39	  356.50
    124.3700	  648.00	  587.14	-1741.64	  356.90
    124.4700	  584.00	  583.54	-1802.04	  357.31
    124.5700	  585.00	  580.14	-1797.64	  357.74
    124.6700	  606.00	  576.96	-1773.46	  358.17
    124.7700	  570.00	  574.00	-1806.50	  358.61
    124.8700	  575.00	  571.29	-1798.79	  359.05
    124.9700	  588.00	  474.60	-1689.10	  359.51
    125.0700	  601.00	  475.07	-1802.50	  359.98
    125.1700	  588.00	  475.54	-1802.50	  360.45
    125.2700	  586.00	  476.03	-1802.50	  360.93
    125.3700	  556.00	  476.52	-1802.50	  361.43
    125.4700	  524.00	  477.02	-1802.50	  361.93
    125.5700	  545.00	  477.53	-1802.50	  362.44
    125.6700	  566.00	  478.05	-1802.50	  362.96
    125.7700	  533.00	  478.58	-1802.50	  363.49
    125.8700	  554.00	  479.12	-1802.50	  364.03
    125.9700	  571.00	  479.67	-1802.50	  364.57
    126.0700	  558.00	  480.22	-1802.50	  365.13
    126.1700	  586.00	  480.79	-1802.50	  365.70
    126.2700	  595.00	  481.37	-1802.50	  366.27
    126.3700	  601.00	  481.95	-1802.50	  366.86
    126.4700	  566.00	  482.55	-1802.50	  367.46
    126.5700	  558.00	  483.15	-1802.50	  368.06
    126.6700	  627.00	  483.77	-1802.50	  368.68
    126.7700	  575.00	  484.39	-1802.50	  369.30
    126.8700	  605.00	  485.03	-1802.50	  369.94
    126.9700	  615.00	  485.68	-1802.50	  370.58
    127.0700	  618.00	  486.33	-1802.50	  371.24
    127.1700	  612.00	  487.00	-1802.50	  371.91
    127.2700	  599.00	  487.67	-1802.50	  372.58
    127.3700	  635.00	  488.36	-1802.50	  373.27
    127.4700	  638.00	  489.06	-1802.50	  373.97
    127.5700	  652.00	  489.77	-1802.50	  374.67
    127.6700	  695.00	  490.48	-1802.50	  375.39
    127.7700	  713.00	  491.21	-1802.50	  376.12
    127.8700	  672.00	  491.95	-1802.50	  376.86
    127.9700	  711.00	  492.70	-1802.50	  377.61
    128.0700	  740.00	  493.46	-1802.50	  378.37
    128.1700	  749.00	  494.24	-1802.50	  379.14
    128.2700	  767.00	  495.02	-1802.50	  379.93
    128.3700	  782.00	  495.81	-1802.50	  380.72
    128.4700	  800.00	  496.62	-1802.50	  381.53
    128.5700	    0.00	  497.44	-1802.50	  382.35
    128.6700	    0.00	  498.27	-1802.50	  383.17
     12.3167	        	        	        	        	       0	(  0  0  2)	  0  1
     24.9047	        	        	        	        	       0	(  0  0  4)	  0  1
     28.3448	        	        	        	        	       0	(  1  0  0)	  0  1
     29.0423	        	        	        	        	       0	(  1  0  1)	  0  1
     31.0495	        	        	        	        	       0	(  1  0  2)	  0  1
     34.1594	        	        	        	        	       0	(  1  0  3)	  0  1
     37.8091	        	        	        	        	       0	(  0  0  6)	  0  1
     38.1383	        	        	        	        	       0	(  1  0  4)	  0  1
     42.7905	        	        	        	        	       0	(  1  0  5)	  0  1
     47.9769	        	        	        	        	       0	(  1  0  6)	  0  1
     50.2884	        	        	        	        	       0	(  1  1  0)	  0  1
     51.2364	        	        	        	        	       0	(  0  0  8)	  0  1
     52.0123	        	        	        	        	       0	(  1  1  2)	  0  1
     53.6100	        	        	        	        	       0	(  1  0  7)	  0  1
     56.9628	        	        	        	        	       0	(  1  1  4)	  0  1
     58.7882	        	        	        	        	       0	(  2  0  0)	  0  1
     59.1800	        	        	        	        	       0	(  2  0  1)	  0  1
     59.6433	        	        	        	        	       0	(  1  0  8)	  0  1
     60.3461	        	        	        	        	       0	(  2  0  2)	  0  1
     62.2604	        	        	        	        	       0	(  2  0  3)	  0  1
     64.6616	        	        	        	        	       0	(  1  1  6)	  0  1
     64.8859	        	        	        	        	       0	(  2  0  4)	  0  1
     65.4719	        	        	        	        	       0	(  0  0 10)	  0  1
     66.0628	        	        	        	        	       0	(  1  0  9)	  0  1
     68.1820	        	        	        	        	       0	(  2  0  5)	  0  1
     72.1118	        	        	        	        	       0	(  2  0  6)	  0  1
     72.8825	        	        	        	        	       0	(  1  0 10)	  0  1
     74.7049	        	        	        	        	       0	(  1  1  8)	  0  1
     76.6486	        	        	        	        	       0	(  2  0  7)	  0  1
     80.1442	        	        	        	        	       0	(  1  0 11)	  0  1
     80.9605	        	        	        	        	       0	(  0  0 12)	  0  1
     81.0384	        	        	        	        	       0	(  2  1  0)	  0  1
     81.3785	        	        	        	        	       0	(  2  1  1)	  0  1
     81.7820	        	        	        	        	       0	(  2  0  8)	  0  1
     82.3970	        	        	        	        	       0	(  2  1  2)	  0  1
     84.0895	        	        	        	        	       0	(  2  1  3)	  0  1
     86.4507	        	        	        	        	       0	(  2  1  4)	  0  1
     86.9839	        	        	        	        	       0	(  1  1 10)	  0  1
     87.5238	        	        	        	        	       0	(  2  0  9)	  0  1
     87.9234	        	        	        	        	       0	(  1  0 12)	  0  1
     89.4786	        	        	        	        	       0	(  2  1  5)	  0  1
     93.1787	        	        	        	        	       0	(  2  1  6)	  0  1
     93.9158	        	        	        	        	       0	(  2  0 10)	  0  1
     94.9345	        	        	        	        	       0	(  3  0  0)	  0  1
     95.2721	        	        	        	        	       0	(  3  0  1)	  0  1
     96.2861	        	        	        	        	       0	(  3  0  2)	  0  1
     96.3427	        	        	        	        	       0	(  1  0 13)	  0  1
     97.5707	        	        	        	        	       0	(  2  1  7)	  0  1
     97.9808	        	        	        	        	       0	(  3  0  3)	  0  1
     98.5119	        	        	        	        	       0	(  0  0 14)	  0  1
    100.3658	        	        	        	        	       0	(  3  0  4)	  0  1
    101.0433	        	        	        	        	       0	(  2  0 11)	  0  1
    101.8656	        	        	        	        	       0	(  1  1 12)	  0  1
    102.6974	        	        	        	        	       0	(  2  1  8)	  0  1
    103.4600	        	        	        	        	       0	(  3  0  5)	  0  1
    105.6032	        	        	        	        	       0	(  1  0 14)	  0  1
    107.2986	        	        	        	        	       0	(  3  0  6)	  0  1
    108.6398	        	        	        	        	       0	(  2  1  9)	  0  1
    109.0620	        	        	        	        	       0	(  2  0 12)	  0  1
    111.9435	        	        	        	        	       0	(  3  0  7)	  0  1
    115.5440	        	        	        	        	       0	(  2  1 10)	  0  1
    116.0581	        	        	        	        	       0	(  1  0 15)	  0  1
    116.6762	        	        	        	        	       0	(  2  2  0)	  0  1
    117.5032	        	        	        	        	       0	(  3  0  8)	  0  1
    118.1931	        	        	        	        	       0	(  2  2  2)	  0  1
    118.2569	        	        	        	        	       0	(  2  0 13)	  0  1
    120.0234	        	        	        	        	       0	(  0  0 16)	  0  1
    120.7306	        	        	        	        	       0	(  1  1 14)	  0  1
    122.8846	        	        	        	        	       0	(  2  2  4)	  0  1
    123.6818	        	        	        	        	       0	(  2  1 11)	  0  1
    124.1721	        	        	        	        	       0	(  3  0  9)	  0  1
    124.7505	        	        	        	        	       0	(  3  1  0)	  0  1
    125.1613	        	        	        	        	       0	(  3  1  1)	  0  1
    126.4066	        	        	        	        	       0	(  3  1  2)	  0  1
    128.4208	        	        	        	        	       0	(  1  0 16)	  0  1
    128.5281	        	        	        	        	       0	(  3  1  3)	  0  1
    129.2042	        	        	        	        	       0	(  2  0 14)	  0  1
    131.3377	        	        	        	        	       0	(  2  2  6)	  0  1
    131.6093	        	        	        	        	       0	(  3  1  4)	  0  1
    132.3268	        	        	        	        	       0	(  3  0 10)	  0  1
    133.6121	        	        	        	        	       0	(  2  1 12)	  0  1
    135.8046	        	        	        	        	       0	(  3  1  5)	  0  1
    141.4138	        	        	        	        	       0	(  3  1  6)	  0  1
    142.8324	        	        	        	        	       0	(  3  0 11)	  0  1
    143.3825	        	        	        	        	       0	(  2  0 15)	  0  1
    144.6378	        	        	        	        	       0	(  1  0 17)	  0  1
    145.6082	        	        	        	        	       0	(  2  2  8)	  0  1
    146.8086	        	        	        	        	       0	(  2  1 13)	  0  1
    149.1137	        	        	        	        	       0	(  3  1  7)	  0  1
    149.7499	        	        	        	        	       0	(  1  1 16)	  0  1
    154.1961	        	        	        	        	       0	(  0  0 18)	  0  1
    158.8041	        	        	        	        	       0	(  3  0 12)	  0  1
    159.0191	        	        	        	        	       0	(  4  0  0)	  0  1
    159.9847	        	        	        	        	       0	(  4  0  1)	  0  1
    161.1935	        	        	        	        	       0	(  3  1  8)	  0  1
    163.1998	        	        	        	        	       0	(  4  0  2)	  0  1
    170.2133	        	        	        	        	       0	(  2  0 16)	  0  1
    170.7263	        	        	        	        	       0	(  4  0  3)	  0  1
    175.0430	        	        	        	        	       0	(  2  1 14)	  0  1
