MSG Master    CELL:    5.91961   5.91961  23.27494   90.0000   90.0000  120.0000   SPGR: P 63/m m c             TEMP:   1074.85
  1   1280     2.52000     0.00000    -0.13037     0.00000     0.00000    0
    99     0     2
       0.00000      10.00000
     125.00000     130.00000
 2Theta	Yobs	Ycal	Yobs-Ycal	Backg	Posr	(hkl)	K
      0.7700	    0.00	  556.91	-1717.44	  438.64
      0.8700	    0.00	  557.53	-1717.44	  439.26
      0.9700	   43.00	  558.13	-1717.44	  439.87
      1.0700	   39.00	  558.73	-1717.44	  440.46
      1.1700	   46.00	  559.32	-1717.44	  441.05
      1.2700	   41.00	  559.89	-1717.44	  441.63
      1.3700	   46.00	  560.46	-1717.44	  442.19
      1.4700	   92.00	  561.02	-1717.44	  442.75
      1.5700	  323.00	  561.57	-1717.44	  443.30
      1.6700	  476.00	  562.10	-1717.44	  443.84
      1.7700	  550.00	  562.63	-1717.44	  444.36
      1.8700	  671.00	  563.15	-1717.44	  444.88
      1.9700	  743.00	  563.66	-1717.44	  445.39
      2.0700	  778.00	  564.16	-1717.44	  445.89
      2.1700	  812.00	  564.65	-1717.44	  446.38
      2.2700	  749.00	  565.13	-1717.44	  446.86
      2.3700	  779.00	  565.60	-1717.44	  447.33
      2.4700	  727.00	  566.06	-1717.44	  447.79
      2.5700	  683.00	  566.51	-1717.44	  448.25
      2.6700	  691.00	  566.96	-1717.44	  448.69
      2.7700	  647.00	  567.39	-1717.44	  449.13
      2.8700	  621.00	  567.82	-1717.44	  449.55
      2.9700	  610.00	  568.24	-1717.44	  449.97
      3.0700	  595.00	  568.64	-1717.44	  450.38
      3.1700	  552.00	  569.04	-1717.44	  450.78
      3.2700	  618.00	  569.44	-1717.44	  451.17
      3.3700	  664.00	  569.82	-1717.44	  451.55
      3.4700	  724.00	  570.19	-1717.44	  451.92
      3.5700	  798.00	  570.56	-1717.44	  452.29
      3.6700	  867.00	  570.91	-1717.44	  452.65
      3.7700	 1009.00	  571.26	-1717.44	  453.00
      3.8700	  966.00	  571.60	-1717.44	  453.34
      3.9700	  980.00	  571.94	-1717.44	  453.67
      4.0700	 1069.00	  572.26	-1717.44	  453.99
      4.1700	 1113.00	  572.58	-1717.44	  454.31
      4.2700	 1121.00	  572.88	-1717.44	  454.62
      4.3700	 1110.00	  573.18	-1717.44	  454.92
      4.4700	 1117.00	  573.48	-1717.44	  455.21
      4.5700	 1050.00	  573.76	-1717.44	  455.49
      4.6700	 1050.00	  574.04	-1717.44	  455.77
      4.7700	  973.00	  574.31	-1717.44	  456.04
      4.8700	  970.00	  574.57	-1717.44	  456.30
      4.9700	  924.00	  574.82	-1717.44	  456.55
      5.0700	  933.00	  575.07	-1717.44	  456.80
      5.1700	  934.00	  575.31	-1717.44	  457.04
      5.2700	  892.00	  575.54	-1717.44	  457.27
      5.3700	  874.00	  575.76	-1717.44	  457.49
      5.4700	  827.00	  575.98	-1717.44	  457.71
      5.5700	  825.00	  576.19	-1717.44	  457.92
      5.6700	  873.00	  576.39	-1717.44	  458.12
      5.7700	  832.00	  576.58	-1717.44	  458.32
      5.8700	  817.00	  576.77	-1717.44	  458.50
      5.9700	  784.00	  576.95	-1717.44	  458.68
      6.0700	  772.00	  577.13	-1717.44	  458.86
      6.1700	  745.00	  577.29	-1717.44	  459.03
      6.2700	  795.00	  577.45	-1717.44	  459.19
      6.3700	  764.00	  577.61	-1717.44	  459.34
      6.4700	  771.00	  577.76	-1717.44	  459.49
      6.5700	  771.00	  577.90	-1717.44	  459.63
      6.6700	  782.00	  578.03	-1717.44	  459.76
      6.7700	  718.00	  578.16	-1717.44	  459.89
      6.8700	  713.00	  578.28	-1717.44	  460.01
      6.9700	  668.00	  578.39	-1717.44	  460.12
      7.0700	  682.00	  578.50	-1717.44	  460.23
      7.1700	  678.00	  578.60	-1717.44	  460.33
      7.2700	  670.00	  578.70	-1717.44	  460.43
      7.3700	  703.00	  578.79	-1717.44	  460.52
      7.4700	  679.00	  578.87	-1717.44	  460.60
      7.5700	  683.00	  578.95	-1717.44	  460.68
      7.6700	  669.00	  579.02	-1717.44	  460.75
      7.7700	  608.00	  579.08	-1717.44	  460.81
      7.8700	  632.00	  579.14	-1717.44	  460.87
      7.9700	  643.00	  579.19	-1717.44	  460.93
      8.0700	  683.00	  579.24	-1717.44	  460.97
      8.1700	  658.00	  579.28	-1717.44	  461.02
      8.2700	  622.00	  579.32	-1717.44	  461.05
      8.3700	  609.00	  579.35	-1717.44	  461.08
      8.4700	  642.00	  579.38	-1717.44	  461.11
      8.5700	  645.00	  579.39	-1717.44	  461.13
      8.6700	  630.00	  579.41	-1717.44	  461.14
      8.7700	  618.00	  579.42	-1717.44	  461.15
      8.8700	  593.00	  579.42	-1717.44	  461.15
      8.9700	  586.00	  579.42	-1717.44	  461.15
      9.0700	  596.00	  579.41	-1717.44	  461.14
      9.1700	  654.00	  579.40	-1717.44	  461.13
      9.2700	  603.00	  579.38	-1717.44	  461.11
      9.3700	  619.00	  579.35	-1717.44	  461.09
      9.4700	  632.00	  579.33	-1717.44	  461.06
      9.5700	  626.00	  579.29	-1717.44	  461.03
      9.6700	  584.00	  579.25	-1717.44	  460.99
      9.7700	  589.00	  579.21	-1717.44	  460.94
      9.8700	  612.00	  579.16	-1717.44	  460.90
      9.9700	  593.00	  579.11	-1717.44	  460.84
     10.0700	  596.00	  579.95	-1701.39	  460.78
     10.1700	  585.00	  579.98	-1712.42	  460.72
     10.2700	  590.00	  580.04	-1707.48	  460.65
     10.3700	  578.00	  580.13	-1719.57	  460.58
     10.4700	  548.00	  580.28	-1749.72	  460.51
     10.5700	  608.00	  580.56	-1690.00	  460.43
     10.6700	  586.00	  581.08	-1712.52	  460.34
     10.7700	  619.00	  581.93	-1680.37	  460.25
     10.8700	  641.00	  583.20	-1659.64	  460.16
     10.9700	  574.00	  584.88	-1728.32	  460.06
     11.0700	  577.00	  586.93	-1727.37	  459.95
     11.1700	  650.00	  589.35	-1656.79	  459.85
     11.2700	  611.00	  592.17	-1698.61	  459.74
     11.3700	  573.00	  595.50	-1739.94	  459.62
     11.4700	  611.00	  599.47	-1705.91	  459.50
     11.5700	  625.00	  604.30	-1696.74	  459.38
     11.6700	  579.00	  610.39	-1748.83	  459.25
     11.7700	  626.00	  618.40	-1709.84	  459.12
     11.8700	  629.00	  629.25	-1717.69	  458.98
     11.9700	  669.00	  643.45	-1691.89	  458.84
     12.0700	  671.00	  659.01	-1705.45	  458.70
     12.1700	  674.00	  669.30	-1712.74	  458.55
     12.2700	  709.00	  664.48	-1672.92	  458.40
     12.3700	  671.00	  642.51	-1688.95	  458.25
     12.4700	  635.00	  616.66	-1699.10	  458.09
     12.5700	  650.00	  597.86	-1665.30	  457.92
     12.6700	  587.00	  587.51	-1717.95	  457.76
     12.7700	  554.00	  582.67	-1746.11	  457.59
     12.8700	  617.00	  580.40	-1680.84	  457.42
     12.9700	  547.00	  579.12	-1749.56	  457.24
     13.0700	  566.00	  578.23	-1729.67	  457.06
     13.1700	  546.00	  577.55	-1748.99	  456.88
     13.2700	  536.00	  576.98	-1758.42	  456.69
     13.3700	  556.00	  576.51	-1737.95	  456.50
     13.4700	  544.00	  576.09	-1749.53	  456.31
     13.5700	  542.00	  575.71	-1751.15	  456.11
     13.6700	  549.00	  575.36	-1743.80	  455.92
     13.7700	  547.00	  575.04	-1745.48	  455.71
     13.8700	  595.00	  574.73	-1697.17	  455.51
     13.9700	  608.00	  574.44	-1683.88	  455.30
     14.0700	  552.00	  574.15	-1739.59	  455.09
     14.1700	  580.00	  573.88	-1711.32	  454.87
     14.2700	  567.00	  573.61	-1724.05	  454.66
     14.3700	  574.00	  573.34	-1716.78	  454.44
     14.4700	  611.00	  573.08	-1679.52	  454.21
     14.5700	  590.00	  572.82	-1700.26	  453.99
     14.6700	  555.00	  572.55	-1735.00	  453.76
     14.7700	  569.00	  572.30	-1720.74	  453.53
     14.8700	  557.00	  572.04	-1732.48	  453.30
     14.9700	  604.00	  571.78	-1685.22	  453.06
     15.0700	  562.00	  571.52	-1726.96	  452.82
     15.1700	  590.00	  571.26	-1698.70	  452.58
     15.2700	  478.00	  571.00	-1810.44	  452.33
     15.3700	  547.00	  570.74	-1741.18	  452.09
     15.4700	  551.00	  570.47	-1736.91	  451.84
     15.5700	  547.00	  570.21	-1740.65	  451.59
     15.6700	  546.00	  569.94	-1741.38	  451.33
     15.7700	  567.00	  569.68	-1720.12	  451.08
     15.8700	  551.00	  569.41	-1735.85	  450.82
     15.9700	  559.00	  569.17	-1727.61	  450.56
     16.0700	  592.00	  568.89	-1694.34	  450.30
     16.1700	  575.00	  568.62	-1711.06	  450.03
     16.2700	  569.00	  568.35	-1716.79	  449.76
     16.3700	  544.00	  568.07	-1741.51	  449.49
     16.4700	  546.00	  567.80	-1739.24	  449.22
     16.5700	  576.00	  567.52	-1708.96	  448.95
     16.6700	  569.00	  567.24	-1715.68	  448.67
     16.7700	  565.00	  566.96	-1719.40	  448.40
     16.8700	  578.00	  566.67	-1706.11	  448.12
     16.9700	  578.00	  566.39	-1705.83	  447.83
     17.0700	  582.00	  566.10	-1701.54	  447.55
     17.1700	  532.00	  565.81	-1751.25	  447.27
     17.2700	  571.00	  565.52	-1711.96	  446.98
     17.3700	  525.00	  565.23	-1757.67	  446.69
     17.4700	  552.00	  564.94	-1730.38	  446.40
     17.5700	  611.00	  564.65	-1671.09	  446.11
     17.6700	  570.00	  564.35	-1711.79	  445.82
     17.7700	  567.00	  564.05	-1714.49	  445.52
     17.8700	  486.00	  563.76	-1795.20	  445.22
     17.9700	  584.00	  563.46	-1696.90	  444.92
     18.0700	  543.00	  563.26	-1737.70	  444.62
     18.1700	  539.00	  562.96	-1741.40	  444.32
     18.2700	  565.00	  562.65	-1715.09	  444.02
     18.3700	  576.00	  562.35	-1703.79	  443.72
     18.4700	  565.00	  562.05	-1714.49	  443.41
     18.5700	  555.00	  561.74	-1724.18	  443.10
     18.6700	  536.00	  561.44	-1742.88	  442.79
     18.7700	  528.00	  561.13	-1750.57	  442.48
     18.8700	  558.00	  560.90	-1720.35	  442.17
     18.9700	  554.00	  560.60	-1724.04	  441.86
     19.0700	  569.00	  560.29	-1708.73	  441.55
     19.1700	  514.00	  559.98	-1763.42	  441.23
     19.2700	  552.00	  559.67	-1725.11	  440.92
     19.3700	  566.00	  559.36	-1710.80	  440.60
     19.4700	  569.00	  559.05	-1707.49	  440.28
     19.5700	  575.00	  558.74	-1701.18	  439.96
     19.6700	  569.00	  558.42	-1706.86	  439.64
     19.7700	  542.00	  558.11	-1733.55	  439.32
     19.8700	  593.00	  557.79	-1682.24	  439.00
     19.9700	  563.00	  557.48	-1711.92	  438.68
     20.0700	  506.00	  557.17	-1768.61	  438.35
     20.1700	  570.00	  556.85	-1704.29	  438.03
     20.2700	  541.00	  556.53	-1732.98	  437.70
     20.3700	  543.00	  556.22	-1730.66	  437.37
     20.4700	  569.00	  555.90	-1704.34	  437.05
     20.5700	  557.00	  555.59	-1716.03	  436.72
     20.6700	  570.00	  555.27	-1702.71	  436.39
     20.7700	  534.00	  554.92	-1738.36	  436.06
     20.8700	  560.00	  554.64	-1712.08	  435.73
     20.9700	  579.00	  554.32	-1692.76	  435.40
     21.0700	  571.00	  554.01	-1700.45	  435.07
     21.1700	  550.00	  553.70	-1721.14	  434.73
     21.2700	  510.00	  553.38	-1760.82	  434.40
     21.3700	  536.00	  553.07	-1734.51	  434.07
     21.4700	  555.00	  552.76	-1715.20	  433.73
     21.5700	  554.00	  552.45	-1715.89	  433.40
     21.6700	  573.00	  552.14	-1696.58	  433.06
     21.7700	  586.00	  551.83	-1683.27	  432.73
     21.8700	  508.00	  551.53	-1760.97	  432.39
     21.9700	  548.00	  551.22	-1720.66	  432.06
     22.0700	  534.00	  550.92	-1734.36	  431.72
     22.1700	  547.00	  550.62	-1721.06	  431.38
     22.2700	  590.00	  550.33	-1677.77	  431.05
     22.3700	  532.00	  550.03	-1735.48	  430.71
     22.4700	  533.00	  549.75	-1734.19	  430.37
     22.5700	  539.00	  549.47	-1727.91	  430.03
     22.6700	  552.00	  549.19	-1714.63	  429.69
     22.7700	  567.00	  548.92	-1699.36	  429.36
     22.8700	  565.00	  548.66	-1701.10	  429.02
     22.9700	  560.00	  548.41	-1705.85	  428.68
     23.0700	  554.00	  548.18	-1711.62	  428.34
     23.1700	  580.00	  547.96	-1685.40	  428.00
     23.2700	  570.00	  547.76	-1695.20	  427.66
     23.3700	  533.00	  547.60	-1732.04	  427.32
     23.4700	  559.00	  547.46	-1705.91	  426.98
     23.5700	  547.00	  547.38	-1717.82	  426.64
     23.6700	  572.00	  547.52	-1692.96	  426.30
     23.7700	  561.00	  547.63	-1704.07	  425.96
     23.8700	  546.00	  547.98	-1719.42	  425.63
     23.9700	  544.00	  548.80	-1722.24	  425.29
     24.0700	  559.00	  550.50	-1708.94	  424.95
     24.1700	  535.00	  553.75	-1736.19	  424.61
     24.2700	  559.00	  559.36	-1717.80	  424.27
     24.3700	  586.00	  568.25	-1699.69	  423.93
     24.4700	  604.00	  581.33	-1694.77	  423.59
     24.5700	  587.00	  598.56	-1729.00	  423.25
     24.6700	  633.00	  616.92	-1701.36	  422.92
     24.7700	  618.00	  628.78	-1728.22	  422.58
     24.8700	  641.00	  624.54	-1700.99	  422.24
     24.9700	  652.00	  604.07	-1669.51	  421.90
     25.0700	  617.00	  580.21	-1680.65	  421.57
     25.1700	  601.00	  562.49	-1678.93	  421.23
     25.2700	  563.00	  552.39	-1706.83	  420.90
     25.3700	  528.00	  547.51	-1736.95	  420.56
     25.4700	  524.00	  545.22	-1738.66	  420.22
     25.5700	  535.00	  543.97	-1726.42	  419.89
     25.6700	  543.00	  543.16	-1717.60	  419.55
     25.7700	  554.00	  542.56	-1706.00	  419.22
     25.8700	  592.00	  542.10	-1667.54	  418.89
     25.9700	  530.00	  541.74	-1729.18	  418.55
     26.0700	  586.00	  541.48	-1672.92	  418.22
     26.1700	  567.00	  541.29	-1691.73	  417.89
     26.2700	  585.00	  541.18	-1673.62	  417.56
     26.3700	  561.00	  541.15	-1697.59	  417.23
     26.4700	  529.00	  541.20	-1729.64	  416.90
     26.5700	  557.00	  541.35	-1701.79	  416.57
     26.6700	  546.00	  541.61	-1713.05	  416.24
     26.7700	  548.00	  542.00	-1711.44	  415.91
     26.8700	  536.00	  542.57	-1724.01	  415.58
     26.9700	  547.00	  543.35	-1713.79	  415.25
     27.0700	  542.00	  544.43	-1719.87	  414.93
     27.1700	  538.00	  545.95	-1725.39	  414.60
     27.2700	  549.00	  548.15	-1716.59	  414.28
     27.3700	  558.00	  551.53	-1710.97	  413.95
     27.4700	  623.00	  557.09	-1651.53	  413.63
     27.5700	  496.00	  566.59	-1788.03	  413.30
     27.6700	  594.00	  582.77	-1706.21	  412.98
     27.7700	  556.00	  609.14	-1770.58	  412.66
     27.8700	  604.00	  648.62	-1762.06	  412.34
     27.9700	  666.00	  701.09	-1752.53	  412.02
     28.0700	  762.00	  760.14	-1715.58	  411.70
     28.1700	  917.00	  810.44	-1610.88	  411.38
     28.2700	  915.00	  829.65	-1632.09	  411.07
     28.3700	  887.00	  806.45	-1636.89	  410.75
     28.4700	  833.00	  764.04	-1648.48	  410.44
     28.5700	  657.00	  736.42	-1796.86	  410.12
     28.6700	  677.00	  737.83	-1778.27	  409.81
     28.7700	  746.00	  762.40	-1733.84	  409.50
     28.8700	  815.00	  789.72	-1692.16	  409.18
     28.9700	  822.00	  792.10	-1687.54	  408.87
     29.0700	  749.00	  753.70	-1722.14	  408.56
     29.1700	  688.00	  691.77	-1721.21	  408.26
     29.2700	  626.00	  634.00	-1725.45	  407.95
     29.3700	  613.00	  592.82	-1697.26	  407.64
     29.4700	  569.00	  568.10	-1716.54	  407.34
     29.5700	  559.00	  554.76	-1713.20	  407.03
     29.6700	  598.00	  547.68	-1667.12	  406.73
     29.7700	  605.00	  543.64	-1656.08	  406.43
     29.8700	  566.00	  541.09	-1692.53	  406.13
     29.9700	  617.00	  539.45	-1639.89	  405.83
     30.0700	  553.00	  538.58	-1703.02	  405.53
     30.1700	  578.00	  538.63	-1678.07	  405.23
     30.2700	  547.00	  540.09	-1710.53	  404.93
     30.3700	  563.00	  543.92	-1698.36	  404.64
     30.4700	  536.00	  551.54	-1732.98	  404.35
     30.5700	  581.00	  564.36	-1700.80	  404.05
     30.6700	  585.00	  582.65	-1715.09	  403.76
     30.7700	  588.00	  603.91	-1733.35	  403.47
     30.8700	  604.00	  621.86	-1735.30	  403.18
     30.9700	  625.00	  627.27	-1719.71	  402.89
     31.0700	  605.00	  614.39	-1726.83	  402.61
     31.1700	  600.00	  590.17	-1707.61	  402.32
     31.2700	  543.00	  566.42	-1740.86	  402.04
     31.3700	  557.00	  549.06	-1709.50	  401.75
     31.4700	  511.00	  538.54	-1744.98	  401.47
     31.5700	  529.00	  532.90	-1721.34	  401.19
     31.6700	  510.00	  529.97	-1737.41	  400.91
     31.7700	  516.00	  528.34	-1729.78	  400.64
     31.8700	  547.00	  527.31	-1697.75	  400.36
     31.9700	  523.00	  526.60	-1721.04	  400.09
     32.0700	  495.00	  526.11	-1748.55	  399.81
     32.1700	  529.00	  525.79	-1714.23	  399.54
     32.2700	  524.00	  525.63	-1719.07	  399.27
     32.3700	  578.00	  525.62	-1665.06	  399.00
     32.4700	  533.00	  525.76	-1710.20	  398.73
     32.5700	  538.00	  526.09	-1705.53	  398.47
     32.6700	  541.00	  526.62	-1703.06	  398.20
     32.7700	  540.00	  527.41	-1704.86	  397.94
     32.8700	  550.00	  528.54	-1695.98	  397.68
     32.9700	  538.00	  530.14	-1709.58	  397.42
     33.0700	  590.00	  532.44	-1659.88	  397.16
     33.1700	  565.00	  535.97	-1688.41	  396.90
     33.2700	  518.00	  541.91	-1741.35	  396.64
     33.3700	  540.00	  552.76	-1730.20	  396.39
     33.4700	  535.00	  573.23	-1755.67	  396.13
     33.5700	  651.00	  610.60	-1677.04	  395.88
     33.6700	  645.00	  672.84	-1745.28	  395.63
     33.7700	  740.00	  762.73	-1740.17	  395.38
     33.8700	  910.00	  869.42	-1676.86	  395.14
     33.9700	 1003.00	  963.36	-1677.80	  394.89
     34.0700	 1094.00	 1000.75	-1624.19	  394.65
     34.1700	 1002.00	  952.10	-1667.54	  394.40
     34.2700	  878.00	  843.36	-1682.80	  394.16
     34.3700	  740.00	  729.19	-1706.63	  393.92
     34.4700	  646.00	  641.59	-1713.03	  393.69
     34.5700	  554.00	  586.60	-1750.04	  393.45
     34.6700	  546.00	  556.67	-1728.11	  393.21
     34.7700	  517.00	  541.50	-1741.94	  392.98
     34.8700	  537.00	  533.49	-1713.93	  392.75
     34.9700	  533.00	  528.67	-1713.11	  392.52
     35.0700	  536.00	  525.35	-1706.79	  392.29
     35.1700	  528.00	  522.83	-1712.27	  392.06
     35.2700	  522.00	  520.84	-1716.28	  391.84
     35.3700	  550.00	  519.22	-1686.66	  391.62
     35.4700	  556.00	  517.88	-1679.32	  391.39
     35.5700	  541.00	  516.75	-1693.19	  391.17
     35.6700	  562.00	  515.78	-1671.22	  390.96
     35.7700	  476.00	  514.94	-1756.38	  390.74
     35.8700	  543.00	  514.20	-1688.64	  390.52
     35.9700	  526.00	  513.55	-1704.99	  390.31
     36.0700	  533.00	  513.43	-1697.87	  390.10
     36.1700	  523.00	  512.91	-1707.35	  389.89
     36.2700	  517.00	  512.44	-1712.88	  389.68
     36.3700	  515.00	  512.02	-1714.46	  389.47
     36.4700	  513.00	  511.64	-1716.08	  389.27
     36.5700	  500.00	  511.30	-1728.74	  389.06
     36.6700	  523.00	  511.00	-1705.44	  388.86
     36.7700	  525.00	  510.76	-1703.20	  388.66
     36.8700	  519.00	  510.58	-1709.02	  388.46
     36.9700	  530.00	  510.55	-1697.99	  388.27
     37.0700	  522.00	  510.79	-1706.23	  388.07
     37.1700	  539.00	  511.56	-1690.00	  387.88
     37.2700	  512.00	  513.21	-1718.65	  387.69
     37.3700	  483.00	  516.02	-1750.46	  387.50
     37.4700	  520.00	  519.91	-1717.35	  387.31
     37.5700	  510.00	  524.04	-1731.48	  387.13
     37.6700	  522.00	  526.87	-1722.31	  386.94
     37.7700	  500.00	  526.79	-1744.23	  386.76
     37.8700	  483.00	  523.68	-1758.12	  386.58
     37.9700	  518.00	  519.24	-1718.68	  386.40
     38.0700	  479.00	  515.08	-1753.52	  386.22
     38.1700	  486.00	  511.86	-1743.30	  386.04
     38.2700	  513.00	  509.63	-1714.07	  385.87
     38.3700	  472.00	  508.20	-1753.64	  385.70
     38.4700	  537.00	  507.30	-1687.74	  385.53
     38.5700	  497.00	  506.71	-1727.15	  385.36
     38.6700	  507.00	  506.20	-1716.64	  385.19
     38.7700	  525.00	  505.88	-1698.32	  385.03
     38.8700	  513.00	  505.63	-1710.07	  384.86
     38.9700	  497.00	  505.40	-1725.84	  384.70
     39.0700	  515.00	  505.19	-1707.63	  384.54
     39.1700	  499.00	  505.00	-1723.44	  384.38
     39.2700	  513.00	  504.75	-1709.19	  384.23
     39.3700	  535.00	  504.58	-1687.03	  384.07
     39.4700	  526.00	  504.57	-1696.01	  383.92
     39.5700	  509.00	  504.43	-1712.87	  383.77
     39.6700	  500.00	  504.29	-1721.73	  383.62
     39.7700	  497.00	  504.17	-1724.61	  383.47
     39.8700	  484.00	  504.05	-1737.49	  383.33
     39.9700	  528.00	  503.95	-1693.39	  383.18
     40.0700	  512.00	  503.85	-1709.29	  383.04
     40.1700	  515.00	  503.76	-1706.21	  382.90
     40.2700	  505.00	  503.69	-1716.13	  382.76
     40.3700	  551.00	  503.62	-1670.07	  382.63
     40.4700	  491.00	  503.57	-1730.01	  382.49
     40.5700	  466.00	  503.54	-1754.98	  382.36
     40.6700	  461.00	  503.52	-1759.96	  382.23
     40.7700	  519.00	  503.52	-1701.96	  382.10
     40.8700	  494.00	  503.54	-1726.98	  381.97
     40.9700	  502.00	  503.59	-1719.03	  381.85
     41.0700	  530.00	  503.67	-1691.11	  381.72
     41.1700	  509.00	  503.79	-1712.23	  381.60
     41.2700	  490.00	  503.97	-1731.41	  381.48
     41.3700	  531.00	  504.17	-1690.61	  381.36
     41.4700	  529.00	  504.93	-1693.37	  381.24
     41.5700	  469.00	  505.38	-1753.82	  381.13
     41.6700	  512.00	  506.00	-1711.44	  381.02
     41.7700	  477.00	  506.95	-1747.39	  380.90
     41.8700	  475.00	  508.53	-1750.97	  380.80
     41.9700	  502.00	  511.47	-1726.91	  380.69
     42.0700	  523.00	  517.06	-1711.50	  380.58
     42.1700	  519.00	  527.35	-1725.79	  380.48
     42.2700	  537.00	  544.58	-1725.02	  380.37
     42.3700	  509.00	  569.85	-1778.29	  380.27
     42.4700	  549.00	  600.90	-1769.34	  380.18
     42.5700	  620.00	  630.76	-1728.20	  380.08
     42.6700	  612.00	  648.42	-1753.86	  379.98
     42.7700	  584.00	  644.53	-1777.97	  379.89
     42.8700	  591.00	  620.43	-1746.87	  379.80
     42.9700	  558.00	  587.97	-1747.41	  379.71
     43.0700	  533.00	  557.98	-1742.42	  379.62
     43.1700	  545.00	  535.62	-1708.07	  379.53
     43.2700	  499.00	  521.43	-1739.87	  379.45
     43.3700	  519.00	  513.46	-1711.90	  379.37
     43.4700	  512.00	  509.31	-1714.75	  379.28
     43.5700	  525.00	  507.12	-1699.56	  379.20
     43.6700	  508.00	  506.05	-1715.50	  379.13
     43.7700	  510.00	  505.24	-1712.68	  379.05
     43.8700	  521.00	  504.69	-1701.13	  378.98
     43.9700	  494.00	  504.25	-1727.69	  378.91
     44.0700	  470.00	  503.91	-1751.35	  378.83
     44.1700	  505.00	  503.65	-1716.09	  378.77
     44.2700	  511.00	  503.45	-1709.89	  378.70
     44.3700	  517.00	  503.30	-1703.74	  378.63
     44.4700	  533.00	  503.20	-1687.64	  378.57
     44.5700	  471.00	  503.12	-1749.56	  378.51
     44.6700	  476.00	  502.95	-1744.39	  378.45
     44.7700	  486.00	  502.94	-1734.38	  378.39
     44.8700	  508.00	  502.95	-1712.39	  378.33
     44.9700	  532.00	  502.99	-1688.43	  378.28
     45.0700	  496.00	  503.05	-1724.49	  378.23
     45.1700	  495.00	  503.31	-1725.75	  378.17
     45.2700	  495.00	  503.41	-1725.85	  378.12
     45.3700	  502.00	  503.54	-1718.98	  378.08
     45.4700	  532.00	  503.69	-1689.13	  378.03
     45.5700	  520.00	  503.86	-1701.30	  377.98
     45.6700	  475.00	  504.05	-1746.50	  377.94
     45.7700	  486.00	  504.28	-1735.72	  377.90
     45.8700	  529.00	  504.53	-1692.97	  377.86
     45.9700	  488.00	  504.81	-1734.25	  377.82
     46.0700	  537.00	  505.13	-1685.57	  377.79
     46.1700	  501.00	  505.48	-1721.92	  377.75
     46.2700	  499.00	  505.88	-1724.32	  377.72
     46.3700	  494.00	  506.33	-1729.77	  377.69
     46.4700	  502.00	  506.84	-1722.28	  377.66
     46.5700	  501.00	  507.42	-1723.86	  377.63
     46.6700	  499.00	  508.09	-1726.53	  377.61
     46.7700	  510.00	  508.87	-1716.31	  377.58
     46.8700	  499.00	  509.83	-1728.28	  377.56
     46.9700	  510.00	  511.11	-1718.55	  377.54
     47.0700	  498.00	  513.00	-1732.44	  377.52
     47.1700	  501.00	  516.05	-1732.49	  377.50
     47.2700	  506.00	  521.07	-1732.51	  377.48
     47.3700	  483.00	  529.25	-1763.69	  377.47
     47.4700	  581.00	  541.56	-1678.00	  377.46
     47.5700	  565.00	  558.02	-1710.46	  377.44
     47.6700	  559.00	  576.85	-1735.29	  377.43
     47.7700	  575.00	  593.96	-1736.40	  377.43
     47.8700	  574.00	  603.71	-1747.15	  377.42
     47.9700	  643.00	  602.05	-1676.49	  377.41
     48.0700	  567.00	  590.51	-1740.95	  377.41
     48.1700	  547.00	  574.74	-1745.18	  377.41
     48.2700	  544.00	  560.07	-1733.51	  377.41
     48.3700	  526.00	  549.40	-1740.84	  377.41
     48.4700	  489.00	  543.47	-1771.91	  377.41
     48.5700	  560.00	  541.69	-1699.13	  377.42
     48.6700	  524.00	  543.04	-1736.48	  377.42
     48.7700	  548.00	  546.66	-1716.10	  377.43
     48.8700	  520.00	  552.14	-1749.58	  377.44
     48.9700	  529.00	  559.58	-1748.02	  377.45
     49.0700	  570.00	  569.68	-1717.12	  377.46
     49.1700	  537.00	  584.16	-1764.60	  377.48
     49.2700	  569.00	  606.61	-1755.05	  377.49
     49.3700	  650.00	  643.85	-1711.29	  377.51
     49.4700	  698.00	  707.54	-1726.98	  377.53
     49.5700	  763.00	  813.09	-1767.53	  377.54
     49.6700	  897.00	  978.71	-1799.15	  377.57
     49.7700	 1173.00	 1216.97	-1761.41	  377.59
     49.8700	 1496.00	 1524.46	-1745.90	  377.61
     49.9700	 1840.00	 1870.03	-1747.47	  377.64
     50.0700	 2238.00	 2186.62	-1666.06	  377.66
     50.1700	 2472.00	 2377.87	-1623.31	  377.69
     50.2700	 2411.00	 2363.39	-1669.83	  377.72
     50.3700	 2236.00	 2147.92	-1629.36	  377.75
     50.4700	 1770.00	 1820.44	-1767.88	  377.79
     50.5700	 1381.00	 1478.97	-1815.41	  377.82
     50.6700	 1010.00	 1186.14	-1893.58	  377.86
     50.7700	  833.00	  967.90	-1852.34	  377.89
     50.8700	  769.00	  823.53	-1771.97	  377.93
     50.9700	  668.00	  737.04	-1786.48	  377.97
     51.0700	  686.00	  687.47	-1718.91	  378.01
     51.1700	  607.00	  656.41	-1766.85	  378.05
     51.2700	  642.00	  632.23	-1707.67	  378.10
     51.3700	  556.00	  610.70	-1772.14	  378.14
     51.4700	  575.00	  591.70	-1734.14	  378.19
     51.5700	  578.00	  576.03	-1715.47	  378.24
     51.6700	  600.00	  564.10	-1681.54	  378.29
     51.7700	  548.00	  555.67	-1725.11	  378.34
     51.8700	  570.00	  550.08	-1697.52	  378.39
     51.9700	  613.00	  546.56	-1651.00	  378.44
     52.0700	  584.00	  544.51	-1677.95	  378.50
     52.1700	  514.00	  543.80	-1747.24	  378.55
     52.2700	  536.00	  543.84	-1725.28	  378.61
     52.3700	  539.00	  544.98	-1723.43	  378.67
     52.4700	  544.00	  547.71	-1721.15	  378.73
     52.5700	  577.00	  553.20	-1693.64	  378.79
     52.6700	  577.00	  563.85	-1704.29	  378.85
     52.7700	  601.00	  583.93	-1700.37	  378.92
     52.8700	  620.00	  619.81	-1717.25	  378.98
     52.9700	  748.00	  678.95	-1648.39	  379.05
     53.0700	  821.00	  767.15	-1663.59	  379.11
     53.1700	  916.00	  883.99	-1685.43	  379.18
     53.2700	 1089.00	 1018.33	-1646.77	  379.25
     53.3700	 1130.00	 1145.37	-1732.81	  379.32
     53.4700	 1192.00	 1229.32	-1754.76	  379.39
     53.5700	 1193.00	 1237.83	-1762.27	  379.47
     53.6700	 1105.00	 1166.64	-1779.08	  379.54
     53.7700	 1040.00	 1044.43	-1721.87	  379.62
     53.8700	  863.00	  908.90	-1763.34	  379.69
     53.9700	  726.00	  787.58	-1779.02	  379.77
     54.0700	  683.00	  694.05	-1728.49	  379.85
     54.1700	  615.00	  630.35	-1732.79	  379.93
     54.2700	  628.00	  591.34	-1680.78	  380.01
     54.3700	  633.00	  569.50	-1653.94	  380.10
     54.4700	  533.00	  558.06	-1742.50	  380.18
     54.5700	  607.00	  552.34	-1662.78	  380.26
     54.6700	  591.00	  549.61	-1676.05	  380.35
     54.7700	  553.00	  548.58	-1713.02	  380.44
     54.8700	  604.00	  548.62	-1662.06	  380.52
     54.9700	  604.00	  549.50	-1662.94	  380.61
     55.0700	  547.00	  551.13	-1721.57	  380.70
     55.1700	  592.00	  553.56	-1679.00	  380.79
     55.2700	  575.00	  556.80	-1699.24	  380.88
     55.3700	  587.00	  561.00	-1691.44	  380.98
     55.4700	  570.00	  566.40	-1713.84	  381.07
     55.5700	  562.00	  573.42	-1728.86	  381.17
     55.6700	  571.00	  582.93	-1729.37	  381.26
     55.7700	  581.00	  596.72	-1733.16	  381.36
     55.8700	  571.00	  618.32	-1764.76	  381.46
     55.9700	  639.00	  654.26	-1732.70	  381.56
     56.0700	  665.00	  715.29	-1767.73	  381.66
     56.1700	  805.00	  816.65	-1729.09	  381.76
     56.2700	  982.00	  976.04	-1711.48	  381.86
     56.3700	 1182.00	 1208.14	-1743.58	  381.96
     56.4700	 1476.00	 1515.94	-1757.38	  382.07
     56.5700	 1819.00	 1881.14	-1779.58	  382.17
     56.6700	 2141.00	 2256.99	-1833.43	  382.28
     56.7700	 2517.00	 2566.44	-1766.88	  382.38
     56.8700	 2573.00	 2718.44	-1862.88	  382.49
     56.9700	 2659.00	 2655.89	-1714.33	  382.60
     57.0700	 2364.00	 2403.05	-1756.49	  382.71
     57.1700	 2117.00	 2045.11	-1645.55	  382.82
     57.2700	 1662.00	 1669.82	-1725.26	  382.93
     57.3700	 1270.00	 1337.14	-1784.58	  383.04
     57.4700	  994.00	 1076.51	-1799.95	  383.15
     57.5700	  889.00	  892.82	-1721.26	  383.26
     57.6700	  710.00	  775.39	-1782.83	  383.38
     57.7700	  733.00	  707.63	-1692.07	  383.49
     57.8700	  708.00	  674.09	-1683.54	  383.61
     57.9700	  645.00	  664.01	-1736.45	  383.72
     58.0700	  692.00	  671.68	-1697.12	  383.84
     58.1700	  703.00	  695.21	-1709.65	  383.96
     58.2700	  761.00	  734.60	-1691.04	  384.08
     58.3700	  837.00	  789.93	-1670.37	  384.19
     58.4700	  871.00	  859.73	-1706.17	  384.31
     58.5700	 1066.00	  939.53	-1590.97	  384.43
     58.6700	 1135.00	 1021.41	-1603.85	  384.56
     58.7700	 1222.00	 1096.42	-1591.86	  384.68
     58.8700	 1334.00	 1158.54	-1541.98	  384.80
     58.9700	 1401.00	 1204.19	-1520.64	  384.92
     59.0700	 1487.00	 1228.40	-1458.84	  385.05
     59.1700	 1503.00	 1227.19	-1441.63	  385.17
     59.2700	 1419.00	 1204.89	-1503.33	  385.30
     59.3700	 1340.00	 1173.71	-1551.15	  385.42
     59.4700	 1204.00	 1145.69	-1659.13	  385.55
     59.5700	 1108.00	 1129.05	-1738.49	  385.68
     59.6700	 1171.00	 1131.07	-1677.51	  385.80
     59.7700	 1169.00	 1159.91	-1708.35	  385.93
     59.8700	 1257.00	 1220.14	-1680.58	  386.06
     59.9700	 1322.00	 1306.69	-1702.13	  386.19
     60.0700	 1411.00	 1402.19	-1708.63	  386.32
     60.1700	 1578.00	 1477.99	-1617.43	  386.45
     60.2700	 1612.00	 1501.72	-1607.16	  386.58
     60.3700	 1529.00	 1454.94	-1643.39	  386.71
     60.4700	 1429.00	 1346.48	-1634.92	  386.84
     60.5700	 1262.00	 1203.97	-1659.41	  386.98
     60.6700	 1150.00	 1055.87	-1623.31	  387.11
     60.7700	  881.00	  922.61	-1759.05	  387.24
     60.8700	  835.00	  815.38	-1697.82	  387.38
     60.9700	  755.00	  737.84	-1700.28	  387.51
     61.0700	  672.00	  688.62	-1734.06	  387.65
     61.1700	  691.00	  664.38	-1690.82	  387.78
     61.2700	  631.00	  662.54	-1748.98	  387.92
     61.3700	  619.00	  682.78	-1781.22	  388.05
     61.4700	  712.00	  727.14	-1732.58	  388.19
     61.5700	  710.00	  798.66	-1806.10	  388.33
     61.6700	  896.00	  898.92	-1720.36	  388.46
     61.7700	  957.00	 1025.21	-1785.65	  388.60
     61.8700	 1127.00	 1167.76	-1758.20	  388.74
     61.9700	 1232.00	 1308.32	-1793.76	  388.88
     62.0700	 1421.00	 1420.30	-1716.74	  389.02
     62.1700	 1382.00	 1474.29	-1809.73	  389.15
     62.2700	 1329.00	 1452.47	-1840.91	  389.29
     62.3700	 1307.00	 1361.59	-1772.03	  389.43
     62.4700	 1162.00	 1227.81	-1783.25	  389.57
     62.5700	  997.00	 1080.31	-1800.75	  389.71
     62.6700	  870.00	  941.41	-1788.85	  389.85
     62.7700	  755.00	  824.34	-1786.78	  389.99
     62.8700	  674.00	  734.33	-1777.77	  390.13
     62.9700	  642.00	  670.47	-1745.91	  390.27
     63.0700	  576.00	  628.29	-1769.73	  390.42
     63.1700	  622.00	  602.12	-1697.56	  390.56
     63.2700	  595.00	  586.85	-1709.29	  390.70
     63.3700	  585.00	  578.73	-1711.17	  390.84
     63.4700	  599.00	  575.60	-1694.04	  390.98
     63.5700	  632.00	  576.75	-1662.19	  391.13
     63.6700	  600.00	  582.68	-1700.12	  391.27
     63.7700	  611.00	  594.89	-1701.33	  391.41
     63.8700	  597.00	  615.48	-1735.92	  391.55
     63.9700	  673.00	  646.63	-1691.07	  391.70
     64.0700	  730.00	  689.75	-1677.19	  391.84
     64.1700	  804.00	  744.53	-1657.97	  391.98
     64.2700	  930.00	  807.98	-1595.42	  392.12
     64.3700	  917.00	  873.83	-1674.27	  392.27
     64.4700	  976.00	  932.46	-1673.91	  392.41
     64.5700	 1036.00	  972.33	-1653.77	  392.55
     64.6700	  979.00	  985.94	-1724.38	  392.70
     64.7700	 1031.00	  971.13	-1657.57	  392.84
     64.8700	 1003.00	  933.07	-1647.51	  392.98
     64.9700	  891.00	  880.77	-1707.21	  393.13
     65.0700	  870.00	  823.95	-1671.39	  393.27
     65.1700	  770.00	  770.26	-1717.70	  393.41
     65.2700	  712.00	  723.87	-1729.31	  393.56
     65.3700	  680.00	  685.73	-1723.17	  393.70
     65.4700	  610.00	  654.95	-1762.39	  393.84
     65.5700	  616.00	  630.28	-1731.72	  393.99
     65.6700	  597.00	  610.75	-1731.19	  394.13
     65.7700	  585.00	  595.65	-1728.09	  394.27
     65.8700	  562.00	  584.40	-1739.84	  394.42
     65.9700	  578.00	  576.49	-1715.94	  394.56
     66.0700	  545.00	  571.45	-1743.89	  394.70
     66.1700	  554.00	  568.82	-1732.27	  394.85
     66.2700	  562.00	  568.19	-1723.63	  394.99
     66.3700	  556.00	  569.21	-1730.65	  395.13
     66.4700	  555.00	  571.68	-1734.12	  395.27
     66.5700	  552.00	  575.78	-1741.22	  395.42
     66.6700	  547.00	  581.68	-1752.12	  395.56
     66.7700	  548.00	  590.44	-1759.88	  395.70
     66.8700	  611.00	  603.91	-1710.35	  395.84
     66.9700	  605.00	  625.22	-1737.66	  395.98
     67.0700	  680.00	  659.32	-1696.76	  396.12
     67.1700	  716.00	  713.17	-1714.61	  396.26
     67.2700	  763.00	  795.44	-1749.88	  396.41
     67.3700	  894.00	  915.28	-1738.72	  396.55
     67.4700	 1077.00	 1079.97	-1720.41	  396.69
     67.5700	 1295.00	 1291.35	-1713.79	  396.83
     67.6700	 1534.00	 1542.98	-1726.42	  396.97
     67.7700	 1796.00	 1817.16	-1738.60	  397.11
     67.8700	 2098.00	 2083.44	-1702.88	  397.24
     67.9700	 2359.00	 2300.51	-1658.95	  397.38
     68.0700	 2478.00	 2422.71	-1662.15	  397.52
     68.1700	 2414.00	 2418.38	-1721.82	  397.66
     68.2700	 2273.00	 2288.67	-1733.11	  397.80
     68.3700	 2040.00	 2067.08	-1744.52	  397.94
     68.4700	 1834.00	 1799.18	-1682.62	  398.07
     68.5700	 1581.00	 1526.10	-1662.54	  398.21
     68.6700	 1289.00	 1277.20	-1705.64	  398.35
     68.7700	 1083.00	 1069.41	-1703.85	  398.48
     68.8700	  870.00	  908.51	-1755.95	  398.62
     68.9700	  788.00	  792.03	-1721.47	  398.75
     69.0700	  715.00	  712.51	-1714.95	  398.89
     69.1700	  670.00	  660.79	-1708.23	  399.02
     69.2700	  630.00	  628.25	-1715.69	  399.16
     69.3700	  590.00	  608.09	-1735.53	  399.29
     69.4700	  578.00	  595.49	-1734.93	  399.42
     69.5700	  607.00	  587.38	-1697.82	  399.55
     69.6700	  578.00	  581.94	-1721.38	  399.69
     69.7700	  577.00	  578.19	-1718.64	  399.82
     69.8700	  575.00	  575.60	-1718.04	  399.95
     69.9700	  558.00	  573.90	-1733.34	  400.08
     70.0700	  583.00	  572.96	-1707.40	  400.21
     70.1700	  555.00	  572.76	-1735.20	  400.34
     70.2700	  561.00	  573.28	-1729.72	  400.47
     70.3700	  595.00	  574.66	-1697.10	  400.59
     70.4700	  588.00	  577.15	-1706.59	  400.72
     70.5700	  548.00	  581.26	-1750.70	  400.85
     70.6700	  568.00	  587.93	-1737.37	  400.98
     70.7700	  605.00	  598.71	-1711.15	  401.10
     70.8700	  558.00	  616.13	-1775.57	  401.23
     70.9700	  591.00	  643.81	-1770.25	  401.35
     71.0700	  706.00	  686.59	-1698.03	  401.48
     71.1700	  756.00	  750.09	-1711.53	  401.60
     71.2700	  772.00	  839.92	-1785.36	  401.72
     71.3700	  896.00	  960.08	-1781.52	  401.84
     71.4700	 1141.00	 1111.15	-1687.59	  401.97
     71.5700	 1233.00	 1289.23	-1773.67	  402.09
     71.6700	 1429.00	 1481.32	-1769.76	  402.21
     71.7700	 1647.00	 1669.68	-1740.12	  402.33
     71.8700	 1812.00	 1829.24	-1734.68	  402.44
     71.9700	 1944.00	 1931.87	-1705.31	  402.56
     72.0700	 1898.00	 1955.03	-1774.47	  402.68
     72.1700	 1893.00	 1893.15	-1717.59	  402.80
     72.2700	 1804.00	 1760.95	-1674.39	  402.91
     72.3700	 1576.00	 1584.98	-1726.42	  403.03
     72.4700	 1451.00	 1392.23	-1658.67	  403.14
     72.5700	 1260.00	 1205.69	-1663.13	  403.25
     72.6700	 1110.00	 1040.00	-1647.44	  403.37
     72.7700	  961.00	  903.12	-1659.56	  403.48
     72.8700	  916.00	  796.94	-1598.38	  403.59
     72.9700	  759.00	  719.04	-1677.48	  403.70
     73.0700	  791.00	  664.58	-1591.02	  403.81
     73.1700	  725.00	  627.90	-1620.35	  403.92
     73.2700	  624.00	  603.82	-1697.26	  404.03
     73.3700	  642.00	  588.14	-1663.58	  404.13
     73.4700	  607.00	  577.87	-1688.31	  404.24
     73.5700	  611.00	  571.02	-1677.46	  404.34
     73.6700	  587.00	  566.40	-1696.84	  404.45
     73.7700	  568.00	  563.31	-1712.75	  404.55
     73.8700	  605.00	  561.35	-1673.80	  404.65
     73.9700	  619.00	  560.32	-1658.76	  404.76
     74.0700	  631.00	  560.04	-1646.48	  404.86
     74.1700	  627.00	  560.34	-1650.78	  404.96
     74.2700	  632.00	  561.02	-1646.46	  405.06
     74.3700	  645.00	  561.82	-1634.26	  405.15
     74.4700	  592.00	  562.46	-1687.90	  405.25
     74.5700	  645.00	  562.62	-1635.06	  405.35
     74.6700	  627.00	  562.10	-1652.54	  405.44
     74.7700	  621.00	  560.85	-1657.29	  405.54
     74.8700	  638.00	  559.04	-1638.48	  405.63
     74.9700	  646.00	  556.99	-1628.43	  405.72
     75.0700	  620.00	  555.05	-1652.49	  405.81
     75.1700	  588.00	  553.57	-1683.01	  405.90
     75.2700	  561.00	  552.88	-1709.32	  405.99
     75.3700	  569.00	  553.45	-1701.89	  406.08
     75.4700	  579.00	  555.74	-1694.18	  406.17
     75.5700	  557.00	  560.22	-1720.66	  406.25
     75.6700	  581.00	  567.32	-1703.76	  406.34
     75.7700	  626.00	  577.67	-1669.11	  406.42
     75.8700	  561.00	  591.46	-1747.90	  406.50
     75.9700	  609.00	  608.61	-1717.05	  406.59
     76.0700	  653.00	  628.54	-1692.98	  406.67
     76.1700	  661.00	  650.08	-1706.52	  406.75
     76.2700	  688.00	  671.38	-1700.82	  406.82
     76.3700	  684.00	  690.07	-1723.51	  406.90
     76.4700	  687.00	  703.40	-1733.84	  406.98
     76.5700	  676.00	  708.94	-1750.38	  407.05
     76.6700	  672.00	  705.53	-1750.97	  407.13
     76.7700	  764.00	  693.86	-1647.30	  407.20
     76.8700	  634.00	  676.10	-1759.54	  407.27
     76.9700	  690.00	  654.79	-1682.23	  407.34
     77.0700	  617.00	  632.81	-1733.25	  407.41
     77.1700	  598.00	  611.96	-1731.40	  407.48
     77.2700	  617.00	  593.57	-1694.02	  407.55
     77.3700	  547.00	  578.34	-1748.78	  407.61
     77.4700	  553.00	  566.41	-1730.85	  407.68
     77.5700	  498.00	  557.53	-1776.97	  407.74
     77.6700	  529.00	  551.22	-1739.66	  407.80
     77.7700	  517.00	  546.92	-1747.36	  407.86
     77.8700	  574.00	  544.08	-1687.52	  407.92
     77.9700	  545.00	  542.24	-1714.68	  407.98
     78.0700	  480.00	  541.07	-1778.51	  408.04
     78.1700	  506.00	  540.32	-1751.76	  408.10
     78.2700	  536.00	  539.85	-1721.29	  408.15
     78.3700	  503.00	  539.55	-1753.99	  408.20
     78.4700	  467.00	  539.39	-1789.83	  408.26
     78.5700	  530.00	  539.33	-1726.77	  408.31
     78.6700	  514.00	  539.37	-1742.81	  408.36
     78.7700	  542.00	  539.52	-1714.96	  408.41
     78.8700	  559.00	  539.81	-1698.25	  408.45
     78.9700	  524.00	  540.26	-1733.70	  408.50
     79.0700	  485.00	  540.92	-1773.36	  408.54
     79.1700	  532.00	  541.84	-1727.28	  408.59
     79.2700	  532.00	  543.07	-1728.51	  408.63
     79.3700	  553.00	  544.49	-1708.94	  408.67
     79.4700	  512.00	  546.53	-1751.97	  408.71
     79.5700	  511.00	  549.05	-1755.49	  408.75
     79.6700	  519.00	  552.12	-1750.57	  408.78
     79.7700	  603.00	  555.85	-1670.29	  408.82
     79.8700	  555.00	  560.35	-1722.79	  408.85
     79.9700	  542.00	  565.76	-1741.20	  408.89
     80.0700	  544.00	  572.30	-1745.74	  408.92
     80.1700	  606.00	  580.26	-1691.70	  408.95
     80.2700	  583.00	  589.94	-1724.38	  408.98
     80.3700	  573.00	  601.65	-1746.09	  409.00
     80.4700	  575.00	  615.52	-1757.96	  409.03
     80.5700	  606.00	  631.44	-1742.88	  409.05
     80.6700	  630.00	  648.99	-1736.43	  409.08
     80.7700	  658.00	  667.36	-1726.80	  409.10
     80.8700	  677.00	  685.45	-1725.89	  409.12
     80.9700	  662.00	  701.96	-1757.40	  409.14
     81.0700	  686.00	  715.71	-1747.15	  409.16
     81.1700	  760.00	  725.74	-1683.19	  409.17
     81.2700	  770.00	  731.45	-1678.89	  409.19
     81.3700	  762.00	  732.49	-1687.93	  409.20
     81.4700	  802.00	  728.93	-1644.37	  409.21
     81.5700	  747.00	  721.10	-1691.55	  409.22
     81.6700	  767.00	  709.58	-1660.02	  409.23
     81.7700	  750.00	  695.07	-1662.51	  409.24
     81.8700	  730.00	  678.50	-1665.94	  409.24
     81.9700	  708.00	  660.97	-1670.41	  409.25
     82.0700	  675.00	  643.53	-1685.98	  409.25
     82.1700	  659.00	  626.98	-1685.42	  409.25
     82.2700	  644.00	  611.95	-1685.39	  409.25
     82.3700	  632.00	  598.68	-1684.12	  409.25
     82.4700	  601.00	  587.31	-1703.75	  409.25
     82.5700	  606.00	  577.88	-1689.32	  409.25
     82.6700	  563.00	  570.35	-1724.79	  409.24
     82.7700	  552.00	  564.69	-1730.13	  409.23
     82.8700	  551.00	  560.80	-1727.24	  409.22
     82.9700	  555.00	  558.56	-1721.00	  409.21
     83.0700	  510.00	  557.87	-1765.31	  409.20
     83.1700	  554.00	  558.60	-1722.04	  409.19
     83.2700	  553.00	  560.63	-1725.07	  409.17
     83.3700	  582.00	  563.76	-1699.20	  409.16
     83.4700	  540.00	  567.73	-1745.17	  409.14
     83.5700	  509.00	  572.22	-1780.66	  409.12
     83.6700	  540.00	  576.80	-1754.24	  409.10
     83.7700	  565.00	  580.96	-1733.40	  409.08
     83.8700	  587.00	  584.18	-1714.62	  409.05
     83.9700	  542.00	  585.94	-1761.38	  409.03
     84.0700	  545.00	  585.91	-1758.35	  409.00
     84.1700	  580.00	  584.03	-1721.47	  408.97
     84.2700	  596.00	  580.57	-1702.01	  408.94
     84.3700	  584.00	  575.97	-1709.41	  408.91
     84.4700	  577.00	  570.73	-1711.17	  408.88
     84.5700	  542.00	  565.31	-1740.75	  408.84
     84.6700	  541.00	  560.09	-1736.53	  408.81
     84.7700	  518.00	  555.32	-1754.76	  408.77
     84.8700	  522.00	  551.19	-1746.63	  408.73
     84.9700	  539.00	  547.76	-1726.20	  408.69
     85.0700	  506.00	  545.05	-1756.49	  408.65
     85.1700	  506.00	  542.99	-1754.43	  408.60
     85.2700	  497.00	  541.51	-1761.95	  408.56
     85.3700	  546.00	  540.50	-1711.94	  408.51
     85.4700	  540.00	  539.88	-1717.32	  408.46
     85.5700	  504.00	  539.59	-1753.03	  408.41
     85.6700	  533.00	  539.58	-1724.02	  408.36
     85.7700	  541.00	  539.86	-1716.30	  408.31
     85.8700	  566.00	  540.46	-1691.90	  408.25
     85.9700	  524.00	  541.45	-1734.89	  408.20
     86.0700	  552.00	  542.95	-1708.39	  408.14
     86.1700	  526.00	  545.11	-1736.55	  408.08
     86.2700	  550.00	  548.11	-1715.55	  408.02
     86.3700	  536.00	  552.13	-1733.58	  407.96
     86.4700	  526.00	  557.36	-1748.80	  407.89
     86.5700	  547.00	  563.90	-1734.34	  407.83
     86.6700	  582.00	  571.79	-1707.23	  407.76
     86.7700	  588.00	  580.92	-1710.36	  407.69
     86.8700	  639.00	  590.70	-1669.14	  407.62
     86.9700	  569.00	  601.33	-1749.77	  407.55
     87.0700	  615.00	  611.85	-1714.29	  407.47
     87.1700	  621.00	  621.47	-1717.91	  407.40
     87.2700	  668.00	  629.32	-1678.76	  407.32
     87.3700	  685.00	  634.53	-1666.97	  407.24
     87.4700	  627.00	  636.46	-1726.90	  407.16
     87.5700	  632.00	  634.88	-1720.32	  407.08
     87.6700	  620.00	  630.10	-1727.54	  407.00
     87.7700	  638.00	  622.82	-1702.26	  406.92
     87.8700	  682.00	  613.96	-1649.40	  406.83
     87.9700	  621.00	  604.47	-1700.91	  406.74
     88.0700	  597.00	  595.22	-1715.66	  406.65
     88.1700	  617.00	  586.94	-1687.38	  406.56
     88.2700	  595.00	  580.18	-1702.62	  406.47
     88.3700	  557.00	  575.32	-1735.76	  406.37
     88.4700	  575.00	  572.52	-1714.96	  406.28
     88.5700	  587.00	  571.80	-1702.24	  406.18
     88.6700	  636.00	  572.99	-1654.43	  406.08
     88.7700	  555.00	  575.79	-1738.23	  405.98
     88.8700	  624.00	  579.79	-1673.23	  405.88
     88.9700	  559.00	  584.50	-1742.95	  405.78
     89.0700	  609.00	  589.36	-1697.80	  405.67
     89.1700	  605.00	  593.75	-1706.19	  405.57
     89.2700	  668.00	  597.09	-1646.53	  405.46
     89.3700	  584.00	  598.86	-1732.30	  405.35
     89.4700	  587.00	  598.74	-1729.18	  405.24
     89.5700	  614.00	  596.69	-1700.13	  405.12
     89.6700	  607.00	  592.93	-1703.37	  405.01
     89.7700	  576.00	  587.88	-1729.32	  404.89
     89.8700	  585.00	  582.02	-1714.46	  404.78
     89.9700	  548.00	  575.82	-1745.26	  404.66
     90.0700	  546.00	  569.68	-1741.12	  404.54
     90.1700	  555.00	  563.92	-1726.36	  404.42
     90.2700	  548.00	  558.76	-1728.20	  404.29
     90.3700	  537.00	  554.33	-1734.77	  404.17
     90.4700	  527.00	  550.70	-1741.14	  404.04
     90.5700	  505.00	  547.84	-1760.28	  403.91
     90.6700	  567.00	  545.70	-1696.14	  403.78
     90.7700	  540.00	  544.19	-1721.63	  403.65
     90.8700	  505.00	  543.24	-1755.68	  403.52
     90.9700	  509.00	  542.76	-1751.20	  403.39
     91.0700	  514.00	  542.68	-1746.13	  403.25
     91.1700	  545.00	  543.00	-1715.44	  403.11
     91.2700	  537.00	  543.71	-1724.15	  402.98
     91.3700	  475.00	  544.86	-1787.31	  402.84
     91.4700	  536.00	  546.55	-1727.99	  402.69
     91.5700	  534.00	  548.90	-1732.34	  402.55
     91.6700	  526.00	  552.09	-1743.53	  402.41
     91.7700	  541.00	  556.30	-1732.74	  402.26
     91.8700	  543.00	  561.75	-1736.19	  402.11
     91.9700	  544.00	  568.66	-1742.10	  401.97
     92.0700	  564.00	  576.99	-1730.43	  401.82
     92.1700	  559.00	  587.31	-1745.75	  401.66
     92.2700	  594.00	  599.47	-1722.91	  401.51
     92.3700	  570.00	  613.41	-1760.85	  401.36
     92.4700	  640.00	  628.97	-1706.41	  401.20
     92.5700	  632.00	  645.82	-1731.27	  401.04
     92.6700	  667.00	  663.54	-1713.98	  400.88
     92.7700	  687.00	  681.53	-1711.97	  400.72
     92.8700	  707.00	  699.10	-1709.54	  400.56
     92.9700	  731.00	  715.56	-1702.00	  400.40
     93.0700	  749.00	  730.29	-1698.73	  400.24
     93.1700	  717.00	  742.98	-1743.42	  400.07
     93.2700	  779.00	  753.68	-1692.13	  399.90
     93.3700	  810.00	  762.77	-1670.21	  399.73
     93.4700	  781.00	  770.78	-1707.22	  399.56
     93.5700	  832.00	  778.29	-1663.73	  399.39
     93.6700	  836.00	  785.77	-1667.21	  399.22
     93.7700	  861.00	  793.65	-1650.09	  399.05
     93.8700	  876.00	  802.37	-1643.81	  398.87
     93.9700	  846.00	  812.34	-1683.78	  398.69
     94.0700	  916.00	  823.96	-1625.40	  398.52
     94.1700	  896.00	  837.40	-1658.84	  398.34
     94.2700	  886.00	  852.47	-1683.91	  398.16
     94.3700	  904.00	  868.59	-1682.03	  397.97
     94.4700	  846.00	  884.68	-1756.12	  397.79
     94.5700	  941.00	  899.28	-1675.73	  397.61
     94.6700	  903.00	  910.65	-1725.09	  397.42
     94.7700	  921.00	  916.96	-1713.41	  397.23
     94.8700	  881.00	  916.76	-1753.20	  397.05
     94.9700	  893.00	  909.25	-1733.69	  396.86
     95.0700	  879.00	  894.61	-1733.05	  396.67
     95.1700	  881.00	  873.91	-1710.35	  396.47
     95.2700	  850.00	  848.84	-1716.28	  396.28
     95.3700	  788.00	  821.33	-1750.77	  396.09
     95.4700	  816.00	  793.39	-1694.84	  395.89
     95.5700	  776.00	  766.91	-1708.35	  395.69
     95.6700	  726.00	  743.61	-1735.05	  395.50
     95.7700	  697.00	  725.09	-1745.53	  395.30
     95.8700	  697.00	  712.75	-1733.19	  395.10
     95.9700	  676.00	  707.83	-1749.27	  394.90
     96.0700	  700.00	  711.40	-1728.84	  394.69
     96.1700	  702.00	  724.38	-1739.82	  394.49
     96.2700	  753.00	  747.47	-1711.91	  394.28
     96.3700	  722.00	  781.09	-1776.53	  394.08
     96.4700	  860.00	  825.33	-1682.77	  393.87
     96.5700	  878.00	  879.80	-1719.24	  393.66
     96.6700	  984.00	  943.59	-1677.03	  393.45
     96.7700	 1013.00	 1015.14	-1719.58	  393.24
     96.8700	 1061.00	 1092.16	-1748.60	  393.03
     96.9700	 1118.00	 1171.66	-1771.10	  392.82
     97.0700	 1232.00	 1249.93	-1735.37	  392.61
     97.1700	 1286.00	 1322.72	-1754.16	  392.39
     97.2700	 1418.00	 1385.39	-1684.83	  392.18
     97.3700	 1413.00	 1433.36	-1737.80	  391.96
     97.4700	 1459.00	 1462.75	-1721.19	  391.74
     97.5700	 1466.00	 1471.16	-1722.60	  391.52
     97.6700	 1443.00	 1458.19	-1732.63	  391.30
     97.7700	 1372.00	 1425.52	-1770.96	  391.08
     97.8700	 1353.00	 1376.45	-1740.89	  390.86
     97.9700	 1319.00	 1315.15	-1713.59	  390.64
     98.0700	 1200.00	 1246.10	-1763.54	  390.42
     98.1700	 1186.00	 1173.61	-1705.05	  390.19
     98.2700	 1089.00	 1101.67	-1730.11	  389.97
     98.3700	 1061.00	 1033.72	-1690.16	  389.74
     98.4700	  950.00	  972.62	-1740.06	  389.51
     98.5700	  941.00	  920.69	-1697.13	  389.29
     98.6700	  838.00	  879.69	-1759.13	  389.06
     98.7700	  827.00	  850.93	-1741.37	  388.83
     98.8700	  749.00	  835.35	-1803.79	  388.60
     98.9700	  796.00	  833.59	-1755.03	  388.37
     99.0700	  827.00	  846.02	-1736.46	  388.14
     99.1700	  832.00	  872.80	-1758.24	  387.90
     99.2700	  898.00	  913.92	-1733.36	  387.67
     99.3700	  975.00	  969.09	-1711.54	  387.44
     99.4700	 1048.00	 1037.75	-1707.19	  387.20
     99.5700	 1088.00	 1118.93	-1748.37	  386.97
     99.6700	 1193.00	 1211.16	-1735.60	  386.73
     99.7700	 1324.00	 1312.40	-1705.84	  386.49
     99.8700	 1370.00	 1419.96	-1767.40	  386.26
     99.9700	 1512.00	 1530.42	-1735.86	  386.02
    100.0700	 1689.00	 1639.74	-1668.18	  385.78
    100.1700	 1774.00	 1743.45	-1686.89	  385.54
    100.2700	 1780.00	 1837.09	-1774.53	  385.30
    100.3700	 1876.00	 1916.72	-1758.16	  385.06
    100.4700	 2051.00	 1979.22	-1645.66	  384.82
    100.5700	 2034.00	 2022.47	-1705.91	  384.58
    100.6700	 2137.00	 2045.13	-1625.57	  384.34
    100.7700	 2082.00	 2046.42	-1681.86	  384.09
    100.8700	 2018.00	 2026.19	-1725.63	  383.85
    100.9700	 2021.00	 1985.17	-1681.61	  383.61
    101.0700	 1986.00	 1925.36	-1656.80	  383.36
    101.1700	 1867.00	 1850.14	-1700.58	  383.12
    101.2700	 1801.00	 1764.01	-1680.45	  382.87
    101.3700	 1679.00	 1672.01	-1710.45	  382.63
    101.4700	 1542.00	 1579.17	-1754.61	  382.38
    101.5700	 1539.00	 1489.90	-1668.34	  382.13
    101.6700	 1436.00	 1407.76	-1689.20	  381.89
    101.7700	 1377.00	 1335.25	-1675.69	  381.64
    101.8700	 1335.00	 1273.81	-1656.25	  381.39
    101.9700	 1175.00	 1223.82	-1766.26	  381.15
    102.0700	 1226.00	 1184.65	-1676.09	  380.90
    102.1700	 1099.00	 1154.83	-1773.27	  380.65
    102.2700	 1163.00	 1132.22	-1686.66	  380.40
    102.3700	 1113.00	 1114.17	-1718.61	  380.15
    102.4700	 1051.00	 1097.89	-1764.33	  379.90
    102.5700	 1064.00	 1080.75	-1734.19	  379.66
    102.6700	 1093.00	 1060.64	-1685.08	  379.41
    102.7700	 1010.00	 1036.24	-1743.68	  379.16
    102.8700	  997.00	 1007.10	-1727.54	  378.91
    102.9700	  977.00	  973.56	-1714.00	  378.66
    103.0700	  917.00	  936.49	-1736.93	  378.41
    103.1700	  885.00	  897.09	-1729.53	  378.16
    103.2700	  865.00	  856.64	-1709.08	  377.91
    103.3700	  845.00	  816.39	-1688.83	  377.66
    103.4700	  810.00	  777.49	-1684.93	  377.41
    103.5700	  716.00	  740.86	-1742.30	  377.16
    103.6700	  768.00	  707.23	-1656.67	  376.91
    103.7700	  675.00	  677.12	-1719.56	  376.66
    103.8700	  683.00	  650.77	-1685.21	  376.41
    103.9700	  602.00	  628.26	-1743.70	  376.16
    104.0700	  605.00	  609.46	-1721.90	  375.91
    104.1700	  573.00	  594.14	-1738.58	  375.66
    104.2700	  603.00	  581.95	-1696.39	  375.41
    104.3700	  586.00	  572.51	-1703.95	  375.16
    104.4700	  570.00	  565.44	-1712.88	  374.91
    104.5700	  562.00	  560.33	-1715.77	  374.67
    104.6700	  556.00	  556.84	-1718.28	  374.42
    104.7700	  539.00	  554.67	-1733.11	  374.17
    104.8700	  560.00	  553.55	-1710.99	  373.92
    104.9700	  553.00	  553.27	-1717.71	  373.67
    105.0700	  522.00	  553.67	-1749.11	  373.43
    105.1700	  548.00	  554.64	-1724.08	  373.18
    105.2700	  556.00	  556.09	-1717.53	  372.93
    105.3700	  550.00	  558.02	-1725.46	  372.69
    105.4700	  521.00	  560.42	-1756.86	  372.44
    105.5700	  575.00	  563.32	-1705.77	  372.20
    105.6700	  589.00	  566.81	-1695.25	  371.95
    105.7700	  590.00	  570.98	-1698.42	  371.71
    105.8700	  553.00	  575.93	-1740.37	  371.47
    105.9700	  569.00	  581.75	-1730.19	  371.22
    106.0700	  580.00	  588.50	-1725.94	  370.98
    106.1700	  576.00	  596.20	-1737.64	  370.74
    106.2700	  631.00	  604.80	-1691.24	  370.50
    106.3700	  629.00	  614.20	-1702.64	  370.26
    106.4700	  615.00	  624.23	-1726.67	  370.02
    106.5700	  598.00	  634.63	-1754.07	  369.78
    106.6700	  638.00	  645.13	-1724.57	  369.54
    106.7700	  642.00	  655.35	-1730.79	  369.30
    106.8700	  666.00	  664.93	-1716.37	  369.07
    106.9700	  664.00	  673.47	-1726.91	  368.83
    107.0700	  697.00	  680.61	-1701.05	  368.60
    107.1700	  636.00	  686.07	-1767.51	  368.36
    107.2700	  673.00	  689.71	-1734.16	  368.13
    107.3700	  685.00	  691.57	-1724.01	  367.90
    107.4700	  676.00	  691.85	-1733.29	  367.67
    107.5700	  666.00	  690.89	-1742.33	  367.44
    107.6700	  684.00	  689.13	-1722.57	  367.21
    107.7700	  645.00	  687.01	-1759.45	  366.98
    107.8700	  706.00	  684.95	-1696.39	  366.75
    107.9700	  734.00	  683.30	-1666.74	  366.52
    108.0700	  710.00	  682.28	-1689.72	  366.30
    108.1700	  687.00	  682.03	-1712.47	  366.08
    108.2700	  679.00	  682.55	-1720.99	  365.85
    108.3700	  681.00	  683.73	-1720.17	  365.63
    108.4700	  670.00	  685.32	-1732.76	  365.41
    108.5700	  708.00	  687.01	-1696.45	  365.19
    108.6700	  687.00	  688.40	-1718.84	  364.98
    108.7700	  674.00	  689.07	-1732.51	  364.76
    108.8700	  716.00	  688.60	-1690.04	  364.54
    108.9700	  655.00	  686.66	-1749.10	  364.33
    109.0700	  663.00	  683.03	-1737.47	  364.12
    109.1700	  660.00	  677.66	-1735.10	  363.91
    109.2700	  719.00	  670.64	-1669.08	  363.70
    109.3700	  652.00	  662.19	-1727.63	  363.49
    109.4700	  610.00	  652.60	-1760.04	  363.29
    109.5700	  630.00	  642.23	-1729.67	  363.08
    109.6700	  619.00	  631.43	-1729.87	  362.88
    109.7700	  623.00	  620.55	-1714.99	  362.68
    109.8700	  642.00	  609.90	-1685.34	  362.48
    109.9700	  597.00	  599.74	-1720.18	  362.28
    110.0700	  567.00	  590.30	-1740.74	  362.08
    110.1700	  591.00	  581.74	-1708.19	  361.89
    110.2700	  584.00	  574.18	-1707.62	  361.70
    110.3700	  568.00	  567.67	-1717.11	  361.51
    110.4700	  554.00	  562.22	-1725.66	  361.32
    110.5700	  556.00	  557.80	-1719.25	  361.13
    110.6700	  568.00	  554.38	-1703.82	  360.95
    110.7700	  553.00	  551.85	-1716.29	  360.76
    110.8700	  564.00	  550.14	-1703.58	  360.58
    110.9700	  578.00	  549.14	-1688.58	  360.41
    111.0700	  549.00	  548.77	-1717.21	  360.23
    111.1700	  541.00	  548.93	-1725.37	  360.05
    111.2700	  547.00	  549.53	-1719.97	  359.88
    111.3700	  546.00	  550.52	-1721.96	  359.71
    111.4700	  569.00	  551.83	-1700.27	  359.54
    111.5700	  515.00	  553.41	-1755.85	  359.38
    111.6700	  575.00	  555.23	-1697.67	  359.21
    111.7700	  590.00	  557.25	-1684.69	  359.05
    111.8700	  580.00	  559.47	-1696.91	  358.89
    111.9700	  564.00	  561.88	-1715.32	  358.74
    112.0700	  555.00	  564.48	-1726.92	  358.58
    112.1700	  561.00	  567.28	-1723.72	  358.43
    112.2700	  607.00	  570.31	-1680.75	  358.28
    112.3700	  574.00	  573.60	-1717.04	  358.14
    112.4700	  597.00	  577.20	-1697.64	  357.99
    112.5700	  600.00	  581.15	-1698.59	  357.85
    112.6700	  577.00	  585.52	-1725.96	  357.71
    112.7700	  634.00	  590.41	-1673.85	  357.58
    112.8700	  627.00	  595.93	-1686.37	  357.44
    112.9700	  636.00	  602.22	-1683.66	  357.31
    113.0700	  665.00	  609.49	-1661.93	  357.19
    113.1700	  657.00	  617.99	-1678.43	  357.06
    113.2700	  660.00	  628.02	-1685.46	  356.94
    113.3700	  682.00	  640.02	-1675.46	  356.82
    113.4700	  683.00	  654.49	-1688.93	  356.70
    113.5700	  735.00	  672.11	-1654.55	  356.59
    113.6700	  823.00	  693.65	-1588.09	  356.48
    113.7700	  795.00	  720.11	-1642.55	  356.38
    113.8700	  817.00	  752.66	-1653.10	  356.27
    113.9700	  918.00	  792.68	-1592.12	  356.17
    114.0700	  994.00	  841.79	-1565.23	  356.07
    114.1700	  951.00	  901.78	-1668.22	  355.98
    114.2700	 1052.00	  974.68	-1640.12	  355.89
    114.3700	 1122.00	 1062.68	-1658.12	  355.80
    114.4700	 1185.00	 1168.06	-1700.50	  355.72
    114.5700	 1303.00	 1293.17	-1707.61	  355.64
    114.6700	 1552.00	 1440.29	-1605.73	  355.56
    114.7700	 1754.00	 1611.50	-1574.94	  355.49
    114.8700	 1886.00	 1808.62	-1640.06	  355.41
    114.9700	 2187.00	 2032.93	-1563.38	  355.35
    115.0700	 2331.00	 2285.21	-1671.65	  355.29
    115.1700	 2627.00	 2565.35	-1655.79	  355.23
    115.2700	 3022.00	 2872.31	-1567.75	  355.17
    115.3700	 3208.00	 3204.15	-1713.59	  355.12
    115.4700	 3459.00	 3557.58	-1816.02	  355.07
    115.5700	 3802.00	 3928.32	-1843.76	  355.03
    115.6700	 4351.00	 4310.70	-1677.14	  354.99
    115.7700	 4606.00	 4697.83	-1809.27	  354.95
    115.8700	 4898.00	 5081.81	-1901.25	  354.92
    115.9700	 5201.00	 5453.47	-1969.91	  354.89
    116.0700	 5655.00	 5802.97	-1865.41	  354.86
    116.1700	 5907.00	 6119.70	-1930.14	  354.84
    116.2700	 6225.00	 6392.91	-1885.35	  354.83
    116.3700	 6647.00	 6612.39	-1682.83	  354.81
    116.4700	 6676.00	 6769.08	-1810.52	  354.81
    116.5700	 6770.00	 6856.17	-1803.61	  354.80
    116.6700	 6675.00	 6869.76	-1912.20	  354.80
    116.7700	 6851.00	 6809.47	-1675.91	  354.81
    116.8700	 6745.00	 6678.43	-1650.87	  354.82
    116.9700	 6575.00	 6482.94	-1625.38	  354.83
    117.0700	 6385.00	 6231.50	-1563.94	  354.85
    117.1700	 5901.00	 5934.16	-1750.60	  354.87
    117.2700	 5560.00	 5601.58	-1759.02	  354.90
    117.3700	 5251.00	 5244.16	-1710.60	  354.93
    117.4700	 4860.00	 4872.00	-1729.44	  354.97
    117.5700	 4578.00	 4494.10	-1633.54	  355.01
    117.6700	 4173.00	 4118.59	-1663.03	  355.06
    117.7700	 3827.00	 3752.44	-1642.88	  355.11
    117.8700	 3579.00	 3401.23	-1539.67	  355.17
    117.9700	 3133.00	 3069.55	-1653.99	  355.23
    118.0700	 2880.00	 2760.59	-1598.03	  355.30
    118.1700	 2541.00	 2476.55	-1652.99	  355.37
    118.2700	 2189.00	 2218.66	-1747.10	  355.44
    118.3700	 1966.00	 1987.10	-1738.54	  355.52
    118.4700	 1746.00	 1781.49	-1752.93	  355.61
    118.5700	 1590.00	 1600.72	-1728.16	  355.70
    118.6700	 1400.00	 1443.29	-1760.73	  355.80
    118.7700	 1200.00	 1307.40	-1824.84	  355.90
    118.8700	 1116.00	 1190.99	-1792.43	  356.01
    118.9700	 1076.00	 1091.98	-1733.42	  356.12
    119.0700	  948.00	 1008.24	-1777.68	  356.24
    119.1700	  892.00	  937.78	-1763.22	  356.37
    119.2700	  843.00	  878.73	-1753.17	  356.50
    119.3700	  802.00	  829.36	-1744.80	  356.63
    119.4700	  761.00	  788.16	-1744.60	  356.78
    119.5700	  720.00	  753.81	-1751.25	  356.92
    119.6700	  702.00	  725.17	-1740.61	  357.08
    119.7700	  675.00	  701.26	-1743.70	  357.23
    119.8700	  669.00	  681.29	-1729.74	  357.40
    119.9700	  648.00	  664.60	-1734.04	  357.57
    120.0700	  589.00	  650.62	-1779.06	  357.75
    120.1700	  580.00	  638.92	-1776.36	  357.93
    120.2700	  561.00	  629.14	-1785.58	  358.12
    120.3700	  566.00	  620.99	-1772.43	  358.31
    120.4700	  602.00	  614.25	-1729.69	  358.51
    120.5700	  599.00	  608.73	-1727.17	  358.72
    120.6700	  584.00	  604.30	-1737.74	  358.94
    120.7700	  536.00	  600.82	-1782.26	  359.16
    120.8700	  528.00	  598.22	-1787.66	  359.38
    120.9700	  588.00	  596.43	-1725.87	  359.62
    121.0700	  584.00	  595.37	-1728.81	  359.86
    121.1700	  603.00	  595.01	-1709.45	  360.10
    121.2700	  542.00	  595.28	-1770.72	  360.36
    121.3700	  569.00	  596.15	-1744.59	  360.62
    121.4700	  609.00	  597.56	-1706.00	  360.88
    121.5700	  569.00	  599.47	-1747.91	  361.16
    121.6700	  584.00	  601.80	-1735.24	  361.44
    121.7700	  571.00	  604.50	-1750.94	  361.72
    121.8700	  623.00	  607.49	-1701.94	  362.02
    121.9700	  588.00	  610.68	-1740.12	  362.32
    122.0700	  583.00	  614.01	-1748.45	  362.63
    122.1700	  628.00	  617.36	-1706.80	  362.94
    122.2700	  638.00	  620.63	-1700.07	  363.27
    122.3700	  615.00	  623.73	-1726.17	  363.60
    122.4700	  646.00	  626.53	-1697.97	  363.93
    122.5700	  645.00	  628.96	-1701.40	  364.28
    122.6700	  600.00	  630.89	-1748.33	  364.63
    122.7700	  646.00	  632.29	-1703.73	  364.99
    122.8700	  595.00	  633.09	-1755.53	  365.36
    122.9700	  659.00	  633.27	-1691.71	  365.74
    123.0700	  680.00	  632.83	-1670.27	  366.12
    123.1700	  695.00	  631.78	-1654.22	  366.51
    123.2700	  639.00	  630.17	-1708.62	  366.91
    123.3700	  612.00	  628.07	-1733.51	  367.31
    123.4700	  652.00	  625.53	-1690.97	  367.73
    123.5700	  687.00	  622.63	-1653.07	  368.15
    123.6700	  636.00	  619.45	-1700.89	  368.58
    123.7700	  650.00	  616.05	-1683.49	  369.02
    123.8700	  607.00	  612.52	-1722.96	  369.47
    123.9700	  653.00	  608.91	-1673.35	  369.92
    124.0700	  601.00	  605.29	-1721.73	  370.39
    124.1700	  603.00	  601.72	-1716.16	  370.86
    124.2700	  611.00	  598.25	-1704.69	  371.34
    124.3700	  608.00	  594.91	-1704.35	  371.83
    124.4700	  603.00	  591.74	-1706.18	  372.33
    124.5700	  577.00	  588.77	-1729.21	  372.83
    124.6700	  594.00	  586.01	-1709.45	  373.35
    124.7700	  612.00	  583.49	-1688.93	  373.87
    124.8700	  602.00	  581.22	-1696.66	  374.41
    124.9700	  555.00	  493.22	-1655.66	  374.95
    125.0700	  601.00	  493.77	-1717.44	  375.50
    125.1700	  551.00	  494.33	-1717.44	  376.06
    125.2700	  543.00	  494.90	-1717.44	  376.63
    125.3700	  584.00	  495.47	-1717.44	  377.21
    125.4700	  567.00	  496.06	-1717.44	  377.79
    125.5700	  555.00	  496.66	-1717.44	  378.39
    125.6700	  532.00	  497.26	-1717.44	  379.00
    125.7700	  566.00	  497.88	-1717.44	  379.61
    125.8700	  534.00	  498.50	-1717.44	  380.24
    125.9700	  587.00	  499.14	-1717.44	  380.87
    126.0700	  567.00	  499.78	-1717.44	  381.52
    126.1700	  609.00	  500.44	-1717.44	  382.17
    126.2700	  580.00	  501.10	-1717.44	  382.83
    126.3700	  591.00	  501.78	-1717.44	  383.51
    126.4700	  602.00	  502.46	-1717.44	  384.19
    126.5700	  607.00	  503.15	-1717.44	  384.88
    126.6700	  613.00	  503.86	-1717.44	  385.59
    126.7700	  606.00	  504.57	-1717.44	  386.30
    126.8700	  625.00	  505.29	-1717.44	  387.03
    126.9700	  621.00	  506.03	-1717.44	  387.76
    127.0700	  628.00	  506.77	-1717.44	  388.51
    127.1700	  665.00	  507.53	-1717.44	  389.26
    127.2700	  712.00	  508.29	-1717.44	  390.03
    127.3700	  675.00	  509.07	-1717.44	  390.80
    127.4700	  659.00	  509.86	-1717.44	  391.59
    127.5700	  703.00	  510.65	-1717.44	  392.39
    127.6700	  716.00	  511.46	-1717.44	  393.19
    127.7700	  670.00	  512.28	-1717.44	  394.01
    127.8700	  710.00	  513.11	-1717.44	  394.84
    127.9700	  754.00	  513.95	-1717.44	  395.69
    128.0700	  772.00	  514.81	-1717.44	  396.54
    128.1700	  776.00	  515.67	-1717.44	  397.40
    128.2700	  756.00	  516.54	-1717.44	  398.28
    128.3700	  794.00	  517.43	-1717.44	  399.16
    128.4700	  838.00	  518.33	-1717.44	  400.06
    128.5700	    0.00	  519.23	-1717.44	  400.97
    128.6700	    0.00	  520.15	-1717.44	  401.89
     12.3009	        	        	        	        	       0	(  0  0  2)	  0  1
     24.8816	        	        	        	        	       0	(  0  0  4)	  0  1
     28.3255	        	        	        	        	       0	(  1  0  0)	  0  1
     29.0225	        	        	        	        	       0	(  1  0  1)	  0  1
     31.0282	        	        	        	        	       0	(  1  0  2)	  0  1
     34.1356	        	        	        	        	       0	(  1  0  3)	  0  1
     37.7781	        	        	        	        	       0	(  0  0  6)	  0  1
     38.1116	        	        	        	        	       0	(  1  0  4)	  0  1
     42.7605	        	        	        	        	       0	(  1  0  5)	  0  1
     47.9431	        	        	        	        	       0	(  1  0  6)	  0  1
     50.2601	        	        	        	        	       0	(  1  1  0)	  0  1
     51.1965	        	        	        	        	       0	(  0  0  8)	  0  1
     51.9825	        	        	        	        	       0	(  1  1  2)	  0  1
     53.5720	        	        	        	        	       0	(  1  0  7)	  0  1
     56.9288	        	        	        	        	       0	(  1  1  4)	  0  1
     58.7560	        	        	        	        	       0	(  2  0  0)	  0  1
     59.1474	        	        	        	        	       0	(  2  0  1)	  0  1
     59.6006	        	        	        	        	       0	(  1  0  8)	  0  1
     60.3125	        	        	        	        	       0	(  2  0  2)	  0  1
     62.2251	        	        	        	        	       0	(  2  0  3)	  0  1
     64.6211	        	        	        	        	       0	(  1  1  6)	  0  1
     64.8483	        	        	        	        	       0	(  2  0  4)	  0  1
     65.4215	        	        	        	        	       0	(  0  0 10)	  0  1
     66.0149	        	        	        	        	       0	(  1  0  9)	  0  1
     68.1414	        	        	        	        	       0	(  2  0  5)	  0  1
     72.0675	        	        	        	        	       0	(  2  0  6)	  0  1
     72.8288	        	        	        	        	       0	(  1  0 10)	  0  1
     74.6554	        	        	        	        	       0	(  1  1  8)	  0  1
     76.6000	        	        	        	        	       0	(  2  0  7)	  0  1
     80.0838	        	        	        	        	       0	(  1  0 11)	  0  1
     80.8965	        	        	        	        	       0	(  0  0 12)	  0  1
     80.9940	        	        	        	        	       0	(  2  1  0)	  0  1
     81.3338	        	        	        	        	       0	(  2  1  1)	  0  1
     81.7284	        	        	        	        	       0	(  2  0  8)	  0  1
     82.3512	        	        	        	        	       0	(  2  1  2)	  0  1
     84.0419	        	        	        	        	       0	(  2  1  3)	  0  1
     86.4006	        	        	        	        	       0	(  2  1  4)	  0  1
     86.9221	        	        	        	        	       0	(  1  1 10)	  0  1
     87.4641	        	        	        	        	       0	(  2  0  9)	  0  1
     87.8549	        	        	        	        	       0	(  1  0 12)	  0  1
     89.4252	        	        	        	        	       0	(  2  1  5)	  0  1
     93.1210	        	        	        	        	       0	(  2  1  6)	  0  1
     93.8488	        	        	        	        	       0	(  2  0 10)	  0  1
     94.8803	        	        	        	        	       0	(  3  0  0)	  0  1
     95.2175	        	        	        	        	       0	(  3  0  1)	  0  1
     96.2303	        	        	        	        	       0	(  3  0  2)	  0  1
     96.2643	        	        	        	        	       0	(  1  0 13)	  0  1
     97.5077	        	        	        	        	       0	(  2  1  7)	  0  1
     97.9229	        	        	        	        	       0	(  3  0  3)	  0  1
     98.4279	        	        	        	        	       0	(  0  0 14)	  0  1
    100.3048	        	        	        	        	       0	(  3  0  4)	  0  1
    100.9672	        	        	        	        	       0	(  2  0 11)	  0  1
    101.7855	        	        	        	        	       0	(  1  1 12)	  0  1
    102.6276	        	        	        	        	       0	(  2  1  8)	  0  1
    103.3949	        	        	        	        	       0	(  3  0  5)	  0  1
    105.5120	        	        	        	        	       0	(  1  0 14)	  0  1
    107.2281	        	        	        	        	       0	(  3  0  6)	  0  1
    108.5613	        	        	        	        	       0	(  2  1  9)	  0  1
    108.9741	        	        	        	        	       0	(  2  0 12)	  0  1
    111.8659	        	        	        	        	       0	(  3  0  7)	  0  1
    115.4541	        	        	        	        	       0	(  2  1 10)	  0  1
    115.9486	        	        	        	        	       0	(  1  0 15)	  0  1
    116.5998	        	        	        	        	       0	(  2  2  0)	  0  1
    117.4159	        	        	        	        	       0	(  3  0  8)	  0  1
    118.1141	        	        	        	        	       0	(  2  2  2)	  0  1
    118.1524	        	        	        	        	       0	(  2  0 13)	  0  1
    119.9023	        	        	        	        	       0	(  0  0 16)	  0  1
    120.6176	        	        	        	        	       0	(  1  1 14)	  0  1
    122.7966	        	        	        	        	       0	(  2  2  4)	  0  1
    123.5754	        	        	        	        	       0	(  2  1 11)	  0  1
    124.0713	        	        	        	        	       0	(  3  0  9)	  0  1
    124.6620	        	        	        	        	       0	(  3  1  0)	  0  1
    125.0720	        	        	        	        	       0	(  3  1  1)	  0  1
    126.3146	        	        	        	        	       0	(  3  1  2)	  0  1
    128.2815	        	        	        	        	       0	(  1  0 16)	  0  1
    128.4313	        	        	        	        	       0	(  3  1  3)	  0  1
    129.0733	        	        	        	        	       0	(  2  0 14)	  0  1
    131.2302	        	        	        	        	       0	(  2  2  6)	  0  1
    131.5048	        	        	        	        	       0	(  3  1  4)	  0  1
    132.2053	        	        	        	        	       0	(  3  0 10)	  0  1
    133.4790	        	        	        	        	       0	(  2  1 12)	  0  1
    135.6883	        	        	        	        	       0	(  3  1  5)	  0  1
    141.2780	        	        	        	        	       0	(  3  1  6)	  0  1
    142.6725	        	        	        	        	       0	(  3  0 11)	  0  1
    143.1966	        	        	        	        	       0	(  2  0 15)	  0  1
    144.4306	        	        	        	        	       0	(  1  0 17)	  0  1
    145.4492	        	        	        	        	       0	(  2  2  8)	  0  1
    146.6180	        	        	        	        	       0	(  2  1 13)	  0  1
    148.9411	        	        	        	        	       0	(  3  1  7)	  0  1
    149.5181	        	        	        	        	       0	(  1  1 16)	  0  1
    153.9048	        	        	        	        	       0	(  0  0 18)	  0  1
    158.5190	        	        	        	        	       0	(  3  0 12)	  0  1
    158.7853	        	        	        	        	       0	(  4  0  0)	  0  1
    159.7395	        	        	        	        	       0	(  4  0  1)	  0  1
    160.9066	        	        	        	        	       0	(  3  1  8)	  0  1
    162.9074	        	        	        	        	       0	(  4  0  2)	  0  1
    169.5288	        	        	        	        	       0	(  2  0 16)	  0  1
    170.2037	        	        	        	        	       0	(  4  0  3)	  0  1
    173.8720	        	        	        	        	       0	(  2  1 14)	  0  1
