MSG Master    CELL:    5.91934   5.91934  23.27653   90.0000   90.0000  120.0000   SPGR: P 63/m m c             TEMP:   1074.85
  1   1280     2.52000     0.00000    -0.13061     0.00000     0.00000    0
    99     0     2
       0.00000      10.00000
     125.00000     130.00000
 2Theta	Yobs	Ycal	Yobs-Ycal	Backg	Posr	(hkl)	K
      0.7700	    0.00	  582.07	-1742.75	  463.17
      0.8700	    0.00	  582.31	-1742.75	  463.41
      0.9700	   35.00	  582.55	-1742.75	  463.65
      1.0700	   43.00	  582.78	-1742.75	  463.88
      1.1700	   38.00	  583.00	-1742.75	  464.10
      1.2700	   50.00	  583.22	-1742.75	  464.31
      1.3700	   50.00	  583.42	-1742.75	  464.52
      1.4700	   83.00	  583.63	-1742.75	  464.73
      1.5700	  276.00	  583.82	-1742.75	  464.92
      1.6700	  446.00	  584.01	-1742.75	  465.11
      1.7700	  516.00	  584.19	-1742.75	  465.29
      1.8700	  650.00	  584.37	-1742.75	  465.47
      1.9700	  690.00	  584.54	-1742.75	  465.64
      2.0700	  726.00	  584.70	-1742.75	  465.80
      2.1700	  814.00	  584.86	-1742.75	  465.95
      2.2700	  778.00	  585.01	-1742.75	  466.10
      2.3700	  757.00	  585.15	-1742.75	  466.25
      2.4700	  730.00	  585.29	-1742.75	  466.39
      2.5700	  688.00	  585.42	-1742.75	  466.52
      2.6700	  638.00	  585.54	-1742.75	  466.64
      2.7700	  623.00	  585.66	-1742.75	  466.76
      2.8700	  570.00	  585.78	-1742.75	  466.88
      2.9700	  618.00	  585.88	-1742.75	  466.98
      3.0700	  621.00	  585.99	-1742.75	  467.08
      3.1700	  527.00	  586.08	-1742.75	  467.18
      3.2700	  632.00	  586.17	-1742.75	  467.27
      3.3700	  655.00	  586.25	-1742.75	  467.35
      3.4700	  755.00	  586.33	-1742.75	  467.43
      3.5700	  829.00	  586.41	-1742.75	  467.50
      3.6700	  834.00	  586.47	-1742.75	  467.57
      3.7700	  952.00	  586.53	-1742.75	  467.63
      3.8700	 1023.00	  586.59	-1742.75	  467.69
      3.9700	  943.00	  586.64	-1742.75	  467.74
      4.0700	 1025.00	  586.69	-1742.75	  467.79
      4.1700	 1065.00	  586.73	-1742.75	  467.83
      4.2700	 1106.00	  586.76	-1742.75	  467.86
      4.3700	 1121.00	  586.79	-1742.75	  467.89
      4.4700	 1072.00	  586.81	-1742.75	  467.91
      4.5700	 1039.00	  586.83	-1742.75	  467.93
      4.6700	 1028.00	  586.85	-1742.75	  467.95
      4.7700	 1018.00	  586.86	-1742.75	  467.95
      4.8700	  998.00	  586.86	-1742.75	  467.96
      4.9700	  987.00	  586.86	-1742.75	  467.96
      5.0700	  968.00	  586.85	-1742.75	  467.95
      5.1700	  921.00	  586.84	-1742.75	  467.94
      5.2700	  934.00	  586.82	-1742.75	  467.92
      5.3700	  929.00	  586.80	-1742.75	  467.90
      5.4700	  857.00	  586.78	-1742.75	  467.88
      5.5700	  932.00	  586.75	-1742.75	  467.85
      5.6700	  881.00	  586.71	-1742.75	  467.81
      5.7700	  818.00	  586.67	-1742.75	  467.77
      5.8700	  819.00	  586.63	-1742.75	  467.73
      5.9700	  843.00	  586.58	-1742.75	  467.68
      6.0700	  799.00	  586.53	-1742.75	  467.62
      6.1700	  777.00	  586.47	-1742.75	  467.57
      6.2700	  779.00	  586.41	-1742.75	  467.50
      6.3700	  756.00	  586.34	-1742.75	  467.44
      6.4700	  800.00	  586.27	-1742.75	  467.37
      6.5700	  758.00	  586.19	-1742.75	  467.29
      6.6700	  727.00	  586.11	-1742.75	  467.21
      6.7700	  729.00	  586.03	-1742.75	  467.13
      6.8700	  687.00	  585.94	-1742.75	  467.04
      6.9700	  733.00	  585.85	-1742.75	  466.95
      7.0700	  720.00	  585.75	-1742.75	  466.85
      7.1700	  664.00	  585.65	-1742.75	  466.75
      7.2700	  713.00	  585.55	-1742.75	  466.65
      7.3700	  678.00	  585.44	-1742.75	  466.54
      7.4700	  672.00	  585.33	-1742.75	  466.43
      7.5700	  644.00	  585.21	-1742.75	  466.31
      7.6700	  620.00	  585.09	-1742.75	  466.19
      7.7700	  655.00	  584.97	-1742.75	  466.07
      7.8700	  685.00	  584.84	-1742.75	  465.94
      7.9700	  614.00	  584.71	-1742.75	  465.81
      8.0700	  677.00	  584.58	-1742.75	  465.68
      8.1700	  559.00	  584.44	-1742.75	  465.54
      8.2700	  673.00	  584.30	-1742.75	  465.40
      8.3700	  562.00	  584.15	-1742.75	  465.25
      8.4700	  641.00	  584.00	-1742.75	  465.10
      8.5700	  620.00	  583.85	-1742.75	  464.95
      8.6700	  584.00	  583.69	-1742.75	  464.79
      8.7700	  636.00	  583.53	-1742.75	  464.63
      8.8700	  623.00	  583.37	-1742.75	  464.47
      8.9700	  623.00	  583.21	-1742.75	  464.30
      9.0700	  641.00	  583.04	-1742.75	  464.14
      9.1700	  643.00	  582.86	-1742.75	  463.96
      9.2700	  608.00	  582.69	-1742.75	  463.79
      9.3700	  599.00	  582.51	-1742.75	  463.61
      9.4700	  597.00	  582.33	-1742.75	  463.43
      9.5700	  583.00	  582.14	-1742.75	  463.24
      9.6700	  605.00	  581.95	-1742.75	  463.05
      9.7700	  614.00	  581.76	-1742.75	  462.86
      9.8700	  568.00	  581.57	-1742.75	  462.67
      9.9700	  631.00	  581.37	-1742.75	  462.47
     10.0700	  616.00	  582.02	-1708.77	  462.27
     10.1700	  590.00	  581.91	-1734.66	  462.07
     10.2700	  611.00	  581.82	-1713.57	  461.86
     10.3700	  580.00	  581.76	-1744.51	  461.65
     10.4700	  650.00	  581.77	-1674.52	  461.44
     10.5700	  638.00	  581.90	-1686.65	  461.23
     10.6700	  558.00	  582.26	-1767.01	  461.01
     10.7700	  554.00	  582.96	-1771.71	  460.79
     10.8700	  593.00	  584.07	-1733.82	  460.57
     10.9700	  582.00	  585.57	-1746.32	  460.34
     11.0700	  549.00	  587.44	-1781.19	  460.12
     11.1700	  643.00	  589.67	-1689.42	  459.89
     11.2700	  616.00	  592.30	-1719.05	  459.65
     11.3700	  594.00	  595.41	-1744.16	  459.42
     11.4700	  605.00	  599.16	-1736.91	  459.18
     11.5700	  594.00	  603.75	-1752.50	  458.94
     11.6700	  623.00	  609.56	-1729.31	  458.70
     11.7700	  644.00	  617.26	-1716.01	  458.45
     11.8700	  643.00	  627.80	-1727.55	  458.21
     11.9700	  654.00	  641.70	-1730.45	  457.96
     12.0700	  687.00	  657.04	-1712.79	  457.71
     12.1700	  688.00	  667.15	-1721.90	  457.45
     12.2700	  681.00	  662.13	-1723.88	  457.20
     12.3700	  650.00	  640.08	-1732.83	  456.94
     12.4700	  668.00	  614.39	-1689.14	  456.68
     12.5700	  567.00	  595.91	-1771.66	  456.42
     12.6700	  548.00	  585.84	-1780.59	  456.16
     12.7700	  575.00	  581.17	-1748.92	  455.89
     12.8700	  589.00	  578.95	-1732.70	  455.62
     12.9700	  571.00	  577.65	-1749.40	  455.35
     13.0700	  592.00	  576.71	-1727.46	  455.08
     13.1700	  574.00	  575.97	-1744.72	  454.81
     13.2700	  569.00	  575.34	-1749.09	  454.53
     13.3700	  544.00	  574.79	-1773.54	  454.25
     13.4700	  527.00	  574.30	-1790.05	  453.98
     13.5700	  510.00	  573.84	-1806.59	  453.69
     13.6700	  559.00	  573.42	-1757.17	  453.41
     13.7700	  561.00	  573.03	-1754.78	  453.13
     13.8700	  561.00	  572.65	-1754.40	  452.84
     13.9700	  546.00	  572.28	-1769.03	  452.55
     14.0700	  573.00	  571.92	-1741.67	  452.27
     14.1700	  547.00	  571.57	-1767.32	  451.97
     14.2700	  566.00	  571.23	-1747.98	  451.68
     14.3700	  549.00	  570.89	-1764.64	  451.39
     14.4700	  559.00	  570.56	-1754.31	  451.09
     14.5700	  567.00	  570.23	-1745.98	  450.80
     14.6700	  573.00	  569.90	-1739.65	  450.50
     14.7700	  611.00	  569.57	-1701.32	  450.20
     14.8700	  563.00	  569.25	-1749.00	  449.90
     14.9700	  598.00	  568.93	-1713.68	  449.60
     15.0700	  531.00	  568.60	-1780.35	  449.29
     15.1700	  547.00	  568.28	-1764.03	  448.99
     15.2700	  607.00	  567.96	-1703.71	  448.68
     15.3700	  553.00	  567.64	-1757.39	  448.37
     15.4700	  615.00	  567.32	-1695.07	  448.07
     15.5700	  602.00	  566.99	-1707.74	  447.76
     15.6700	  562.00	  566.67	-1747.42	  447.44
     15.7700	  584.00	  566.35	-1725.10	  447.13
     15.8700	  554.00	  566.03	-1754.78	  446.82
     15.9700	  562.00	  565.70	-1746.45	  446.51
     16.0700	  576.00	  565.41	-1732.16	  446.19
     16.1700	  539.00	  565.09	-1768.84	  445.87
     16.2700	  551.00	  564.76	-1756.51	  445.56
     16.3700	  542.00	  564.44	-1765.19	  445.24
     16.4700	  579.00	  564.11	-1727.86	  444.92
     16.5700	  543.00	  563.79	-1763.54	  444.60
     16.6700	  538.00	  563.46	-1768.21	  444.28
     16.7700	  540.00	  563.14	-1765.89	  443.96
     16.8700	  578.00	  562.81	-1727.56	  443.63
     16.9700	  556.00	  562.48	-1749.23	  443.31
     17.0700	  581.00	  562.16	-1723.91	  442.99
     17.1700	  550.00	  561.83	-1754.58	  442.66
     17.2700	  607.00	  561.50	-1697.25	  442.33
     17.3700	  520.00	  561.17	-1783.92	  442.01
     17.4700	  552.00	  560.84	-1751.59	  441.68
     17.5700	  528.00	  560.51	-1775.26	  441.35
     17.6700	  525.00	  560.18	-1777.93	  441.02
     17.7700	  514.00	  559.85	-1788.60	  440.70
     17.8700	  563.00	  559.52	-1739.27	  440.37
     17.9700	  514.00	  559.19	-1787.94	  440.04
     18.0700	  577.00	  558.97	-1724.72	  439.70
     18.1700	  524.00	  558.64	-1777.39	  439.37
     18.2700	  571.00	  558.31	-1730.06	  439.04
     18.3700	  522.00	  557.98	-1778.73	  438.71
     18.4700	  564.00	  557.65	-1736.40	  438.38
     18.5700	  564.00	  557.32	-1736.07	  438.04
     18.6700	  565.00	  556.99	-1734.74	  437.71
     18.7700	  573.00	  556.66	-1726.41	  437.38
     18.8700	  622.00	  556.33	-1677.08	  437.04
     18.9700	  596.00	  556.07	-1702.82	  436.71
     19.0700	  544.00	  555.74	-1754.49	  436.37
     19.1700	  570.00	  555.41	-1728.16	  436.04
     19.2700	  576.00	  555.08	-1721.83	  435.70
     19.3700	  527.00	  554.75	-1770.50	  435.36
     19.4700	  562.00	  554.42	-1735.17	  435.03
     19.5700	  526.00	  554.09	-1770.84	  434.69
     19.6700	  508.00	  553.76	-1788.51	  434.35
     19.7700	  567.00	  553.43	-1729.18	  434.02
     19.8700	  563.00	  553.11	-1732.86	  433.68
     19.9700	  513.00	  552.78	-1782.53	  433.34
     20.0700	  557.00	  552.45	-1738.20	  433.01
     20.1700	  533.00	  552.12	-1761.87	  432.67
     20.2700	  523.00	  551.79	-1771.54	  432.33
     20.3700	  572.00	  551.47	-1722.22	  431.99
     20.4700	  552.00	  551.14	-1741.89	  431.66
     20.5700	  558.00	  550.82	-1735.57	  431.32
     20.6700	  548.00	  550.49	-1745.24	  430.98
     20.7700	  557.00	  550.14	-1735.89	  430.65
     20.8700	  537.00	  549.84	-1755.59	  430.31
     20.9700	  533.00	  549.52	-1759.27	  429.97
     21.0700	  547.00	  549.20	-1744.95	  429.63
     21.1700	  580.00	  548.88	-1711.63	  429.30
     21.2700	  521.00	  548.57	-1770.32	  428.96
     21.3700	  544.00	  548.25	-1747.00	  428.62
     21.4700	  517.00	  547.94	-1773.69	  428.29
     21.5700	  504.00	  547.63	-1786.38	  427.95
     21.6700	  554.00	  547.31	-1736.06	  427.61
     21.7700	  490.00	  547.01	-1799.76	  427.28
     21.8700	  532.00	  546.70	-1757.45	  426.94
     21.9700	  533.00	  546.40	-1756.15	  426.61
     22.0700	  562.00	  546.10	-1726.85	  426.27
     22.1700	  583.00	  545.80	-1705.55	  425.94
     22.2700	  511.00	  545.51	-1777.26	  425.60
     22.3700	  539.00	  545.22	-1748.97	  425.27
     22.4700	  550.00	  544.93	-1737.68	  424.93
     22.5700	  530.00	  544.65	-1757.40	  424.60
     22.6700	  566.00	  544.38	-1721.13	  424.27
     22.7700	  532.00	  544.12	-1754.87	  423.93
     22.8700	  562.00	  543.86	-1724.61	  423.60
     22.9700	  550.00	  543.62	-1736.37	  423.27
     23.0700	  564.00	  543.39	-1722.14	  422.94
     23.1700	  554.00	  543.18	-1731.93	  422.61
     23.2700	  570.00	  542.99	-1715.74	  422.28
     23.3700	  516.00	  542.83	-1769.58	  421.95
     23.4700	  545.00	  542.70	-1740.45	  421.62
     23.5700	  532.00	  542.62	-1753.37	  421.29
     23.6700	  553.00	  542.62	-1732.37	  420.96
     23.7700	  590.00	  542.87	-1695.62	  420.63
     23.8700	  516.00	  543.22	-1769.97	  420.30
     23.9700	  542.00	  544.03	-1744.78	  419.98
     24.0700	  537.00	  545.74	-1751.49	  419.65
     24.1700	  570.00	  549.02	-1721.77	  419.32
     24.2700	  543.00	  554.69	-1754.44	  419.00
     24.3700	  573.00	  563.68	-1733.43	  418.68
     24.4700	  564.00	  576.94	-1755.69	  418.35
     24.5700	  595.00	  594.45	-1742.20	  418.03
     24.6700	  587.00	  613.08	-1768.83	  417.71
     24.7700	  602.00	  624.92	-1765.67	  417.38
     24.8700	  628.00	  620.17	-1734.92	  417.06
     24.9700	  626.00	  599.09	-1715.84	  416.74
     25.0700	  565.00	  574.97	-1752.72	  416.42
     25.1700	  557.00	  557.34	-1743.09	  416.11
     25.2700	  584.00	  547.47	-1706.22	  415.79
     25.3700	  584.00	  542.80	-1701.55	  415.47
     25.4700	  547.00	  540.65	-1736.40	  415.15
     25.5700	  561.00	  539.48	-1721.23	  414.84
     25.6700	  534.00	  538.72	-1747.47	  414.52
     25.7700	  526.00	  538.17	-1754.92	  414.21
     25.8700	  545.00	  537.76	-1735.51	  413.90
     25.9700	  545.00	  537.45	-1735.20	  413.59
     26.0700	  518.00	  537.23	-1761.98	  413.27
     26.1700	  544.00	  537.09	-1735.84	  412.96
     26.2700	  532.00	  537.03	-1747.78	  412.65
     26.3700	  512.00	  537.05	-1767.80	  412.35
     26.4700	  536.00	  537.15	-1743.90	  412.04
     26.5700	  570.00	  537.36	-1710.11	  411.73
     26.6700	  548.00	  537.69	-1732.44	  411.43
     26.7700	  583.00	  538.16	-1697.91	  411.12
     26.8700	  538.00	  538.82	-1743.57	  410.82
     26.9700	  563.00	  539.72	-1719.47	  410.52
     27.0700	  566.00	  540.95	-1717.70	  410.21
     27.1700	  549.00	  542.65	-1736.40	  409.91
     27.2700	  524.00	  545.10	-1763.85	  409.61
     27.3700	  559.00	  548.88	-1732.63	  409.32
     27.4700	  577.00	  555.10	-1720.85	  409.02
     27.5700	  591.00	  565.78	-1717.53	  408.72
     27.6700	  562.00	  584.11	-1764.86	  408.43
     27.7700	  611.00	  614.19	-1745.94	  408.13
     27.8700	  640.00	  659.51	-1762.26	  407.84
     27.9700	  703.00	  720.08	-1759.83	  407.55
     28.0700	  790.00	  788.47	-1741.22	  407.26
     28.1700	  902.00	  846.52	-1687.27	  406.97
     28.2700	  950.00	  867.47	-1660.22	  406.68
     28.3700	  898.00	  836.79	-1681.54	  406.39
     28.4700	  786.00	  780.55	-1737.30	  406.10
     28.5700	  707.00	  738.25	-1774.00	  405.82
     28.6700	  727.00	  726.98	-1742.73	  405.53
     28.7700	  705.00	  741.72	-1779.47	  405.25
     28.8700	  759.00	  762.68	-1746.43	  404.97
     28.9700	  822.00	  763.35	-1684.10	  404.69
     29.0700	  717.00	  728.24	-1753.99	  404.41
     29.1700	  682.00	  672.21	-1732.96	  404.13
     29.2700	  601.00	  620.09	-1761.84	  403.85
     29.3700	  602.00	  583.06	-1723.81	  403.58
     29.4700	  574.00	  560.93	-1729.68	  403.30
     29.5700	  608.00	  549.03	-1683.78	  403.03
     29.6700	  604.00	  542.70	-1681.45	  402.76
     29.7700	  572.00	  539.05	-1709.80	  402.49
     29.8700	  596.00	  536.73	-1683.48	  402.22
     29.9700	  529.00	  535.21	-1748.96	  401.95
     30.0700	  571.00	  534.39	-1706.14	  401.68
     30.1700	  522.00	  534.41	-1755.16	  401.42
     30.2700	  557.00	  535.71	-1721.46	  401.15
     30.3700	  584.00	  539.17	-1697.92	  400.89
     30.4700	  541.00	  546.14	-1747.89	  400.63
     30.5700	  523.00	  557.97	-1777.72	  400.37
     30.6700	  572.00	  574.95	-1745.70	  400.11
     30.7700	  611.00	  594.83	-1726.58	  399.85
     30.8700	  608.00	  611.72	-1746.47	  399.60
     30.9700	  594.00	  616.89	-1765.64	  399.34
     31.0700	  584.00	  604.96	-1763.71	  399.09
     31.1700	  561.00	  582.31	-1764.06	  398.84
     31.2700	  591.00	  560.13	-1711.88	  398.59
     31.3700	  511.00	  543.99	-1775.74	  398.34
     31.4700	  510.00	  534.29	-1767.04	  398.09
     31.5700	  568.00	  529.14	-1703.89	  397.84
     31.6700	  556.00	  526.51	-1713.26	  397.60
     31.7700	  550.00	  525.05	-1717.80	  397.36
     31.8700	  514.00	  524.13	-1752.88	  397.11
     31.9700	  529.00	  523.51	-1737.26	  396.87
     32.0700	  520.00	  523.08	-1745.83	  396.63
     32.1700	  537.00	  522.82	-1728.57	  396.40
     32.2700	  504.00	  522.70	-1761.45	  396.16
     32.3700	  538.00	  522.71	-1727.46	  395.93
     32.4700	  562.00	  522.88	-1703.63	  395.69
     32.5700	  578.00	  523.21	-1687.96	  395.46
     32.6700	  534.00	  523.75	-1732.50	  395.23
     32.7700	  516.00	  524.52	-1751.27	  395.00
     32.8700	  536.00	  525.61	-1732.36	  394.77
     32.9700	  488.00	  527.15	-1781.90	  394.55
     33.0700	  555.00	  529.35	-1717.10	  394.32
     33.1700	  529.00	  532.71	-1746.46	  394.10
     33.2700	  564.00	  538.36	-1717.11	  393.88
     33.3700	  572.00	  548.72	-1719.47	  393.66
     33.4700	  547.00	  568.39	-1764.14	  393.44
     33.5700	  592.00	  604.58	-1755.33	  393.22
     33.6700	  633.00	  665.32	-1775.07	  393.01
     33.7700	  754.00	  753.60	-1742.35	  392.79
     33.8700	  937.00	  858.99	-1664.74	  392.58
     33.9700	 1037.00	  952.15	-1657.90	  392.37
     34.0700	 1022.00	  989.45	-1710.20	  392.16
     34.1700	 1015.00	  941.42	-1669.17	  391.95
     34.2700	  854.00	  833.83	-1722.58	  391.75
     34.3700	  758.00	  721.11	-1705.86	  391.54
     34.4700	  604.00	  635.09	-1773.84	  391.34
     34.5700	  561.00	  581.55	-1763.30	  391.14
     34.6700	  550.00	  552.75	-1745.50	  390.94
     34.7700	  564.00	  538.31	-1717.06	  390.74
     34.8700	  574.00	  530.76	-1699.51	  390.54
     34.9700	  560.00	  526.22	-1708.97	  390.35
     35.0700	  552.00	  523.09	-1713.84	  390.16
     35.1700	  531.00	  520.75	-1732.50	  389.96
     35.2700	  548.00	  518.88	-1713.63	  389.77
     35.3700	  534.00	  517.37	-1726.12	  389.58
     35.4700	  475.00	  516.13	-1783.88	  389.40
     35.5700	  507.00	  515.08	-1750.83	  389.21
     35.6700	  544.00	  514.19	-1712.94	  389.03
     35.7700	  520.00	  513.42	-1736.17	  388.84
     35.8700	  542.00	  512.75	-1713.50	  388.66
     35.9700	  539.00	  512.16	-1715.91	  388.48
     36.0700	  510.00	  512.09	-1744.84	  388.31
     36.1700	  548.00	  511.62	-1706.38	  388.13
     36.2700	  480.00	  511.21	-1773.96	  387.96
     36.3700	  503.00	  510.85	-1750.59	  387.78
     36.4700	  493.00	  510.52	-1760.27	  387.61
     36.5700	  536.00	  510.23	-1716.98	  387.44
     36.6700	  535.00	  510.00	-1717.75	  387.28
     36.7700	  500.00	  509.81	-1752.56	  387.11
     36.8700	  481.00	  509.71	-1771.46	  386.94
     36.9700	  499.00	  509.78	-1753.53	  386.78
     37.0700	  466.00	  510.19	-1786.94	  386.62
     37.1700	  502.00	  511.26	-1752.01	  386.46
     37.2700	  534.00	  513.43	-1722.18	  386.30
     37.3700	  573.00	  517.07	-1686.82	  386.15
     37.4700	  511.00	  522.06	-1753.81	  385.99
     37.5700	  504.00	  527.30	-1766.05	  385.84
     37.6700	  569.00	  530.82	-1704.57	  385.69
     37.7700	  498.00	  530.58	-1775.33	  385.54
     37.8700	  551.00	  526.56	-1718.31	  385.39
     37.9700	  539.00	  520.97	-1724.72	  385.24
     38.0700	  477.00	  515.86	-1781.61	  385.10
     38.1700	  512.00	  512.03	-1742.78	  384.95
     38.2700	  523.00	  509.50	-1729.25	  384.81
     38.3700	  500.00	  507.95	-1750.70	  384.67
     38.4700	  474.00	  507.01	-1775.76	  384.53
     38.5700	  523.00	  506.42	-1726.17	  384.39
     38.6700	  478.00	  505.91	-1770.66	  384.26
     38.7700	  528.00	  505.62	-1720.37	  384.13
     38.8700	  495.00	  505.38	-1753.13	  383.99
     38.9700	  486.00	  505.18	-1761.93	  383.86
     39.0700	  504.00	  505.00	-1743.75	  383.73
     39.1700	  535.00	  504.76	-1712.51	  383.61
     39.2700	  507.00	  504.62	-1740.37	  383.48
     39.3700	  527.00	  504.48	-1720.23	  383.36
     39.4700	  506.00	  504.48	-1741.23	  383.24
     39.5700	  530.00	  504.37	-1717.12	  383.12
     39.6700	  495.00	  504.26	-1752.01	  383.00
     39.7700	  558.00	  504.17	-1688.92	  382.88
     39.8700	  523.00	  504.08	-1723.83	  382.76
     39.9700	  508.00	  504.01	-1738.76	  382.65
     40.0700	  511.00	  503.94	-1735.69	  382.54
     40.1700	  484.00	  503.88	-1762.63	  382.43
     40.2700	  545.00	  503.83	-1701.58	  382.32
     40.3700	  504.00	  503.79	-1742.54	  382.21
     40.4700	  481.00	  503.77	-1765.52	  382.11
     40.5700	  465.00	  503.76	-1781.51	  382.00
     40.6700	  516.00	  503.77	-1730.52	  381.90
     40.7700	  480.00	  503.80	-1766.55	  381.80
     40.8700	  503.00	  503.85	-1743.60	  381.70
     40.9700	  512.00	  503.92	-1734.67	  381.60
     41.0700	  510.00	  504.03	-1736.78	  381.50
     41.1700	  486.00	  504.18	-1760.93	  381.41
     41.2700	  501.00	  504.35	-1746.10	  381.32
     41.3700	  482.00	  504.61	-1765.36	  381.23
     41.4700	  475.00	  504.96	-1772.71	  381.14
     41.5700	  519.00	  505.85	-1729.60	  381.05
     41.6700	  496.00	  506.50	-1753.25	  380.96
     41.7700	  524.00	  507.46	-1726.21	  380.88
     41.8700	  513.00	  509.07	-1738.82	  380.79
     41.9700	  533.00	  512.04	-1721.79	  380.71
     42.0700	  503.00	  517.74	-1757.49	  380.63
     42.1700	  505.00	  528.29	-1766.04	  380.56
     42.2700	  493.00	  546.05	-1795.80	  380.48
     42.3700	  529.00	  572.18	-1785.93	  380.40
     42.4700	  536.00	  604.49	-1811.24	  380.33
     42.5700	  613.00	  635.50	-1765.25	  380.26
     42.6700	  545.00	  653.73	-1851.48	  380.19
     42.7700	  631.00	  649.38	-1761.13	  380.12
     42.8700	  615.00	  624.26	-1752.01	  380.05
     42.9700	  539.00	  590.53	-1794.28	  379.99
     43.0700	  539.00	  559.57	-1763.32	  379.92
     43.1700	  519.00	  536.66	-1760.41	  379.86
     43.2700	  520.00	  522.25	-1745.00	  379.80
     43.3700	  524.00	  514.27	-1733.02	  379.74
     43.4700	  484.00	  510.16	-1768.91	  379.68
     43.5700	  473.00	  508.03	-1777.78	  379.63
     43.6700	  491.00	  506.82	-1758.57	  379.57
     43.7700	  489.00	  506.22	-1759.97	  379.52
     43.8700	  522.00	  505.66	-1726.41	  379.47
     43.9700	  492.00	  505.28	-1756.03	  379.42
     44.0700	  480.00	  504.97	-1767.72	  379.37
     44.1700	  507.00	  504.73	-1740.48	  379.32
     44.2700	  501.00	  504.56	-1746.31	  379.28
     44.3700	  482.00	  504.43	-1765.18	  379.23
     44.4700	  538.00	  504.34	-1709.09	  379.19
     44.5700	  502.00	  504.29	-1745.04	  379.15
     44.6700	  555.00	  504.14	-1691.89	  379.11
     44.7700	  524.00	  504.15	-1722.90	  379.07
     44.8700	  505.00	  504.19	-1741.94	  379.04
     44.9700	  484.00	  504.24	-1762.99	  379.00
     45.0700	  528.00	  504.32	-1719.07	  378.97
     45.1700	  503.00	  504.42	-1744.17	  378.94
     45.2700	  565.00	  504.72	-1682.47	  378.91
     45.3700	  523.00	  504.86	-1724.61	  378.88
     45.4700	  540.00	  505.03	-1707.78	  378.85
     45.5700	  497.00	  505.22	-1750.97	  378.82
     45.6700	  567.00	  505.44	-1681.19	  378.80
     45.7700	  500.00	  505.68	-1748.43	  378.78
     45.8700	  514.00	  505.95	-1734.70	  378.75
     45.9700	  516.00	  506.25	-1733.00	  378.73
     46.0700	  478.00	  506.59	-1771.34	  378.72
     46.1700	  513.00	  506.97	-1736.72	  378.70
     46.2700	  477.00	  507.39	-1773.14	  378.68
     46.3700	  462.00	  507.86	-1788.61	  378.67
     46.4700	  542.00	  508.40	-1709.15	  378.66
     46.5700	  479.00	  509.01	-1772.76	  378.65
     46.6700	  513.00	  509.72	-1739.47	  378.64
     46.7700	  496.00	  510.55	-1757.30	  378.63
     46.8700	  489.00	  511.57	-1765.32	  378.62
     46.9700	  504.00	  512.94	-1751.69	  378.61
     47.0700	  520.00	  514.96	-1737.71	  378.61
     47.1700	  537.00	  518.31	-1724.06	  378.61
     47.2700	  543.00	  524.01	-1723.76	  378.61
     47.3700	  548.00	  533.33	-1728.08	  378.61
     47.4700	  559.00	  547.47	-1731.22	  378.61
     47.5700	  574.00	  566.48	-1735.23	  378.61
     47.6700	  608.00	  588.22	-1722.97	  378.62
     47.7700	  596.00	  607.88	-1754.63	  378.62
     47.8700	  619.00	  618.82	-1742.57	  378.63
     47.9700	  595.00	  616.38	-1764.13	  378.64
     48.0700	  597.00	  602.39	-1748.14	  378.65
     48.1700	  581.00	  583.61	-1745.36	  378.66
     48.2700	  543.00	  566.23	-1765.98	  378.67
     48.3700	  580.00	  553.49	-1716.24	  378.68
     48.4700	  545.00	  546.22	-1743.97	  378.70
     48.5700	  526.00	  543.68	-1760.43	  378.71
     48.6700	  546.00	  544.59	-1741.34	  378.73
     48.7700	  545.00	  547.92	-1745.67	  378.75
     48.8700	  531.00	  553.17	-1764.92	  378.77
     48.9700	  504.00	  560.36	-1799.11	  378.79
     49.0700	  577.00	  570.14	-1735.89	  378.81
     49.1700	  549.00	  584.17	-1777.92	  378.84
     49.2700	  627.00	  605.93	-1721.68	  378.86
     49.3700	  639.00	  642.12	-1745.87	  378.89
     49.4700	  675.00	  704.07	-1771.82	  378.92
     49.5700	  776.00	  808.35	-1775.10	  378.95
     49.6700	  933.00	  972.73	-1782.48	  378.98
     49.7700	 1137.00	 1210.95	-1816.70	  379.01
     49.8700	 1477.00	 1520.31	-1786.06	  379.04
     49.9700	 1904.00	 1870.20	-1708.95	  379.08
     50.0700	 2202.00	 2193.14	-1733.89	  379.11
     50.1700	 2470.00	 2391.39	-1664.14	  379.15
     50.2700	 2417.00	 2381.81	-1707.56	  379.19
     50.3700	 2191.00	 2166.88	-1718.62	  379.23
     50.4700	 1813.00	 1835.94	-1765.69	  379.27
     50.5700	 1415.00	 1489.43	-1817.18	  379.31
     50.6700	 1077.00	 1191.95	-1857.70	  379.35
     50.7700	  810.00	  970.44	-1903.19	  379.39
     50.8700	  792.00	  824.30	-1775.05	  379.44
     50.9700	  669.00	  737.03	-1810.78	  379.48
     51.0700	  654.00	  687.18	-1775.93	  379.53
     51.1700	  639.00	  655.99	-1759.74	  379.58
     51.2700	  613.00	  631.79	-1761.54	  379.63
     51.3700	  573.00	  610.35	-1780.10	  379.68
     51.4700	  570.00	  591.53	-1764.28	  379.73
     51.5700	  561.00	  576.10	-1757.85	  379.78
     51.6700	  528.00	  564.42	-1779.17	  379.84
     51.7700	  558.00	  556.21	-1740.96	  379.89
     51.8700	  542.00	  550.76	-1751.51	  379.95
     51.9700	  547.00	  547.33	-1743.08	  380.01
     52.0700	  590.00	  545.30	-1698.05	  380.07
     52.1700	  565.00	  544.34	-1722.09	  380.13
     52.2700	  526.00	  544.53	-1761.28	  380.19
     52.3700	  550.00	  545.55	-1738.30	  380.25
     52.4700	  558.00	  548.09	-1732.84	  380.31
     52.5700	  552.00	  553.29	-1744.04	  380.37
     52.6700	  549.00	  563.52	-1757.27	  380.44
     52.7700	  610.00	  582.98	-1715.73	  380.50
     52.8700	  656.00	  618.01	-1704.76	  380.57
     52.9700	  718.00	  676.12	-1700.87	  380.64
     53.0700	  787.00	  763.10	-1718.85	  380.71
     53.1700	  869.00	  878.59	-1752.34	  380.78
     53.2700	 1070.00	 1011.26	-1684.01	  380.85
     53.3700	 1187.00	 1136.27	-1692.02	  380.92
     53.4700	 1144.00	 1217.91	-1816.66	  380.99
     53.5700	 1169.00	 1224.50	-1798.25	  381.07
     53.6700	 1100.00	 1152.59	-1795.34	  381.14
     53.7700	 1055.00	 1031.13	-1718.88	  381.22
     53.8700	  841.00	  897.41	-1799.16	  381.29
     53.9700	  694.00	  778.50	-1827.25	  381.37
     54.0700	  711.00	  687.51	-1719.26	  381.45
     54.1700	  651.00	  626.06	-1717.81	  381.53
     54.2700	  566.00	  588.81	-1765.56	  381.61
     54.3700	  600.00	  568.18	-1710.93	  381.69
     54.4700	  560.00	  557.49	-1740.24	  381.77
     54.5700	  601.00	  552.17	-1693.92	  381.85
     54.6700	  575.00	  549.72	-1717.47	  381.94
     54.7700	  547.00	  548.83	-1744.58	  382.02
     54.8700	  512.00	  548.94	-1779.69	  382.11
     54.9700	  571.00	  549.84	-1721.59	  382.19
     55.0700	  551.00	  551.46	-1743.21	  382.28
     55.1700	  617.00	  553.82	-1679.57	  382.37
     55.2700	  576.00	  557.01	-1723.76	  382.46
     55.3700	  576.00	  561.10	-1727.85	  382.55
     55.4700	  614.00	  566.34	-1695.09	  382.64
     55.5700	  600.00	  573.13	-1715.88	  382.73
     55.6700	  601.00	  582.32	-1724.07	  382.82
     55.7700	  570.00	  595.61	-1768.36	  382.92
     55.8700	  576.00	  616.45	-1783.20	  383.01
     55.9700	  578.00	  651.29	-1816.04	  383.10
     56.0700	  665.00	  710.78	-1788.53	  383.20
     56.1700	  774.00	  810.31	-1779.06	  383.29
     56.2700	  940.00	  967.92	-1770.67	  383.39
     56.3700	 1105.00	 1198.87	-1836.62	  383.49
     56.4700	 1419.00	 1506.80	-1830.55	  383.59
     56.5700	 1790.00	 1873.75	-1826.50	  383.69
     56.6700	 2245.00	 2252.83	-1750.58	  383.79
     56.7700	 2476.00	 2566.35	-1833.10	  383.89
     56.8700	 2651.00	 2722.15	-1813.90	  383.99
     56.9700	 2604.00	 2661.69	-1800.44	  384.09
     57.0700	 2375.00	 2408.45	-1776.20	  384.19
     57.1700	 2097.00	 2048.18	-1693.93	  384.29
     57.2700	 1630.00	 1669.96	-1782.71	  384.40
     57.3700	 1268.00	 1334.87	-1809.62	  384.50
     57.4700	 1001.00	 1072.88	-1814.63	  384.61
     57.5700	  860.00	  888.90	-1771.65	  384.71
     57.6700	  774.00	  771.81	-1740.56	  384.82
     57.7700	  713.00	  704.63	-1734.38	  384.92
     57.8700	  669.00	  671.62	-1745.37	  385.03
     57.9700	  671.00	  661.90	-1733.65	  385.14
     58.0700	  661.00	  669.81	-1751.56	  385.25
     58.1700	  723.00	  693.48	-1713.23	  385.36
     58.2700	  757.00	  732.99	-1718.74	  385.47
     58.3700	  807.00	  788.39	-1724.14	  385.58
     58.4700	  934.00	  858.17	-1666.92	  385.69
     58.5700	 1009.00	  937.73	-1671.48	  385.80
     58.6700	 1113.00	 1019.04	-1648.79	  385.91
     58.7700	 1262.00	 1093.13	-1573.88	  386.02
     58.8700	 1401.00	 1154.20	-1495.95	  386.14
     58.9700	 1447.00	 1199.36	-1495.11	  386.25
     59.0700	 1428.00	 1224.44	-1539.19	  386.36
     59.1700	 1425.00	 1225.78	-1543.53	  386.48
     59.2700	 1453.00	 1207.14	-1496.89	  386.59
     59.3700	 1335.00	 1179.63	-1587.38	  386.71
     59.4700	 1247.00	 1154.21	-1649.96	  386.82
     59.5700	 1196.00	 1138.22	-1684.97	  386.94
     59.6700	 1141.00	 1138.90	-1740.65	  387.06
     59.7700	 1185.00	 1165.14	-1722.89	  387.17
     59.8700	 1207.00	 1222.52	-1758.27	  387.29
     59.9700	 1345.00	 1306.82	-1704.57	  387.41
     60.0700	 1508.00	 1401.15	-1635.90	  387.53
     60.1700	 1543.00	 1476.93	-1676.68	  387.64
     60.2700	 1578.00	 1501.43	-1666.18	  387.76
     60.3700	 1503.00	 1455.50	-1695.25	  387.88
     60.4700	 1399.00	 1347.32	-1691.07	  388.00
     60.5700	 1225.00	 1204.47	-1722.22	  388.12
     60.6700	 1141.00	 1055.66	-1657.41	  388.24
     60.7700	  945.00	  921.62	-1719.37	  388.36
     60.8700	  808.00	  813.83	-1748.58	  388.48
     60.9700	  656.00	  735.92	-1822.67	  388.61
     61.0700	  660.00	  686.46	-1769.21	  388.73
     61.1700	  612.00	  661.95	-1792.70	  388.85
     61.2700	  617.00	  659.70	-1785.45	  388.97
     61.3700	  722.00	  679.32	-1700.07	  389.09
     61.4700	  635.00	  722.91	-1830.66	  389.22
     61.5700	  747.00	  793.66	-1789.41	  389.34
     61.6700	  849.00	  893.41	-1787.16	  389.46
     61.7700	  989.00	 1019.65	-1773.40	  389.59
     61.8700	 1068.00	 1162.75	-1837.50	  389.71
     61.9700	 1217.00	 1304.54	-1830.29	  389.84
     62.0700	 1343.00	 1418.26	-1818.01	  389.96
     62.1700	 1391.00	 1474.23	-1825.98	  390.08
     62.2700	 1318.00	 1454.01	-1878.76	  390.21
     62.3700	 1278.00	 1363.84	-1828.59	  390.33
     62.4700	 1189.00	 1229.84	-1783.59	  390.46
     62.5700	 1062.00	 1081.55	-1762.30	  390.58
     62.6700	  882.00	  941.69	-1802.44	  390.71
     62.7700	  778.00	  823.83	-1788.57	  390.83
     62.8700	  725.00	  733.33	-1751.08	  390.96
     62.9700	  622.00	  669.27	-1790.02	  391.09
     63.0700	  610.00	  627.08	-1759.83	  391.21
     63.1700	  582.00	  600.99	-1761.74	  391.34
     63.2700	  556.00	  585.79	-1772.54	  391.46
     63.3700	  558.00	  577.67	-1762.42	  391.59
     63.4700	  589.00	  574.43	-1728.18	  391.71
     63.5700	  600.00	  575.32	-1718.07	  391.84
     63.6700	  568.00	  580.79	-1755.54	  391.97
     63.7700	  594.00	  592.30	-1741.05	  392.09
     63.8700	  617.00	  611.89	-1737.64	  392.22
     63.9700	  644.00	  641.73	-1740.48	  392.35
     64.0700	  698.00	  683.27	-1728.02	  392.47
     64.1700	  770.00	  736.26	-1709.01	  392.60
     64.2700	  834.00	  797.85	-1706.60	  392.73
     64.3700	  860.00	  861.98	-1744.73	  392.85
     64.4700	  956.00	  918.91	-1705.66	  392.98
     64.5700	 1010.00	  958.68	-1691.43	  393.11
     64.6700	  990.00	  972.59	-1725.34	  393.23
     64.7700	  989.00	  958.96	-1712.71	  393.36
     64.8700	 1023.00	  922.53	-1642.28	  393.48
     64.9700	  904.00	  872.00	-1710.75	  393.61
     65.0700	  864.00	  816.80	-1695.55	  393.74
     65.1700	  747.00	  764.49	-1760.24	  393.86
     65.2700	  764.00	  719.17	-1697.92	  393.99
     65.3700	  719.00	  681.78	-1705.53	  394.11
     65.4700	  669.00	  651.53	-1725.28	  394.24
     65.5700	  645.00	  627.25	-1725.00	  394.37
     65.6700	  570.00	  608.06	-1780.81	  394.49
     65.7700	  600.00	  593.25	-1736.00	  394.62
     65.8700	  573.00	  582.25	-1752.00	  394.74
     65.9700	  583.00	  574.55	-1734.30	  394.87
     66.0700	  569.00	  569.68	-1743.43	  394.99
     66.1700	  563.00	  567.16	-1746.91	  395.12
     66.2700	  544.00	  566.58	-1765.33	  395.24
     66.3700	  545.00	  567.58	-1765.33	  395.37
     66.4700	  565.00	  569.98	-1747.73	  395.49
     66.5700	  556.00	  573.80	-1760.55	  395.61
     66.6700	  507.00	  579.54	-1815.29	  395.74
     66.7700	  594.00	  587.90	-1736.65	  395.86
     66.8700	  588.00	  600.76	-1755.51	  395.98
     66.9700	  602.00	  621.18	-1761.93	  396.11
     67.0700	  626.00	  654.03	-1770.78	  396.23
     67.1700	  704.00	  706.18	-1744.93	  396.35
     67.2700	  782.00	  786.32	-1747.07	  396.47
     67.3700	  956.00	  903.66	-1690.41	  396.60
     67.4700	 1080.00	 1065.58	-1728.33	  396.72
     67.5700	 1261.00	 1274.50	-1756.25	  396.84
     67.6700	 1552.00	 1524.00	-1714.75	  396.96
     67.7700	 1896.00	 1796.46	-1643.21	  397.08
     67.8700	 2101.00	 2062.04	-1703.79	  397.20
     67.9700	 2348.00	 2279.16	-1673.91	  397.32
     68.0700	 2431.00	 2402.40	-1714.15	  397.44
     68.1700	 2372.00	 2399.81	-1770.56	  397.56
     68.2700	 2195.00	 2272.09	-1819.84	  397.68
     68.3700	 2016.00	 2052.18	-1778.93	  397.80
     68.4700	 1837.00	 1785.91	-1691.66	  397.92
     68.5700	 1493.00	 1514.12	-1763.87	  398.03
     68.6700	 1245.00	 1266.42	-1764.17	  398.15
     68.7700	  981.00	 1059.90	-1821.65	  398.27
     68.8700	  865.00	  900.43	-1778.18	  398.39
     68.9700	  811.00	  785.32	-1717.07	  398.50
     69.0700	  684.00	  707.03	-1765.78	  398.62
     69.1700	  677.00	  656.32	-1722.07	  398.73
     69.2700	  676.00	  624.59	-1691.34	  398.85
     69.3700	  643.00	  605.02	-1704.77	  398.96
     69.4700	  601.00	  592.84	-1734.59	  399.08
     69.5700	  568.00	  585.03	-1759.78	  399.19
     69.6700	  567.00	  579.80	-1755.55	  399.30
     69.7700	  596.00	  576.20	-1722.95	  399.42
     69.8700	  539.00	  573.71	-1777.46	  399.53
     69.9700	  585.00	  572.07	-1729.82	  399.64
     70.0700	  545.00	  571.17	-1768.92	  399.75
     70.1700	  536.00	  570.97	-1777.72	  399.86
     70.2700	  569.00	  571.49	-1745.24	  399.97
     70.3700	  584.00	  572.83	-1731.58	  400.08
     70.4700	  562.00	  575.24	-1755.99	  400.19
     70.5700	  572.00	  579.22	-1749.97	  400.30
     70.6700	  566.00	  585.67	-1762.42	  400.40
     70.7700	  576.00	  596.16	-1762.91	  400.51
     70.8700	  612.00	  613.16	-1743.91	  400.62
     70.9700	  624.00	  640.34	-1759.09	  400.72
     71.0700	  648.00	  682.55	-1777.30	  400.83
     71.1700	  747.00	  745.52	-1741.27	  400.93
     71.2700	  822.00	  834.98	-1755.73	  401.04
     71.3700	  952.00	  955.15	-1745.90	  401.14
     71.4700	 1081.00	 1106.71	-1768.46	  401.24
     71.5700	 1260.00	 1285.04	-1767.79	  401.35
     71.6700	 1464.00	 1479.48	-1758.23	  401.45
     71.7700	 1596.00	 1669.67	-1816.42	  401.55
     71.8700	 1824.00	 1831.06	-1749.81	  401.65
     71.9700	 1938.00	 1935.16	-1739.91	  401.75
     72.0700	 1888.00	 1959.15	-1813.90	  401.85
     72.1700	 1785.00	 1897.19	-1854.94	  401.94
     72.2700	 1794.00	 1764.02	-1712.77	  402.04
     72.3700	 1623.00	 1586.01	-1705.76	  402.14
     72.4700	 1449.00	 1391.80	-1685.55	  402.23
     72.5700	 1308.00	 1203.49	-1638.24	  402.33
     72.6700	 1135.00	 1036.43	-1644.18	  402.42
     72.7700	 1005.00	  898.70	-1636.45	  402.52
     72.8700	  888.00	  792.19	-1646.94	  402.61
     72.9700	  781.00	  714.39	-1676.14	  402.70
     73.0700	  761.00	  660.26	-1642.01	  402.79
     73.1700	  706.00	  624.06	-1660.81	  402.88
     73.2700	  662.00	  600.43	-1681.18	  402.97
     73.3700	  625.00	  585.14	-1702.89	  403.06
     73.4700	  626.00	  575.17	-1691.92	  403.15
     73.5700	  622.00	  568.51	-1689.26	  403.24
     73.6700	  580.00	  563.96	-1726.71	  403.33
     73.7700	  530.00	  560.84	-1773.59	  403.41
     73.8700	  570.00	  558.74	-1731.49	  403.50
     73.9700	  584.00	  557.47	-1716.22	  403.58
     74.0700	  610.00	  556.84	-1689.59	  403.66
     74.1700	  593.00	  556.74	-1706.49	  403.75
     74.2700	  652.00	  556.97	-1647.72	  403.83
     74.3700	  606.00	  557.35	-1694.10	  403.91
     74.4700	  617.00	  557.62	-1683.37	  403.99
     74.5700	  637.00	  557.56	-1663.31	  404.07
     74.6700	  659.00	  556.98	-1640.73	  404.15
     74.7700	  612.00	  555.88	-1686.63	  404.22
     74.8700	  614.00	  554.37	-1683.12	  404.30
     74.9700	  617.00	  552.71	-1678.46	  404.38
     75.0700	  613.00	  551.18	-1680.93	  404.45
     75.1700	  584.00	  550.04	-1708.79	  404.52
     75.2700	  597.00	  549.71	-1695.46	  404.60
     75.3700	  581.00	  550.47	-1712.22	  404.67
     75.4700	  526.00	  552.81	-1769.56	  404.74
     75.5700	  603.00	  557.11	-1696.86	  404.81
     75.6700	  545.00	  564.04	-1761.79	  404.88
     75.7700	  582.00	  573.98	-1734.73	  404.95
     75.8700	  599.00	  587.21	-1730.96	  405.01
     75.9700	  585.00	  603.68	-1761.43	  405.08
     76.0700	  607.00	  622.84	-1758.59	  405.14
     76.1700	  665.00	  643.55	-1721.30	  405.21
     76.2700	  632.00	  664.07	-1774.82	  405.27
     76.3700	  675.00	  682.07	-1749.82	  405.33
     76.4700	  714.00	  694.91	-1723.66	  405.39
     76.5700	  699.00	  700.26	-1744.01	  405.45
     76.6700	  698.00	  696.99	-1741.74	  405.51
     76.7700	  681.00	  685.75	-1747.50	  405.57
     76.8700	  638.00	  668.65	-1773.40	  405.63
     76.9700	  651.00	  648.12	-1739.87	  405.68
     77.0700	  614.00	  626.97	-1755.72	  405.74
     77.1700	  644.00	  606.92	-1705.67	  405.79
     77.2700	  537.00	  589.26	-1795.01	  405.85
     77.3700	  584.00	  574.65	-1733.40	  405.90
     77.4700	  621.00	  563.25	-1685.00	  405.95
     77.5700	  526.00	  554.79	-1771.54	  406.00
     77.6700	  501.00	  548.81	-1790.56	  406.05
     77.7700	  538.00	  544.74	-1749.49	  406.09
     77.8700	  481.00	  542.06	-1803.81	  406.14
     77.9700	  507.00	  540.34	-1776.09	  406.19
     78.0700	  518.00	  539.24	-1763.99	  406.23
     78.1700	  518.00	  538.55	-1763.30	  406.27
     78.2700	  509.00	  538.11	-1771.86	  406.31
     78.3700	  488.00	  537.84	-1792.59	  406.36
     78.4700	  543.00	  537.70	-1737.45	  406.40
     78.5700	  524.00	  537.66	-1756.41	  406.43
     78.6700	  504.00	  537.72	-1776.47	  406.47
     78.7700	  524.00	  537.89	-1756.64	  406.51
     78.8700	  475.00	  538.21	-1805.96	  406.54
     78.9700	  527.00	  538.71	-1754.46	  406.58
     79.0700	  554.00	  539.44	-1728.19	  406.61
     79.1700	  503.00	  540.45	-1780.20	  406.64
     79.2700	  522.00	  541.62	-1762.37	  406.67
     79.3700	  541.00	  543.36	-1745.11	  406.70
     79.4700	  531.00	  545.53	-1757.28	  406.73
     79.5700	  502.00	  548.17	-1788.92	  406.76
     79.6700	  501.00	  551.31	-1793.06	  406.78
     79.7700	  531.00	  555.02	-1766.77	  406.81
     79.8700	  563.00	  559.35	-1739.10	  406.83
     79.9700	  562.00	  564.44	-1745.19	  406.85
     80.0700	  577.00	  570.47	-1736.22	  406.87
     80.1700	  514.00	  577.76	-1806.51	  406.89
     80.2700	  563.00	  586.69	-1766.44	  406.91
     80.3700	  576.00	  597.68	-1764.43	  406.93
     80.4700	  595.00	  610.99	-1758.74	  406.94
     80.5700	  623.00	  626.68	-1746.43	  406.96
     80.6700	  642.00	  644.48	-1745.23	  406.97
     80.7700	  628.00	  663.72	-1778.47	  406.99
     80.8700	  715.00	  683.38	-1711.13	  407.00
     80.9700	  677.00	  702.16	-1767.91	  407.01
     81.0700	  728.00	  718.70	-1733.45	  407.01
     81.1700	  778.00	  731.72	-1696.47	  407.02
     81.2700	  798.00	  740.18	-1684.93	  407.03
     81.3700	  750.00	  743.36	-1736.11	  407.03
     81.4700	  810.00	  741.02	-1673.77	  407.04
     81.5700	  757.00	  733.43	-1719.18	  407.04
     81.6700	  762.00	  721.19	-1701.94	  407.04
     81.7700	  741.00	  705.17	-1706.92	  407.04
     81.8700	  710.00	  686.53	-1719.28	  407.04
     81.9700	  737.00	  666.60	-1672.35	  407.04
     82.0700	  677.00	  646.67	-1712.42	  407.03
     82.1700	  677.00	  627.89	-1693.64	  407.03
     82.2700	  617.00	  610.94	-1736.69	  407.02
     82.3700	  622.00	  596.21	-1716.96	  407.01
     82.4700	  604.00	  583.90	-1722.65	  407.00
     82.5700	  614.00	  573.97	-1702.72	  406.99
     82.6700	  582.00	  566.39	-1727.14	  406.98
     82.7700	  543.00	  560.99	-1760.74	  406.97
     82.8700	  564.00	  557.58	-1736.33	  406.95
     82.9700	  569.00	  556.01	-1729.76	  406.94
     83.0700	  541.00	  556.11	-1757.86	  406.92
     83.1700	  608.00	  557.76	-1692.51	  406.90
     83.2700	  542.00	  560.78	-1761.53	  406.88
     83.3700	  494.00	  564.99	-1813.74	  406.86
     83.4700	  542.00	  570.09	-1770.84	  406.84
     83.5700	  580.00	  575.71	-1738.46	  406.82
     83.6700	  510.00	  581.39	-1814.14	  406.79
     83.7700	  552.00	  586.55	-1777.30	  406.76
     83.8700	  558.00	  590.55	-1775.30	  406.74
     83.9700	  572.00	  592.81	-1763.56	  406.71
     84.0700	  596.00	  592.92	-1739.67	  406.68
     84.1700	  577.00	  590.81	-1756.56	  406.65
     84.2700	  591.00	  586.79	-1738.54	  406.61
     84.3700	  542.00	  581.38	-1782.13	  406.58
     84.4700	  554.00	  575.18	-1763.93	  406.54
     84.5700	  578.00	  568.75	-1733.50	  406.51
     84.6700	  569.00	  562.52	-1736.27	  406.47
     84.7700	  529.00	  556.84	-1770.59	  406.43
     84.8700	  547.00	  551.90	-1747.65	  406.39
     84.9700	  504.00	  547.81	-1786.56	  406.34
     85.0700	  562.00	  544.57	-1725.32	  406.30
     85.1700	  584.00	  542.11	-1700.86	  406.26
     85.2700	  526.00	  540.32	-1757.07	  406.21
     85.3700	  546.00	  539.10	-1735.85	  406.16
     85.4700	  528.00	  538.34	-1753.09	  406.11
     85.5700	  493.00	  537.95	-1787.70	  406.06
     85.6700	  519.00	  537.87	-1761.62	  406.01
     85.7700	  565.00	  538.11	-1715.86	  405.96
     85.8700	  553.00	  538.66	-1728.41	  405.90
     85.9700	  527.00	  539.62	-1755.37	  405.85
     86.0700	  498.00	  541.07	-1785.82	  405.79
     86.1700	  528.00	  543.17	-1757.92	  405.73
     86.2700	  559.00	  546.08	-1729.83	  405.67
     86.3700	  569.00	  550.00	-1723.75	  405.61
     86.4700	  514.00	  555.10	-1783.85	  405.54
     86.5700	  517.00	  561.49	-1787.24	  405.48
     86.6700	  567.00	  569.22	-1744.97	  405.41
     86.7700	  607.00	  578.17	-1713.92	  405.35
     86.8700	  604.00	  587.79	-1726.54	  405.28
     86.9700	  586.00	  598.25	-1755.00	  405.21
     87.0700	  635.00	  608.61	-1716.36	  405.14
     87.1700	  621.00	  618.09	-1739.84	  405.07
     87.2700	  635.00	  625.84	-1733.59	  404.99
     87.3700	  653.00	  630.98	-1720.73	  404.92
     87.4700	  697.00	  632.89	-1678.64	  404.84
     87.5700	  677.00	  631.34	-1697.09	  404.76
     87.6700	  627.00	  626.64	-1742.39	  404.68
     87.7700	  627.00	  619.46	-1735.21	  404.60
     87.8700	  607.00	  610.71	-1746.46	  404.52
     87.9700	  624.00	  601.32	-1720.07	  404.44
     88.0700	  643.00	  592.14	-1691.89	  404.35
     88.1700	  577.00	  583.91	-1749.66	  404.27
     88.2700	  557.00	  577.17	-1762.92	  404.18
     88.3700	  581.00	  572.30	-1734.05	  404.09
     88.4700	  577.00	  569.47	-1735.22	  404.00
     88.5700	  587.00	  568.68	-1724.43	  403.91
     88.6700	  585.00	  569.78	-1727.53	  403.82
     88.7700	  588.00	  572.49	-1727.24	  403.72
     88.8700	  560.00	  576.39	-1759.14	  403.63
     88.9700	  603.00	  581.00	-1720.75	  403.53
     89.0700	  609.00	  585.77	-1719.52	  403.43
     89.1700	  598.00	  590.11	-1734.86	  403.33
     89.2700	  605.00	  593.43	-1731.18	  403.23
     89.3700	  629.00	  595.23	-1708.98	  403.13
     89.4700	  567.00	  595.18	-1770.93	  403.02
     89.5700	  591.00	  593.23	-1744.98	  402.92
     89.6700	  553.00	  589.60	-1779.35	  402.81
     89.7700	  562.00	  584.69	-1765.44	  402.71
     89.8700	  557.00	  578.97	-1764.72	  402.60
     89.9700	  558.00	  572.90	-1757.65	  402.49
     90.0700	  570.00	  566.89	-1739.64	  402.37
     90.1700	  534.00	  561.24	-1769.99	  402.26
     90.2700	  581.00	  556.17	-1717.92	  402.15
     90.3700	  563.00	  551.83	-1731.58	  402.03
     90.4700	  530.00	  548.26	-1761.01	  401.91
     90.5700	  557.00	  545.46	-1731.21	  401.80
     90.6700	  508.00	  543.36	-1778.11	  401.68
     90.7700	  532.00	  541.89	-1752.64	  401.56
     90.8700	  542.00	  540.95	-1741.70	  401.43
     90.9700	  539.00	  540.46	-1744.21	  401.31
     91.0700	  518.00	  540.38	-1765.13	  401.19
     91.1700	  540.00	  540.66	-1743.41	  401.06
     91.2700	  457.00	  541.32	-1827.07	  400.93
     91.3700	  546.00	  542.39	-1739.14	  400.80
     91.4700	  536.00	  543.97	-1750.72	  400.67
     91.5700	  571.00	  546.16	-1717.91	  400.54
     91.6700	  525.00	  549.15	-1766.90	  400.41
     91.7700	  568.00	  553.10	-1727.85	  400.28
     91.8700	  503.00	  558.23	-1797.98	  400.14
     91.9700	  519.00	  564.54	-1788.29	  400.01
     92.0700	  550.00	  572.64	-1765.39	  399.87
     92.1700	  585.00	  582.46	-1740.21	  399.73
     92.2700	  545.00	  594.05	-1791.80	  399.59
     92.3700	  586.00	  607.41	-1764.16	  399.45
     92.4700	  619.00	  622.38	-1746.13	  399.31
     92.5700	  666.00	  638.69	-1715.44	  399.16
     92.6700	  631.00	  655.92	-1767.67	  399.02
     92.7700	  672.00	  673.55	-1744.30	  398.87
     92.8700	  678.00	  690.93	-1755.68	  398.72
     92.9700	  702.00	  707.38	-1748.13	  398.58
     93.0700	  728.00	  722.32	-1737.07	  398.43
     93.1700	  821.00	  735.43	-1657.18	  398.27
     93.2700	  781.00	  746.72	-1708.47	  398.12
     93.3700	  753.00	  756.50	-1746.25	  397.97
     93.4700	  786.00	  765.25	-1722.00	  397.81
     93.5700	  868.00	  773.47	-1648.22	  397.66
     93.6700	  793.00	  781.60	-1731.35	  397.50
     93.7700	  825.00	  790.06	-1707.81	  397.34
     93.8700	  830.00	  799.23	-1711.98	  397.19
     93.9700	  871.00	  809.58	-1681.33	  397.03
     94.0700	  850.00	  821.51	-1714.26	  396.86
     94.1700	  861.00	  835.22	-1716.97	  396.70
     94.2700	  878.00	  850.58	-1715.33	  396.54
     94.3700	  905.00	  867.02	-1704.77	  396.37
     94.4700	  865.00	  883.48	-1761.23	  396.21
     94.5700	  903.00	  898.51	-1738.26	  396.04
     94.6700	  947.00	  910.37	-1706.12	  395.87
     94.7700	  939.00	  917.20	-1720.95	  395.70
     94.8700	  895.00	  917.50	-1765.25	  395.53
     94.9700	  878.00	  910.40	-1775.15	  395.36
     95.0700	  910.00	  896.02	-1728.77	  395.19
     95.1700	  858.00	  875.39	-1760.14	  395.01
     95.2700	  864.00	  850.16	-1728.91	  394.84
     95.3700	  847.00	  822.29	-1718.04	  394.66
     95.4700	  763.00	  793.81	-1773.56	  394.49
     95.5700	  812.00	  766.61	-1697.36	  394.31
     95.6700	  717.00	  742.49	-1768.24	  394.13
     95.7700	  687.00	  723.03	-1778.78	  393.95
     95.8700	  698.00	  709.65	-1754.40	  393.77
     95.9700	  690.00	  703.62	-1756.37	  393.59
     96.0700	  670.00	  706.01	-1778.76	  393.41
     96.1700	  695.00	  717.73	-1765.48	  393.22
     96.2700	  729.00	  739.45	-1753.20	  393.04
     96.3700	  770.00	  771.62	-1744.37	  392.85
     96.4700	  794.00	  814.30	-1763.05	  392.67
     96.5700	  845.00	  867.12	-1764.87	  392.48
     96.6700	  979.00	  929.15	-1692.90	  392.29
     96.7700	  991.00	  998.82	-1750.57	  392.10
     96.8700	 1031.00	 1073.90	-1785.65	  391.91
     96.9700	 1125.00	 1151.41	-1769.16	  391.72
     97.0700	 1260.00	 1227.69	-1710.44	  391.53
     97.1700	 1246.00	 1298.53	-1795.28	  391.33
     97.2700	 1325.00	 1359.38	-1777.13	  391.14
     97.3700	 1384.00	 1405.76	-1764.51	  390.95
     97.4700	 1439.00	 1433.87	-1737.62	  390.75
     97.5700	 1446.00	 1441.35	-1738.10	  390.55
     97.6700	 1393.00	 1427.85	-1777.60	  390.36
     97.7700	 1355.00	 1395.09	-1782.84	  390.16
     97.8700	 1410.00	 1346.33	-1679.08	  389.96
     97.9700	 1305.00	 1285.75	-1723.50	  389.76
     98.0700	 1137.00	 1217.76	-1823.51	  389.56
     98.1700	 1152.00	 1146.71	-1737.46	  389.36
     98.2700	 1067.00	 1076.43	-1752.18	  389.15
     98.3700	 1027.00	 1010.29	-1726.04	  388.95
     98.4700	  998.00	  951.09	-1695.84	  388.75
     98.5700	  914.00	  901.05	-1729.80	  388.54
     98.6700	  842.00	  861.91	-1762.66	  388.34
     98.7700	  806.00	  834.92	-1771.67	  388.13
     98.8700	  806.00	  820.98	-1757.73	  387.93
     98.9700	  798.00	  820.70	-1765.45	  387.72
     99.0700	  830.00	  834.48	-1747.23	  387.51
     99.1700	  813.00	  862.51	-1792.26	  387.30
     99.2700	  868.00	  904.81	-1779.56	  387.09
     99.3700	  947.00	  961.15	-1756.90	  386.88
     99.4700	 1011.00	 1031.00	-1762.75	  386.67
     99.5700	 1099.00	 1113.44	-1757.19	  386.46
     99.6700	 1215.00	 1207.06	-1734.81	  386.25
     99.7700	 1292.00	 1309.85	-1760.60	  386.04
     99.8700	 1339.00	 1419.11	-1822.86	  385.82
     99.9700	 1496.00	 1531.40	-1778.15	  385.61
    100.0700	 1626.00	 1642.65	-1759.40	  385.40
    100.1700	 1818.00	 1748.32	-1673.07	  385.18
    100.2700	 1823.00	 1843.84	-1763.59	  384.97
    100.3700	 2018.00	 1925.14	-1649.89	  384.75
    100.4700	 1991.00	 1988.96	-1740.71	  384.54
    100.5700	 2108.00	 2033.06	-1667.81	  384.32
    100.6700	 2126.00	 2055.98	-1672.73	  384.10
    100.7700	 2094.00	 2056.97	-1705.72	  383.88
    100.8700	 2051.00	 2035.89	-1727.64	  383.67
    100.9700	 2021.00	 1993.55	-1715.30	  383.45
    101.0700	 1899.00	 1932.03	-1775.78	  383.23
    101.1700	 1834.00	 1854.82	-1763.57	  383.01
    101.2700	 1773.00	 1766.56	-1736.31	  382.79
    101.3700	 1707.00	 1672.40	-1708.15	  382.57
    101.4700	 1556.00	 1577.44	-1764.19	  382.35
    101.5700	 1543.00	 1486.16	-1685.91	  382.13
    101.6700	 1475.00	 1402.20	-1669.95	  381.91
    101.7700	 1379.00	 1328.09	-1691.84	  381.69
    101.8700	 1395.00	 1265.30	-1613.05	  381.47
    101.9700	 1267.00	 1214.22	-1689.97	  381.24
    102.0700	 1197.00	 1174.23	-1719.98	  381.02
    102.1700	 1123.00	 1143.89	-1763.64	  380.80
    102.2700	 1146.00	 1121.00	-1717.75	  380.58
    102.3700	 1054.00	 1102.92	-1791.67	  380.35
    102.4700	 1120.00	 1086.86	-1709.61	  380.13
    102.5700	 1025.00	 1070.18	-1787.93	  379.91
    102.6700	 1053.00	 1050.73	-1740.48	  379.68
    102.7700	  982.00	 1027.17	-1787.92	  379.46
    102.8700	  998.00	  998.98	-1743.73	  379.24
    102.9700	  956.00	  966.48	-1753.23	  379.01
    103.0700	  863.00	  930.48	-1810.23	  378.79
    103.1700	  900.00	  892.11	-1734.86	  378.56
    103.2700	  865.00	  852.63	-1730.38	  378.34
    103.3700	  780.00	  813.26	-1776.01	  378.12
    103.4700	  776.00	  775.12	-1741.87	  377.89
    103.5700	  728.00	  739.14	-1753.89	  377.67
    103.6700	  682.00	  706.03	-1766.78	  377.44
    103.7700	  689.00	  676.29	-1730.04	  377.22
    103.8700	  632.00	  650.22	-1760.97	  376.99
    103.9700	  589.00	  627.87	-1781.62	  376.77
    104.0700	  630.00	  609.14	-1721.89	  376.55
    104.1700	  565.00	  593.79	-1771.54	  376.32
    104.2700	  571.00	  581.51	-1753.26	  376.10
    104.3700	  551.00	  571.92	-1763.67	  375.87
    104.4700	  536.00	  564.64	-1771.39	  375.65
    104.5700	  573.00	  559.29	-1729.04	  375.43
    104.6700	  555.00	  555.53	-1743.28	  375.20
    104.7700	  566.00	  553.05	-1729.80	  374.98
    104.8700	  537.00	  551.61	-1757.36	  374.76
    104.9700	  537.00	  551.00	-1756.75	  374.54
    105.0700	  577.00	  551.06	-1716.81	  374.31
    105.1700	  533.00	  551.70	-1761.45	  374.09
    105.2700	  548.00	  552.82	-1747.57	  373.87
    105.3700	  515.00	  554.42	-1782.17	  373.65
    105.4700	  563.00	  556.49	-1736.24	  373.43
    105.5700	  542.00	  559.09	-1759.84	  373.21
    105.6700	  532.00	  562.26	-1773.01	  372.99
    105.7700	  585.00	  566.11	-1723.86	  372.77
    105.8700	  544.00	  570.73	-1769.48	  372.55
    105.9700	  579.00	  576.20	-1739.95	  372.33
    106.0700	  573.00	  582.57	-1752.32	  372.11
    106.1700	  529.00	  589.85	-1803.60	  371.89
    106.2700	  595.00	  598.00	-1745.75	  371.68
    106.3700	  598.00	  606.91	-1751.66	  371.46
    106.4700	  603.00	  616.43	-1756.18	  371.24
    106.5700	  584.00	  626.32	-1785.07	  371.03
    106.6700	  642.00	  636.31	-1737.06	  370.81
    106.7700	  617.00	  646.08	-1771.83	  370.60
    106.8700	  618.00	  655.25	-1780.00	  370.38
    106.9700	  679.00	  663.48	-1727.23	  370.17
    107.0700	  682.00	  670.43	-1731.18	  369.96
    107.1700	  674.00	  675.84	-1744.59	  369.75
    107.2700	  682.00	  679.58	-1740.33	  369.53
    107.3700	  704.00	  681.67	-1720.42	  369.32
    107.4700	  727.00	  682.31	-1698.06	  369.11
    107.5700	  709.00	  681.83	-1715.58	  368.91
    107.6700	  668.00	  680.61	-1755.36	  368.70
    107.7700	  689.00	  679.09	-1732.84	  368.49
    107.8700	  655.00	  677.65	-1765.40	  368.28
    107.9700	  732.00	  676.61	-1687.36	  368.08
    108.0700	  678.00	  676.18	-1740.93	  367.87
    108.1700	  712.00	  676.48	-1707.23	  367.67
    108.2700	  687.00	  677.48	-1733.23	  367.47
    108.3700	  665.00	  679.08	-1756.83	  367.27
    108.4700	  702.00	  681.03	-1721.78	  367.07
    108.5700	  688.00	  683.01	-1737.76	  366.87
    108.6700	  685.00	  684.64	-1742.39	  366.67
    108.7700	  680.00	  685.49	-1748.24	  366.47
    108.8700	  672.00	  685.16	-1755.91	  366.27
    108.9700	  646.00	  683.36	-1780.11	  366.08
    109.0700	  693.00	  679.86	-1729.61	  365.89
    109.1700	  680.00	  674.63	-1737.38	  365.69
    109.2700	  678.00	  667.77	-1732.52	  365.50
    109.3700	  651.00	  659.49	-1751.24	  365.31
    109.4700	  614.00	  650.10	-1778.85	  365.12
    109.5700	  674.00	  639.94	-1708.69	  364.94
    109.6700	  622.00	  629.37	-1750.12	  364.75
    109.7700	  581.00	  618.72	-1780.47	  364.56
    109.8700	  622.00	  608.31	-1729.06	  364.38
    109.9700	  592.00	  598.39	-1749.14	  364.20
    110.0700	  559.00	  589.19	-1772.94	  364.02
    110.1700	  631.00	  580.85	-1692.60	  363.84
    110.2700	  597.00	  573.49	-1719.24	  363.66
    110.3700	  621.00	  567.16	-1688.91	  363.48
    110.4700	  552.00	  561.87	-1752.62	  363.31
    110.5700	  524.00	  557.59	-1776.34	  363.14
    110.6700	  550.00	  554.26	-1747.01	  362.96
    110.7700	  530.00	  551.81	-1764.56	  362.79
    110.8700	  556.00	  550.15	-1736.90	  362.63
    110.9700	  538.00	  549.18	-1753.94	  362.46
    111.0700	  589.00	  548.82	-1702.57	  362.29
    111.1700	  540.00	  548.96	-1751.71	  362.13
    111.2700	  536.00	  549.54	-1756.29	  361.97
    111.3700	  542.00	  550.49	-1751.24	  361.81
    111.4700	  520.00	  551.75	-1774.50	  361.65
    111.5700	  519.00	  553.28	-1777.03	  361.50
    111.6700	  544.00	  555.05	-1753.80	  361.34
    111.7700	  554.00	  557.03	-1745.78	  361.19
    111.8700	  554.00	  559.20	-1747.95	  361.04
    111.9700	  566.00	  561.57	-1738.32	  360.89
    112.0700	  563.00	  564.14	-1743.89	  360.75
    112.1700	  599.00	  566.92	-1710.67	  360.60
    112.2700	  565.00	  569.93	-1747.68	  360.46
    112.3700	  601.00	  573.19	-1714.94	  360.32
    112.4700	  632.00	  576.75	-1687.50	  360.18
    112.5700	  604.00	  580.66	-1719.41	  360.05
    112.6700	  640.00	  584.98	-1687.73	  359.91
    112.7700	  611.00	  589.80	-1721.55	  359.78
    112.8700	  651.00	  595.22	-1686.97	  359.65
    112.9700	  630.00	  601.39	-1714.14	  359.53
    113.0700	  667.00	  608.49	-1684.24	  359.40
    113.1700	  643.00	  616.75	-1716.50	  359.28
    113.2700	  707.00	  626.52	-1662.27	  359.16
    113.3700	  715.00	  638.17	-1665.92	  359.04
    113.4700	  748.00	  652.22	-1646.97	  358.93
    113.5700	  770.00	  669.30	-1642.05	  358.81
    113.6700	  767.00	  690.21	-1665.96	  358.70
    113.7700	  793.00	  715.91	-1665.66	  358.60
    113.8700	  895.00	  747.56	-1595.31	  358.49
    113.9700	  868.00	  786.52	-1661.27	  358.39
    114.0700	  940.00	  834.42	-1637.17	  358.29
    114.1700	 1060.00	  893.04	-1575.79	  358.19
    114.2700	 1126.00	  964.41	-1581.16	  358.10
    114.3700	 1090.00	 1050.74	-1703.49	  358.01
    114.4700	 1297.00	 1154.33	-1600.08	  357.92
    114.5700	 1349.00	 1277.57	-1671.32	  357.83
    114.6700	 1562.00	 1422.79	-1603.54	  357.75
    114.7700	 1707.00	 1592.13	-1627.88	  357.67
    114.8700	 1879.00	 1787.50	-1651.25	  357.59
    114.9700	 2113.00	 2010.25	-1640.00	  357.52
    115.0700	 2295.00	 2261.25	-1709.00	  357.45
    115.1700	 2564.00	 2540.51	-1719.26	  357.38
    115.2700	 2854.00	 2847.07	-1735.82	  357.31
    115.3700	 3147.00	 3179.08	-1774.83	  357.25
    115.4700	 3366.00	 3533.34	-1910.09	  357.19
    115.5700	 3740.00	 3905.63	-1908.38	  357.14
    115.6700	 4169.00	 4290.32	-1864.07	  357.08
    115.7700	 4525.00	 4680.53	-1898.28	  357.04
    115.8700	 4821.00	 5068.37	-1990.12	  356.99
    115.9700	 5188.00	 5444.64	-1999.39	  356.95
    116.0700	 5624.00	 5799.47	-1918.22	  356.91
    116.1700	 6125.00	 6122.15	-1739.90	  356.87
    116.2700	 6350.00	 6401.82	-1794.57	  356.84
    116.3700	 6592.00	 6628.14	-1778.89	  356.81
    116.4700	 6831.00	 6791.80	-1703.55	  356.78
    116.5700	 6897.00	 6885.72	-1731.47	  356.76
    116.6700	 6971.00	 6905.69	-1677.44	  356.74
    116.7700	 6948.00	 6851.00	-1645.75	  356.73
    116.8700	 6852.00	 6724.52	-1615.27	  356.72
    116.9700	 6541.00	 6532.35	-1734.10	  356.71
    117.0700	 6264.00	 6282.90	-1761.65	  356.70
    117.1700	 5740.00	 5986.22	-1988.97	  356.70
    117.2700	 5465.00	 5653.04	-1930.79	  356.71
    117.3700	 5179.00	 5293.91	-1857.66	  356.72
    117.4700	 4907.00	 4919.10	-1754.85	  356.73
    117.5700	 4529.00	 4537.80	-1751.55	  356.74
    117.6700	 4332.00	 4158.35	-1569.10	  356.76
    117.7700	 3971.00	 3787.92	-1559.67	  356.78
    117.8700	 3581.00	 3432.26	-1594.01	  356.81
    117.9700	 3270.00	 3096.13	-1568.88	  356.84
    118.0700	 2820.00	 2782.85	-1705.60	  356.88
    118.1700	 2508.00	 2494.76	-1729.51	  356.92
    118.2700	 2161.00	 2233.13	-1814.88	  356.96
    118.3700	 2046.00	 1998.23	-1694.98	  357.01
    118.4700	 1744.00	 1789.70	-1788.45	  357.06
    118.5700	 1560.00	 1606.43	-1789.18	  357.12
    118.6700	 1418.00	 1446.92	-1771.67	  357.18
    118.7700	 1226.00	 1309.35	-1826.10	  357.24
    118.8700	 1164.00	 1191.60	-1770.35	  357.31
    118.9700	 1059.00	 1091.57	-1775.32	  357.39
    119.0700	  931.00	 1007.09	-1818.84	  357.47
    119.1700	  815.00	  936.11	-1863.86	  357.55
    119.2700	  859.00	  876.72	-1760.47	  357.64
    119.3700	  746.00	  827.15	-1823.90	  357.73
    119.4700	  741.00	  785.87	-1787.62	  357.83
    119.5700	  708.00	  751.50	-1786.25	  357.93
    119.6700	  679.00	  722.90	-1786.65	  358.04
    119.7700	  615.00	  699.06	-1826.81	  358.15
    119.8700	  649.00	  679.17	-1772.92	  358.27
    119.9700	  574.00	  662.55	-1831.30	  358.39
    120.0700	  605.00	  648.64	-1786.39	  358.51
    120.1700	  583.00	  636.98	-1796.73	  358.65
    120.2700	  596.00	  627.22	-1773.97	  358.78
    120.3700	  560.00	  619.07	-1801.82	  358.92
    120.4700	  561.00	  612.29	-1794.04	  359.07
    120.5700	  584.00	  606.70	-1765.45	  359.22
    120.6700	  552.00	  602.15	-1792.90	  359.38
    120.7700	  548.00	  598.54	-1793.29	  359.54
    120.8700	  606.00	  595.78	-1732.53	  359.71
    120.9700	  587.00	  593.78	-1749.53	  359.88
    121.0700	  589.00	  592.50	-1746.25	  360.06
    121.1700	  596.00	  591.87	-1738.62	  360.25
    121.2700	  582.00	  591.86	-1752.61	  360.44
    121.3700	  550.00	  592.42	-1785.17	  360.63
    121.4700	  599.00	  593.50	-1737.25	  360.83
    121.5700	  534.00	  595.06	-1803.81	  361.04
    121.6700	  564.00	  597.03	-1775.78	  361.25
    121.7700	  591.00	  599.35	-1751.10	  361.47
    121.8700	  554.00	  601.95	-1790.70	  361.69
    121.9700	  618.00	  604.77	-1729.52	  361.92
    122.0700	  594.00	  607.72	-1756.47	  362.16
    122.1700	  652.00	  610.70	-1701.45	  362.40
    122.2700	  651.00	  613.63	-1705.38	  362.64
    122.3700	  633.00	  616.41	-1726.16	  362.90
    122.4700	  585.00	  618.93	-1776.68	  363.16
    122.5700	  640.00	  621.10	-1723.85	  363.42
    122.6700	  670.00	  622.86	-1695.61	  363.69
    122.7700	  585.00	  624.12	-1781.87	  363.97
    122.8700	  635.00	  624.84	-1732.59	  364.26
    122.9700	  612.00	  624.99	-1755.74	  364.55
    123.0700	  632.00	  624.58	-1735.33	  364.84
    123.1700	  638.00	  623.62	-1728.37	  365.15
    123.2700	  655.00	  622.16	-1709.91	  365.46
    123.3700	  643.00	  620.25	-1720.00	  365.77
    123.4700	  598.00	  617.95	-1762.70	  366.10
    123.5700	  639.00	  615.34	-1719.09	  366.43
    123.6700	  673.00	  612.47	-1682.22	  366.76
    123.7700	  647.00	  609.41	-1705.16	  367.10
    123.8700	  658.00	  606.23	-1690.98	  367.45
    123.9700	  618.00	  603.00	-1727.75	  367.81
    124.0700	  622.00	  599.76	-1720.51	  368.17
    124.1700	  612.00	  596.55	-1727.30	  368.54
    124.2700	  628.00	  593.43	-1708.18	  368.92
    124.3700	  650.00	  590.41	-1683.16	  369.31
    124.4700	  588.00	  587.54	-1742.29	  369.70
    124.5700	  608.00	  584.82	-1719.57	  370.10
    124.6700	  586.00	  582.27	-1739.02	  370.50
    124.7700	  568.00	  579.92	-1754.67	  370.91
    124.8700	  581.00	  577.75	-1739.50	  371.33
    124.9700	  584.00	  490.66	-1649.41	  371.76
    125.0700	  640.00	  491.10	-1742.75	  372.20
    125.1700	  577.00	  491.54	-1742.75	  372.64
    125.2700	  560.00	  491.99	-1742.75	  373.09
    125.3700	  591.00	  492.45	-1742.75	  373.55
    125.4700	  581.00	  492.91	-1742.75	  374.01
    125.5700	  561.00	  493.39	-1742.75	  374.48
    125.6700	  566.00	  493.87	-1742.75	  374.97
    125.7700	  573.00	  494.36	-1742.75	  375.45
    125.8700	  561.00	  494.85	-1742.75	  375.95
    125.9700	  639.00	  495.36	-1742.75	  376.45
    126.0700	  588.00	  495.87	-1742.75	  376.97
    126.1700	  601.00	  496.39	-1742.75	  377.49
    126.2700	  626.00	  496.92	-1742.75	  378.01
    126.3700	  581.00	  497.45	-1742.75	  378.55
    126.4700	  613.00	  498.00	-1742.75	  379.10
    126.5700	  625.00	  498.55	-1742.75	  379.65
    126.6700	  649.00	  499.11	-1742.75	  380.21
    126.7700	  611.00	  499.68	-1742.75	  380.78
    126.8700	  605.00	  500.26	-1742.75	  381.36
    126.9700	  638.00	  500.84	-1742.75	  381.94
    127.0700	  631.00	  501.44	-1742.75	  382.54
    127.1700	  641.00	  502.04	-1742.75	  383.14
    127.2700	  642.00	  502.65	-1742.75	  383.75
    127.3700	  656.00	  503.28	-1742.75	  384.37
    127.4700	  672.00	  503.90	-1742.75	  385.00
    127.5700	  707.00	  504.54	-1742.75	  385.64
    127.6700	  695.00	  505.19	-1742.75	  386.29
    127.7700	  715.00	  505.85	-1742.75	  386.95
    127.8700	  704.00	  506.51	-1742.75	  387.61
    127.9700	  749.00	  507.19	-1742.75	  388.28
    128.0700	  745.00	  507.87	-1742.75	  388.97
    128.1700	  760.00	  508.56	-1742.75	  389.66
    128.2700	  781.00	  509.26	-1742.75	  390.36
    128.3700	  832.00	  509.97	-1742.75	  391.07
    128.4700	  814.00	  510.70	-1742.75	  391.79
    128.5700	    0.00	  511.43	-1742.75	  392.52
    128.6700	    0.00	  512.16	-1742.75	  393.26
     12.2999	        	        	        	        	       0	(  0  0  2)	  0  1
     24.8797	        	        	        	        	       0	(  0  0  4)	  0  1
     28.3267	        	        	        	        	       0	(  1  0  0)	  0  1
     29.0236	        	        	        	        	       0	(  1  0  1)	  0  1
     31.0289	        	        	        	        	       0	(  1  0  2)	  0  1
     34.1359	        	        	        	        	       0	(  1  0  3)	  0  1
     37.7753	        	        	        	        	       0	(  0  0  6)	  0  1
     38.1113	        	        	        	        	       0	(  1  0  4)	  0  1
     42.7596	        	        	        	        	       0	(  1  0  5)	  0  1
     47.9416	        	        	        	        	       0	(  1  0  6)	  0  1
     50.2624	        	        	        	        	       0	(  1  1  0)	  0  1
     51.1926	        	        	        	        	       0	(  0  0  8)	  0  1
     51.9846	        	        	        	        	       0	(  1  1  2)	  0  1
     53.5698	        	        	        	        	       0	(  1  0  7)	  0  1
     56.9301	        	        	        	        	       0	(  1  1  4)	  0  1
     58.7589	        	        	        	        	       0	(  2  0  0)	  0  1
     59.1503	        	        	        	        	       0	(  2  0  1)	  0  1
     59.5978	        	        	        	        	       0	(  1  0  8)	  0  1
     60.3151	        	        	        	        	       0	(  2  0  2)	  0  1
     62.2274	        	        	        	        	       0	(  2  0  3)	  0  1
     64.6213	        	        	        	        	       0	(  1  1  6)	  0  1
     64.8502	        	        	        	        	       0	(  2  0  4)	  0  1
     65.4163	        	        	        	        	       0	(  0  0 10)	  0  1
     66.0115	        	        	        	        	       0	(  1  0  9)	  0  1
     68.1428	        	        	        	        	       0	(  2  0  5)	  0  1
     72.0684	        	        	        	        	       0	(  2  0  6)	  0  1
     72.8245	        	        	        	        	       0	(  1  0 10)	  0  1
     74.6542	        	        	        	        	       0	(  1  1  8)	  0  1
     76.6003	        	        	        	        	       0	(  2  0  7)	  0  1
     80.0787	        	        	        	        	       0	(  1  0 11)	  0  1
     80.8897	        	        	        	        	       0	(  0  0 12)	  0  1
     80.9985	        	        	        	        	       0	(  2  1  0)	  0  1
     81.3382	        	        	        	        	       0	(  2  1  1)	  0  1
     81.7280	        	        	        	        	       0	(  2  0  8)	  0  1
     82.3555	        	        	        	        	       0	(  2  1  2)	  0  1
     84.0459	        	        	        	        	       0	(  2  1  3)	  0  1
     86.4043	        	        	        	        	       0	(  2  1  4)	  0  1
     86.9193	        	        	        	        	       0	(  1  1 10)	  0  1
     87.4629	        	        	        	        	       0	(  2  0  9)	  0  1
     87.8489	        	        	        	        	       0	(  1  0 12)	  0  1
     89.4285	        	        	        	        	       0	(  2  1  5)	  0  1
     93.1239	        	        	        	        	       0	(  2  1  6)	  0  1
     93.8467	        	        	        	        	       0	(  2  0 10)	  0  1
     94.8861	        	        	        	        	       0	(  3  0  0)	  0  1
     95.2233	        	        	        	        	       0	(  3  0  1)	  0  1
     96.2359	        	        	        	        	       0	(  3  0  2)	  0  1
     96.2571	        	        	        	        	       0	(  1  0 13)	  0  1
     97.5099	        	        	        	        	       0	(  2  1  7)	  0  1
     97.9283	        	        	        	        	       0	(  3  0  3)	  0  1
     98.4188	        	        	        	        	       0	(  0  0 14)	  0  1
    100.3099	        	        	        	        	       0	(  3  0  4)	  0  1
    100.9642	        	        	        	        	       0	(  2  0 11)	  0  1
    101.7807	        	        	        	        	       0	(  1  1 12)	  0  1
    102.6292	        	        	        	        	       0	(  2  1  8)	  0  1
    103.3997	        	        	        	        	       0	(  3  0  5)	  0  1
    105.5033	        	        	        	        	       0	(  1  0 14)	  0  1
    107.2324	        	        	        	        	       0	(  3  0  6)	  0  1
    108.5622	        	        	        	        	       0	(  2  1  9)	  0  1
    108.9698	        	        	        	        	       0	(  2  0 12)	  0  1
    111.8697	        	        	        	        	       0	(  3  0  7)	  0  1
    115.4540	        	        	        	        	       0	(  2  1 10)	  0  1
    115.9379	        	        	        	        	       0	(  1  0 15)	  0  1
    116.6085	        	        	        	        	       0	(  2  2  0)	  0  1
    117.4192	        	        	        	        	       0	(  3  0  8)	  0  1
    118.1227	        	        	        	        	       0	(  2  2  2)	  0  1
    118.1466	        	        	        	        	       0	(  2  0 13)	  0  1
    119.8888	        	        	        	        	       0	(  0  0 16)	  0  1
    120.6095	        	        	        	        	       0	(  1  1 14)	  0  1
    122.8050	        	        	        	        	       0	(  2  2  4)	  0  1
    123.5742	        	        	        	        	       0	(  2  1 11)	  0  1
    124.0739	        	        	        	        	       0	(  3  0  9)	  0  1
    124.6723	        	        	        	        	       0	(  3  1  0)	  0  1
    125.0823	        	        	        	        	       0	(  3  1  1)	  0  1
    126.3249	        	        	        	        	       0	(  3  1  2)	  0  1
    128.2675	        	        	        	        	       0	(  1  0 16)	  0  1
    128.4416	        	        	        	        	       0	(  3  1  3)	  0  1
    129.0652	        	        	        	        	       0	(  2  0 14)	  0  1
    131.2385	        	        	        	        	       0	(  2  2  6)	  0  1
    131.5152	        	        	        	        	       0	(  3  1  4)	  0  1
    132.2070	        	        	        	        	       0	(  3  0 10)	  0  1
    133.4763	        	        	        	        	       0	(  2  1 12)	  0  1
    135.6988	        	        	        	        	       0	(  3  1  5)	  0  1
    141.2890	        	        	        	        	       0	(  3  1  6)	  0  1
    142.6731	        	        	        	        	       0	(  3  0 11)	  0  1
    143.1839	        	        	        	        	       0	(  2  0 15)	  0  1
    144.4092	        	        	        	        	       0	(  1  0 17)	  0  1
    145.4581	        	        	        	        	       0	(  2  2  8)	  0  1
    146.6125	        	        	        	        	       0	(  2  1 13)	  0  1
    148.9534	        	        	        	        	       0	(  3  1  7)	  0  1
    149.4991	        	        	        	        	       0	(  1  1 16)	  0  1
    153.8714	        	        	        	        	       0	(  0  0 18)	  0  1
    158.5175	        	        	        	        	       0	(  3  0 12)	  0  1
    158.8147	        	        	        	        	       0	(  4  0  0)	  0  1
    159.7701	        	        	        	        	       0	(  4  0  1)	  0  1
    160.9242	        	        	        	        	       0	(  3  1  8)	  0  1
    162.9431	        	        	        	        	       0	(  4  0  2)	  0  1
    169.4796	        	        	        	        	       0	(  2  0 16)	  0  1
    170.2648	        	        	        	        	       0	(  4  0  3)	  0  1
    173.8324	        	        	        	        	       0	(  2  1 14)	  0  1
