MSG Master    CELL:    5.91898   5.91898  23.26438   90.0000   90.0000  120.0000   SPGR: P 63/m m c             TEMP:   1074.95
  1   1280     2.52000     0.00000    -0.13253     0.00000     0.00000    0
    99     0     2
       0.00000      10.00000
     125.00000     130.00000
 2Theta	Yobs	Ycal	Yobs-Ycal	Backg	Posr	(hkl)	K
      0.7700	    0.00	  569.41	-1769.50	  450.66
      0.8700	    0.00	  569.86	-1769.50	  451.11
      0.9700	   32.00	  570.30	-1769.50	  451.55
      1.0700	   40.00	  570.73	-1769.50	  451.98
      1.1700	   35.00	  571.15	-1769.50	  452.40
      1.2700	   45.00	  571.56	-1769.50	  452.82
      1.3700	   49.00	  571.97	-1769.50	  453.22
      1.4700	   97.00	  572.36	-1769.50	  453.62
      1.5700	  292.00	  572.75	-1769.50	  454.00
      1.6700	  456.00	  573.13	-1769.50	  454.38
      1.7700	  551.00	  573.50	-1769.50	  454.75
      1.8700	  674.00	  573.86	-1769.50	  455.12
      1.9700	  752.00	  574.22	-1769.50	  455.47
      2.0700	  706.00	  574.57	-1769.50	  455.82
      2.1700	  833.00	  574.90	-1769.50	  456.16
      2.2700	  720.00	  575.23	-1769.50	  456.49
      2.3700	  730.00	  575.56	-1769.50	  456.81
      2.4700	  707.00	  575.87	-1769.50	  457.13
      2.5700	  670.00	  576.18	-1769.50	  457.43
      2.6700	  698.00	  576.48	-1769.50	  457.73
      2.7700	  662.00	  576.77	-1769.50	  458.03
      2.8700	  642.00	  577.06	-1769.50	  458.31
      2.9700	  630.00	  577.33	-1769.50	  458.59
      3.0700	  593.00	  577.60	-1769.50	  458.86
      3.1700	  632.00	  577.86	-1769.50	  459.12
      3.2700	  636.00	  578.12	-1769.50	  459.37
      3.3700	  702.00	  578.37	-1769.50	  459.62
      3.4700	  726.00	  578.61	-1769.50	  459.86
      3.5700	  768.00	  578.84	-1769.50	  460.09
      3.6700	  828.00	  579.06	-1769.50	  460.32
      3.7700	  898.00	  579.28	-1769.50	  460.54
      3.8700	 1006.00	  579.49	-1769.50	  460.75
      3.9700	 1041.00	  579.70	-1769.50	  460.95
      4.0700	 1005.00	  579.90	-1769.50	  461.15
      4.1700	 1088.00	  580.09	-1769.50	  461.34
      4.2700	 1128.00	  580.27	-1769.50	  461.53
      4.3700	 1085.00	  580.45	-1769.50	  461.70
      4.4700	 1049.00	  580.62	-1769.50	  461.87
      4.5700	 1038.00	  580.78	-1769.50	  462.04
      4.6700	 1049.00	  580.94	-1769.50	  462.19
      4.7700	  964.00	  581.09	-1769.50	  462.35
      4.8700	  983.00	  581.24	-1769.50	  462.49
      4.9700	  966.00	  581.37	-1769.50	  462.63
      5.0700	  921.00	  581.50	-1769.50	  462.76
      5.1700	  915.00	  581.63	-1769.50	  462.88
      5.2700	  957.00	  581.75	-1769.50	  463.00
      5.3700	  922.00	  581.86	-1769.50	  463.12
      5.4700	  830.00	  581.97	-1769.50	  463.22
      5.5700	  903.00	  582.07	-1769.50	  463.32
      5.6700	  895.00	  582.16	-1769.50	  463.42
      5.7700	  831.00	  582.25	-1769.50	  463.50
      5.8700	  862.00	  582.33	-1769.50	  463.59
      5.9700	  825.00	  582.41	-1769.50	  463.66
      6.0700	  820.00	  582.48	-1769.50	  463.73
      6.1700	  813.00	  582.54	-1769.50	  463.80
      6.2700	  782.00	  582.60	-1769.50	  463.86
      6.3700	  765.00	  582.66	-1769.50	  463.91
      6.4700	  773.00	  582.70	-1769.50	  463.96
      6.5700	  777.00	  582.75	-1769.50	  464.00
      6.6700	  738.00	  582.78	-1769.50	  464.04
      6.7700	  701.00	  582.81	-1769.50	  464.07
      6.8700	  720.00	  582.84	-1769.50	  464.09
      6.9700	  754.00	  582.86	-1769.50	  464.11
      7.0700	  713.00	  582.87	-1769.50	  464.13
      7.1700	  719.00	  582.88	-1769.50	  464.14
      7.2700	  667.00	  582.89	-1769.50	  464.14
      7.3700	  674.00	  582.89	-1769.50	  464.14
      7.4700	  638.00	  582.88	-1769.50	  464.13
      7.5700	  672.00	  582.87	-1769.50	  464.12
      7.6700	  609.00	  582.85	-1769.50	  464.11
      7.7700	  657.00	  582.83	-1769.50	  464.08
      7.8700	  645.00	  582.80	-1769.50	  464.06
      7.9700	  644.00	  582.77	-1769.50	  464.03
      8.0700	  665.00	  582.74	-1769.50	  463.99
      8.1700	  642.00	  582.70	-1769.50	  463.95
      8.2700	  646.00	  582.65	-1769.50	  463.90
      8.3700	  626.00	  582.60	-1769.50	  463.85
      8.4700	  639.00	  582.54	-1769.50	  463.80
      8.5700	  640.00	  582.48	-1769.50	  463.74
      8.6700	  666.00	  582.42	-1769.50	  463.67
      8.7700	  617.00	  582.35	-1769.50	  463.60
      8.8700	  603.00	  582.28	-1769.50	  463.53
      8.9700	  615.00	  582.20	-1769.50	  463.45
      9.0700	  587.00	  582.12	-1769.50	  463.37
      9.1700	  621.00	  582.03	-1769.50	  463.28
      9.2700	  607.00	  581.94	-1769.50	  463.19
      9.3700	  671.00	  581.84	-1769.50	  463.10
      9.4700	  590.00	  581.74	-1769.50	  463.00
      9.5700	  622.00	  581.64	-1769.50	  462.89
      9.6700	  615.00	  581.53	-1769.50	  462.79
      9.7700	  563.00	  581.42	-1769.50	  462.67
      9.8700	  632.00	  581.30	-1769.50	  462.56
      9.9700	  583.00	  581.18	-1769.50	  462.44
     10.0700	  578.00	  581.91	-1773.41	  462.31
     10.1700	  624.00	  581.87	-1727.37	  462.18
     10.2700	  556.00	  581.85	-1795.35	  462.05
     10.3700	  605.00	  581.86	-1746.36	  461.92
     10.4700	  601.00	  581.93	-1750.43	  461.78
     10.5700	  600.00	  582.13	-1751.63	  461.63
     10.6700	  611.00	  582.54	-1741.04	  461.49
     10.7700	  577.00	  583.31	-1775.81	  461.34
     10.8700	  575.00	  584.49	-1778.99	  461.18
     10.9700	  598.00	  586.09	-1757.59	  461.02
     11.0700	  584.00	  588.05	-1773.55	  460.86
     11.1700	  579.00	  590.38	-1780.88	  460.70
     11.2700	  586.00	  593.12	-1776.62	  460.53
     11.3700	  627.00	  596.35	-1738.85	  460.35
     11.4700	  575.00	  600.21	-1794.71	  460.18
     11.5700	  579.00	  604.93	-1795.43	  460.00
     11.6700	  583.00	  610.88	-1797.38	  459.82
     11.7700	  618.00	  618.73	-1770.23	  459.63
     11.8700	  649.00	  629.48	-1749.98	  459.44
     11.9700	  662.00	  643.83	-1751.33	  459.25
     12.0700	  732.00	  660.02	-1697.52	  459.06
     12.1700	  711.00	  671.28	-1729.78	  458.86
     12.2700	  653.00	  667.07	-1783.57	  458.66
     12.3700	  639.00	  644.59	-1775.09	  458.45
     12.4700	  676.00	  617.64	-1711.14	  458.25
     12.5700	  574.00	  598.11	-1793.61	  458.04
     12.6700	  605.00	  587.57	-1752.07	  457.82
     12.7700	  597.00	  582.78	-1755.28	  457.61
     12.8700	  565.00	  580.56	-1785.06	  457.39
     12.9700	  552.00	  579.30	-1796.80	  457.17
     13.0700	  571.00	  578.42	-1776.92	  456.94
     13.1700	  590.00	  577.72	-1757.22	  456.71
     13.2700	  542.00	  577.14	-1804.64	  456.48
     13.3700	  575.00	  576.63	-1771.13	  456.25
     13.4700	  580.00	  576.19	-1765.69	  456.02
     13.5700	  604.00	  575.78	-1741.28	  455.78
     13.6700	  581.00	  575.40	-1763.90	  455.54
     13.7700	  528.00	  575.05	-1816.55	  455.29
     13.8700	  551.00	  574.71	-1793.21	  455.05
     13.9700	  610.00	  574.38	-1733.88	  454.80
     14.0700	  578.00	  574.06	-1765.56	  454.55
     14.1700	  592.00	  573.75	-1751.25	  454.30
     14.2700	  525.00	  573.45	-1817.95	  454.04
     14.3700	  562.00	  573.14	-1780.64	  453.79
     14.4700	  586.00	  572.85	-1756.35	  453.53
     14.5700	  498.00	  572.55	-1844.05	  453.26
     14.6700	  552.00	  572.26	-1789.76	  453.00
     14.7700	  573.00	  571.97	-1768.47	  452.73
     14.8700	  554.00	  571.67	-1787.17	  452.47
     14.9700	  553.00	  571.38	-1787.88	  452.20
     15.0700	  581.00	  571.09	-1759.59	  451.92
     15.1700	  531.00	  570.80	-1809.30	  451.65
     15.2700	  542.00	  570.51	-1798.01	  451.37
     15.3700	  551.00	  570.22	-1788.72	  451.09
     15.4700	  580.00	  569.92	-1759.42	  450.81
     15.5700	  554.00	  569.63	-1785.13	  450.53
     15.6700	  563.00	  569.33	-1775.83	  450.25
     15.7700	  602.00	  569.04	-1736.54	  449.96
     15.8700	  566.00	  568.74	-1772.24	  449.67
     15.9700	  571.00	  568.44	-1766.94	  449.38
     16.0700	  553.00	  568.14	-1784.64	  449.09
     16.1700	  587.00	  567.87	-1750.37	  448.80
     16.2700	  589.00	  567.57	-1748.07	  448.50
     16.3700	  601.00	  567.27	-1735.77	  448.21
     16.4700	  574.00	  566.96	-1762.46	  447.91
     16.5700	  566.00	  566.66	-1770.16	  447.61
     16.6700	  573.00	  566.36	-1762.86	  447.31
     16.7700	  572.00	  566.05	-1763.55	  447.00
     16.8700	  562.00	  565.74	-1773.24	  446.70
     16.9700	  552.00	  565.43	-1782.93	  446.39
     17.0700	  533.00	  565.12	-1801.62	  446.09
     17.1700	  533.00	  564.81	-1801.31	  445.78
     17.2700	  577.00	  564.50	-1757.00	  445.47
     17.3700	  554.00	  564.19	-1779.69	  445.16
     17.4700	  583.00	  563.87	-1750.37	  444.85
     17.5700	  574.00	  563.56	-1759.06	  444.53
     17.6700	  553.00	  563.24	-1779.74	  444.22
     17.7700	  568.00	  562.92	-1764.42	  443.90
     17.8700	  560.00	  562.60	-1772.10	  443.58
     17.9700	  628.00	  562.28	-1703.78	  443.26
     18.0700	  580.00	  562.06	-1751.56	  442.94
     18.1700	  565.00	  561.74	-1766.24	  442.62
     18.2700	  548.00	  561.42	-1782.92	  442.30
     18.3700	  587.00	  561.10	-1743.60	  441.98
     18.4700	  582.00	  560.78	-1748.28	  441.65
     18.5700	  547.00	  560.46	-1782.96	  441.33
     18.6700	  573.00	  560.13	-1756.63	  441.00
     18.7700	  574.00	  559.81	-1755.31	  440.68
     18.8700	  564.00	  559.48	-1764.98	  440.35
     18.9700	  539.00	  559.25	-1789.75	  440.02
     19.0700	  546.00	  558.93	-1782.43	  439.69
     19.1700	  547.00	  558.60	-1781.10	  439.36
     19.2700	  560.00	  558.28	-1767.78	  439.03
     19.3700	  540.00	  557.95	-1787.45	  438.70
     19.4700	  548.00	  557.62	-1779.12	  438.36
     19.5700	  564.00	  557.30	-1762.80	  438.03
     19.6700	  527.00	  556.97	-1799.47	  437.70
     19.7700	  564.00	  556.64	-1762.14	  437.36
     19.8700	  550.00	  556.32	-1775.82	  437.02
     19.9700	  549.00	  555.99	-1776.49	  436.69
     20.0700	  552.00	  555.66	-1773.16	  436.35
     20.1700	  542.00	  555.33	-1782.83	  436.01
     20.2700	  525.00	  555.01	-1799.51	  435.68
     20.3700	  523.00	  554.68	-1801.18	  435.34
     20.4700	  556.00	  554.32	-1767.82	  435.00
     20.5700	  544.00	  553.99	-1779.49	  434.66
     20.6700	  545.00	  553.67	-1778.17	  434.32
     20.7700	  505.00	  553.34	-1817.84	  433.98
     20.8700	  582.00	  553.01	-1740.51	  433.64
     20.9700	  523.00	  552.73	-1799.23	  433.30
     21.0700	  553.00	  552.40	-1768.90	  432.96
     21.1700	  537.00	  552.08	-1784.58	  432.61
     21.2700	  572.00	  551.76	-1749.26	  432.27
     21.3700	  528.00	  551.44	-1792.94	  431.93
     21.4700	  529.00	  551.12	-1791.62	  431.59
     21.5700	  521.00	  550.80	-1799.30	  431.24
     21.6700	  596.00	  550.48	-1723.98	  430.90
     21.7700	  586.00	  550.17	-1733.67	  430.56
     21.8700	  532.00	  549.85	-1787.35	  430.21
     21.9700	  523.00	  549.54	-1796.04	  429.87
     22.0700	  574.00	  549.23	-1744.73	  429.53
     22.1700	  563.00	  548.93	-1755.43	  429.18
     22.2700	  590.00	  548.63	-1728.13	  428.84
     22.3700	  553.00	  548.33	-1764.83	  428.49
     22.4700	  589.00	  548.04	-1728.54	  428.15
     22.5700	  529.00	  547.75	-1788.25	  427.81
     22.6700	  571.00	  547.46	-1745.96	  427.46
     22.7700	  508.00	  547.19	-1808.69	  427.12
     22.8700	  530.00	  546.92	-1786.42	  426.77
     22.9700	  549.00	  546.67	-1767.17	  426.43
     23.0700	  541.00	  546.43	-1774.93	  426.09
     23.1700	  533.00	  546.20	-1782.70	  425.74
     23.2700	  564.00	  546.00	-1751.50	  425.40
     23.3700	  556.00	  545.83	-1759.33	  425.06
     23.4700	  543.00	  545.69	-1772.19	  424.71
     23.5700	  519.00	  545.59	-1796.09	  424.37
     23.6700	  538.00	  545.57	-1777.07	  424.03
     23.7700	  561.00	  545.80	-1754.30	  423.68
     23.8700	  535.00	  546.11	-1780.61	  423.34
     23.9700	  553.00	  546.88	-1763.38	  423.00
     24.0700	  554.00	  548.53	-1764.03	  422.66
     24.1700	  572.00	  551.76	-1749.26	  422.32
     24.2700	  540.00	  557.45	-1786.95	  421.97
     24.3700	  565.00	  566.60	-1771.10	  421.63
     24.4700	  589.00	  580.29	-1760.79	  421.29
     24.5700	  568.00	  598.80	-1800.30	  420.95
     24.6700	  614.00	  619.33	-1774.83	  420.61
     24.7700	  632.00	  633.74	-1771.24	  420.27
     24.8700	  629.00	  630.98	-1771.48	  419.93
     24.9700	  604.00	  609.32	-1774.82	  419.60
     25.0700	  599.00	  582.69	-1753.19	  419.26
     25.1700	  568.00	  562.63	-1764.13	  418.92
     25.2700	  554.00	  551.28	-1766.78	  418.58
     25.3700	  586.00	  545.94	-1729.44	  418.25
     25.4700	  496.00	  543.52	-1817.02	  417.91
     25.5700	  562.00	  542.24	-1749.74	  417.57
     25.6700	  556.00	  541.42	-1754.92	  417.24
     25.7700	  564.00	  540.81	-1746.31	  416.91
     25.8700	  573.00	  540.35	-1736.85	  416.57
     25.9700	  522.00	  540.00	-1787.50	  416.24
     26.0700	  518.00	  539.74	-1791.24	  415.91
     26.1700	  574.00	  539.56	-1735.06	  415.57
     26.2700	  563.00	  539.46	-1745.96	  415.24
     26.3700	  523.00	  539.44	-1785.94	  414.91
     26.4700	  534.00	  539.50	-1775.00	  414.58
     26.5700	  532.00	  539.65	-1777.15	  414.25
     26.6700	  602.00	  539.93	-1707.43	  413.93
     26.7700	  602.00	  540.34	-1707.84	  413.60
     26.8700	  528.00	  540.92	-1782.42	  413.27
     26.9700	  600.00	  541.72	-1711.22	  412.95
     27.0700	  550.00	  542.83	-1762.33	  412.62
     27.1700	  526.00	  544.37	-1787.87	  412.30
     27.2700	  504.00	  546.61	-1812.11	  411.97
     27.3700	  551.00	  550.04	-1768.54	  411.65
     27.4700	  513.00	  555.68	-1812.18	  411.33
     27.5700	  596.00	  565.30	-1738.80	  411.01
     27.6700	  561.00	  581.73	-1790.23	  410.69
     27.7700	  555.00	  608.56	-1823.06	  410.37
     27.8700	  589.00	  648.87	-1829.37	  410.05
     27.9700	  662.00	  702.65	-1810.15	  409.73
     28.0700	  762.00	  763.44	-1770.94	  409.42
     28.1700	  914.00	  815.55	-1671.05	  409.10
     28.2700	  953.00	  836.05	-1652.55	  408.79
     28.3700	  864.00	  813.08	-1718.58	  408.47
     28.4700	  823.00	  770.55	-1717.05	  408.16
     28.5700	  727.00	  743.91	-1786.41	  407.85
     28.6700	  709.00	  748.16	-1808.66	  407.54
     28.7700	  720.00	  777.05	-1826.55	  407.23
     28.8700	  748.00	  808.60	-1830.10	  406.92
     28.9700	  836.00	  812.61	-1746.11	  406.61
     29.0700	  770.00	  771.44	-1770.94	  406.31
     29.1700	  718.00	  703.86	-1755.36	  406.00
     29.2700	  628.00	  640.66	-1782.16	  405.70
     29.3700	  670.00	  595.73	-1695.23	  405.39
     29.4700	  631.00	  568.96	-1707.46	  405.09
     29.5700	  625.00	  554.68	-1699.18	  404.79
     29.6700	  666.00	  547.21	-1650.71	  404.49
     29.7700	  629.00	  542.99	-1683.49	  404.19
     29.8700	  653.00	  540.37	-1656.87	  403.89
     29.9700	  527.00	  538.73	-1781.23	  403.60
     30.0700	  579.00	  537.94	-1728.44	  403.30
     30.1700	  567.00	  538.19	-1740.69	  403.01
     30.2700	  568.00	  540.07	-1741.57	  402.72
     30.3700	  520.00	  544.76	-1794.26	  402.42
     30.4700	  559.00	  554.02	-1764.52	  402.13
     30.5700	  548.00	  569.69	-1791.19	  401.85
     30.6700	  592.00	  592.23	-1769.73	  401.56
     30.7700	  635.00	  618.75	-1753.25	  401.27
     30.8700	  603.00	  641.55	-1808.05	  400.99
     30.9700	  671.00	  649.02	-1747.52	  400.70
     31.0700	  583.00	  633.72	-1820.22	  400.42
     31.1700	  603.00	  603.81	-1770.31	  400.14
     31.2700	  571.00	  574.25	-1772.75	  399.86
     31.3700	  573.00	  552.67	-1749.17	  399.58
     31.4700	  516.00	  539.69	-1793.19	  399.30
     31.5700	  544.00	  532.81	-1758.31	  399.03
     31.6700	  523.00	  529.30	-1775.80	  398.75
     31.7700	  557.00	  527.36	-1739.86	  398.48
     31.8700	  516.00	  526.12	-1779.62	  398.21
     31.9700	  523.00	  525.27	-1771.77	  397.94
     32.0700	  510.00	  524.66	-1784.16	  397.67
     32.1700	  500.00	  524.23	-1793.73	  397.40
     32.2700	  523.00	  523.98	-1770.48	  397.13
     32.3700	  574.00	  523.87	-1719.37	  396.87
     32.4700	  513.00	  523.93	-1780.43	  396.60
     32.5700	  560.00	  524.15	-1733.65	  396.34
     32.6700	  520.00	  524.57	-1774.07	  396.08
     32.7700	  513.00	  525.24	-1781.74	  395.82
     32.8700	  540.00	  526.21	-1755.71	  395.56
     32.9700	  518.00	  527.61	-1779.11	  395.31
     33.0700	  522.00	  529.64	-1777.14	  395.05
     33.1700	  522.00	  532.77	-1780.27	  394.80
     33.2700	  518.00	  538.05	-1789.55	  394.55
     33.3700	  561.00	  547.77	-1756.27	  394.30
     33.4700	  579.00	  566.33	-1756.83	  394.05
     33.5700	  607.00	  600.80	-1763.30	  393.80
     33.6700	  654.00	  659.26	-1774.76	  393.55
     33.7700	  767.00	  745.28	-1747.78	  393.31
     33.8700	  902.00	  849.40	-1716.90	  393.07
     33.9700	  999.00	  943.44	-1713.94	  392.82
     34.0700	 1089.00	  984.30	-1664.80	  392.58
     34.1700	 1033.00	  940.73	-1677.23	  392.35
     34.2700	  892.00	  835.50	-1713.00	  392.11
     34.3700	  753.00	  722.95	-1739.45	  391.87
     34.4700	  581.00	  636.23	-1824.73	  391.64
     34.5700	  595.00	  581.97	-1756.47	  391.41
     34.6700	  558.00	  552.77	-1764.27	  391.18
     34.7700	  570.00	  538.17	-1737.67	  390.95
     34.8700	  509.00	  530.57	-1791.07	  390.72
     34.9700	  496.00	  526.04	-1799.54	  390.49
     35.0700	  554.00	  522.91	-1738.41	  390.27
     35.1700	  507.00	  520.55	-1783.05	  390.05
     35.2700	  532.00	  518.70	-1756.20	  389.83
     35.3700	  534.00	  517.18	-1752.68	  389.61
     35.4700	  490.00	  515.92	-1795.42	  389.39
     35.5700	  531.00	  514.86	-1753.36	  389.17
     35.6700	  553.00	  513.95	-1730.45	  388.96
     35.7700	  521.00	  513.16	-1761.66	  388.74
     35.8700	  483.00	  512.47	-1798.97	  388.53
     35.9700	  542.00	  511.85	-1739.35	  388.32
     36.0700	  485.00	  511.79	-1796.29	  388.12
     36.1700	  533.00	  511.30	-1747.80	  387.91
     36.2700	  532.00	  510.87	-1748.37	  387.70
     36.3700	  557.00	  510.47	-1722.97	  387.50
     36.4700	  518.00	  510.12	-1761.62	  387.30
     36.5700	  490.00	  509.81	-1789.31	  387.10
     36.6700	  529.00	  509.55	-1750.05	  386.90
     36.7700	  493.00	  509.33	-1785.83	  386.71
     36.8700	  536.00	  509.19	-1742.69	  386.51
     36.9700	  572.00	  509.19	-1706.69	  386.32
     37.0700	  492.00	  509.46	-1786.96	  386.13
     37.1700	  537.00	  510.28	-1742.78	  385.94
     37.2700	  494.00	  512.06	-1787.56	  385.75
     37.3700	  562.00	  515.24	-1722.74	  385.56
     37.4700	  517.00	  519.94	-1772.44	  385.38
     37.5700	  512.00	  525.50	-1783.00	  385.19
     37.6700	  519.00	  530.36	-1780.86	  385.01
     37.7700	  528.00	  532.57	-1774.07	  384.83
     37.8700	  551.00	  531.39	-1749.89	  384.65
     37.9700	  534.00	  528.02	-1763.52	  384.48
     38.0700	  540.00	  523.70	-1753.20	  384.30
     38.1700	  508.00	  518.95	-1780.45	  384.13
     38.2700	  535.00	  514.44	-1748.94	  383.96
     38.3700	  505.00	  510.82	-1775.32	  383.79
     38.4700	  509.00	  508.28	-1768.78	  383.62
     38.5700	  557.00	  506.66	-1719.16	  383.46
     38.6700	  508.00	  505.60	-1767.10	  383.29
     38.7700	  508.00	  505.01	-1766.51	  383.13
     38.8700	  504.00	  504.61	-1770.11	  382.97
     38.9700	  501.00	  504.31	-1772.81	  382.81
     39.0700	  483.00	  504.05	-1790.55	  382.65
     39.1700	  476.00	  503.74	-1797.24	  382.50
     39.2700	  511.00	  503.54	-1762.04	  382.34
     39.3700	  509.00	  503.36	-1763.86	  382.19
     39.4700	  521.00	  503.19	-1751.69	  382.04
     39.5700	  517.00	  503.17	-1755.67	  381.89
     39.6700	  485.00	  503.03	-1787.53	  381.74
     39.7700	  489.00	  502.90	-1783.40	  381.60
     39.8700	  518.00	  502.78	-1754.28	  381.45
     39.9700	  475.00	  502.67	-1797.17	  381.31
     40.0700	  497.00	  502.57	-1775.07	  381.17
     40.1700	  474.00	  502.49	-1797.99	  381.03
     40.2700	  487.00	  502.41	-1784.91	  380.90
     40.3700	  468.00	  502.35	-1803.85	  380.76
     40.4700	  493.00	  502.30	-1778.80	  380.63
     40.5700	  505.00	  502.27	-1766.77	  380.50
     40.6700	  506.00	  502.26	-1765.76	  380.37
     40.7700	  494.00	  502.26	-1777.76	  380.24
     40.8700	  532.00	  502.29	-1739.79	  380.11
     40.9700	  542.00	  502.35	-1729.85	  379.99
     41.0700	  529.00	  502.44	-1742.94	  379.87
     41.1700	  504.00	  502.54	-1768.04	  379.75
     41.2700	  492.00	  502.73	-1780.23	  379.63
     41.3700	  479.00	  502.99	-1793.49	  379.51
     41.4700	  500.00	  503.33	-1772.83	  379.39
     41.5700	  494.00	  503.80	-1779.30	  379.28
     41.6700	  538.00	  504.88	-1736.38	  379.17
     41.7700	  472.00	  505.85	-1803.35	  379.06
     41.8700	  498.00	  507.46	-1778.96	  378.95
     41.9700	  519.00	  510.43	-1760.93	  378.84
     42.0700	  449.00	  516.20	-1836.70	  378.73
     42.1700	  510.00	  527.05	-1786.55	  378.63
     42.2700	  529.00	  545.72	-1786.22	  378.53
     42.3700	  566.00	  573.91	-1777.41	  378.43
     42.4700	  601.00	  609.61	-1778.11	  378.33
     42.5700	  632.00	  645.30	-1782.80	  378.23
     42.6700	  625.00	  668.28	-1812.78	  378.14
     42.7700	  606.00	  666.73	-1830.23	  378.04
     42.8700	  581.00	  640.51	-1829.01	  377.95
     42.9700	  523.00	  602.89	-1849.39	  377.86
     43.0700	  546.00	  567.28	-1790.78	  377.77
     43.1700	  512.00	  540.44	-1797.94	  377.69
     43.2700	  510.00	  523.37	-1782.87	  377.60
     43.3700	  487.00	  513.85	-1796.35	  377.52
     43.4700	  515.00	  508.95	-1763.45	  377.44
     43.5700	  528.00	  506.44	-1747.94	  377.36
     43.6700	  490.00	  505.02	-1784.52	  377.28
     43.7700	  513.00	  504.28	-1760.78	  377.20
     43.8700	  511.00	  503.63	-1762.13	  377.13
     43.9700	  498.00	  503.14	-1774.64	  377.06
     44.0700	  536.00	  502.80	-1736.30	  376.99
     44.1700	  540.00	  502.51	-1732.01	  376.92
     44.2700	  510.00	  502.28	-1761.78	  376.85
     44.3700	  554.00	  502.11	-1717.61	  376.78
     44.4700	  489.00	  501.86	-1782.36	  376.72
     44.5700	  504.00	  501.78	-1767.28	  376.66
     44.6700	  530.00	  501.73	-1741.23	  376.59
     44.7700	  495.00	  501.70	-1776.20	  376.53
     44.8700	  500.00	  501.71	-1771.21	  376.48
     44.9700	  510.00	  501.74	-1761.24	  376.42
     45.0700	  497.00	  501.79	-1774.29	  376.37
     45.1700	  481.00	  501.87	-1790.37	  376.31
     45.2700	  498.00	  502.15	-1773.65	  376.26
     45.3700	  509.00	  502.27	-1762.77	  376.21
     45.4700	  509.00	  502.41	-1762.91	  376.16
     45.5700	  523.00	  502.58	-1749.08	  376.12
     45.6700	  471.00	  502.77	-1801.27	  376.07
     45.7700	  467.00	  502.99	-1805.49	  376.03
     45.8700	  526.00	  503.24	-1746.74	  375.99
     45.9700	  568.00	  503.52	-1705.02	  375.95
     46.0700	  476.00	  503.84	-1797.34	  375.91
     46.1700	  501.00	  504.19	-1772.69	  375.88
     46.2700	  497.00	  504.58	-1777.08	  375.84
     46.3700	  446.00	  505.03	-1828.53	  375.81
     46.4700	  513.00	  505.54	-1762.04	  375.78
     46.5700	  496.00	  506.11	-1779.61	  375.75
     46.6700	  506.00	  506.77	-1770.27	  375.72
     46.7700	  501.00	  507.54	-1776.04	  375.69
     46.8700	  492.00	  508.48	-1785.98	  375.66
     46.9700	  528.00	  509.70	-1751.20	  375.64
     47.0700	  475.00	  511.47	-1805.97	  375.62
     47.1700	  529.00	  514.29	-1754.79	  375.60
     47.2700	  514.00	  519.10	-1774.60	  375.58
     47.3700	  485.00	  527.12	-1811.62	  375.56
     47.4700	  508.00	  539.45	-1800.95	  375.55
     47.5700	  563.00	  556.43	-1762.93	  375.53
     47.6700	  597.00	  576.49	-1748.99	  375.52
     47.7700	  551.00	  595.53	-1814.03	  375.51
     47.8700	  607.00	  607.52	-1770.02	  375.50
     47.9700	  642.00	  607.49	-1734.99	  375.49
     48.0700	  546.00	  596.09	-1819.59	  375.48
     48.1700	  579.00	  579.23	-1769.73	  375.48
     48.2700	  516.00	  563.01	-1816.51	  375.47
     48.3700	  577.00	  550.87	-1743.37	  375.47
     48.4700	  552.00	  543.90	-1761.40	  375.47
     48.5700	  537.00	  541.53	-1774.03	  375.47
     48.6700	  550.00	  542.63	-1762.13	  375.48
     48.7700	  541.00	  546.20	-1774.70	  375.48
     48.8700	  518.00	  551.74	-1803.24	  375.48
     48.9700	  500.00	  559.29	-1828.79	  375.49
     49.0700	  576.00	  569.55	-1763.05	  375.50
     49.1700	  589.00	  584.22	-1764.72	  375.51
     49.2700	  638.00	  606.94	-1738.44	  375.52
     49.3700	  649.00	  644.62	-1765.12	  375.53
     49.4700	  710.00	  708.95	-1768.45	  375.55
     49.5700	  824.00	  816.94	-1762.44	  375.56
     49.6700	  952.00	  986.89	-1804.39	  375.58
     49.7700	 1125.00	 1232.87	-1877.37	  375.60
     49.8700	 1453.00	 1552.22	-1868.72	  375.62
     49.9700	 1863.00	 1913.66	-1820.16	  375.64
     50.0700	 2158.00	 2248.06	-1859.56	  375.66
     50.1700	 2549.00	 2454.83	-1675.33	  375.69
     50.2700	 2631.00	 2447.58	-1586.08	  375.71
     50.3700	 2296.00	 2227.50	-1701.00	  375.74
     50.4700	 1792.00	 1885.98	-1863.48	  375.77
     50.5700	 1453.00	 1526.75	-1843.25	  375.80
     50.6700	 1020.00	 1216.98	-1966.48	  375.83
     50.7700	  801.00	  985.10	-1953.60	  375.86
     50.8700	  679.00	  831.21	-1921.71	  375.89
     50.9700	  663.00	  739.00	-1845.50	  375.93
     51.0700	  624.00	  686.81	-1832.31	  375.97
     51.1700	  596.00	  655.28	-1828.78	  376.00
     51.2700	  582.00	  631.63	-1819.13	  376.04
     51.3700	  579.00	  610.60	-1801.10	  376.08
     51.4700	  550.00	  591.75	-1811.25	  376.13
     51.5700	  574.00	  575.96	-1771.46	  376.17
     51.6700	  534.00	  563.81	-1799.31	  376.21
     51.7700	  536.00	  555.14	-1788.64	  376.26
     51.8700	  504.00	  549.31	-1814.81	  376.31
     51.9700	  552.00	  545.52	-1763.02	  376.35
     52.0700	  582.00	  543.11	-1730.61	  376.40
     52.1700	  539.00	  541.72	-1772.22	  376.45
     52.2700	  591.00	  541.47	-1719.97	  376.51
     52.3700	  546.00	  542.00	-1765.50	  376.56
     52.4700	  588.00	  543.91	-1725.41	  376.61
     52.5700	  567.00	  548.18	-1750.68	  376.67
     52.6700	  634.00	  556.84	-1692.34	  376.73
     52.7700	  574.00	  573.72	-1769.22	  376.79
     52.8700	  681.00	  604.83	-1693.33	  376.84
     52.9700	  742.00	  657.82	-1685.32	  376.91
     53.0700	  789.00	  739.42	-1719.92	  376.97
     53.1700	  893.00	  851.11	-1727.61	  377.03
     53.2700	 1044.00	  983.99	-1709.49	  377.09
     53.3700	 1160.00	 1115.46	-1724.96	  377.16
     53.4700	 1184.00	 1210.58	-1796.08	  377.23
     53.5700	 1188.00	 1234.18	-1815.68	  377.29
     53.6700	 1063.00	 1175.43	-1881.93	  377.36
     53.7700	 1029.00	 1058.70	-1799.20	  377.43
     53.8700	  901.00	  922.52	-1791.02	  377.50
     53.9700	  791.00	  797.25	-1775.75	  377.58
     54.0700	  658.00	  699.09	-1810.59	  377.65
     54.1700	  579.00	  631.56	-1822.06	  377.72
     54.2700	  576.00	  590.08	-1783.58	  377.80
     54.3700	  563.00	  566.87	-1773.37	  377.88
     54.4700	  525.00	  554.85	-1799.35	  377.95
     54.5700	  549.00	  548.93	-1769.43	  378.03
     54.6700	  564.00	  546.18	-1751.68	  378.11
     54.7700	  525.00	  545.14	-1789.64	  378.19
     54.8700	  534.00	  545.16	-1780.66	  378.28
     54.9700	  549.00	  545.99	-1766.49	  378.36
     55.0700	  546.00	  547.55	-1771.05	  378.44
     55.1700	  539.00	  549.85	-1780.35	  378.53
     55.2700	  566.00	  552.97	-1756.47	  378.61
     55.3700	  607.00	  556.98	-1719.48	  378.70
     55.4700	  555.00	  562.11	-1776.61	  378.79
     55.5700	  552.00	  568.76	-1786.26	  378.88
     55.6700	  554.00	  577.70	-1793.20	  378.97
     55.7700	  587.00	  590.56	-1773.06	  379.06
     55.8700	  585.00	  610.61	-1795.11	  379.15
     55.9700	  571.00	  644.05	-1842.55	  379.24
     56.0700	  694.00	  701.25	-1776.75	  379.34
     56.1700	  740.00	  797.42	-1826.92	  379.43
     56.2700	  869.00	  950.77	-1851.27	  379.53
     56.3700	 1090.00	 1177.36	-1856.86	  379.63
     56.4700	 1406.00	 1482.17	-1845.67	  379.72
     56.5700	 1790.00	 1849.17	-1828.67	  379.82
     56.6700	 2068.00	 2233.26	-1934.76	  379.92
     56.7700	 2543.00	 2558.11	-1784.61	  380.02
     56.8700	 2723.00	 2730.39	-1776.89	  380.12
     56.9700	 2598.00	 2686.19	-1857.69	  380.22
     57.0700	 2355.00	 2442.63	-1857.13	  380.33
     57.1700	 2078.00	 2083.84	-1775.34	  380.43
     57.2700	 1689.00	 1701.08	-1781.58	  380.54
     57.3700	 1274.00	 1358.58	-1854.08	  380.64
     57.4700	 1052.00	 1088.93	-1806.43	  380.75
     57.5700	  917.00	  898.47	-1750.97	  380.85
     57.6700	  752.00	  776.85	-1794.35	  380.96
     57.7700	  708.00	  706.99	-1768.49	  381.07
     57.8700	  671.00	  672.81	-1771.31	  381.18
     57.9700	  674.00	  663.09	-1758.59	  381.29
     58.0700	  690.00	  671.94	-1751.44	  381.40
     58.1700	  749.00	  697.48	-1717.98	  381.51
     58.2700	  772.00	  739.90	-1737.40	  381.62
     58.3700	  860.00	  799.45	-1708.95	  381.74
     58.4700	  937.00	  874.74	-1707.24	  381.85
     58.5700	 1093.00	  961.11	-1637.61	  381.97
     58.6700	 1267.00	 1050.06	-1552.56	  382.08
     58.7700	 1399.00	 1131.72	-1502.22	  382.20
     58.8700	 1557.00	 1199.28	-1411.78	  382.31
     58.9700	 1613.00	 1248.71	-1405.21	  382.43
     59.0700	 1598.00	 1274.72	-1446.22	  382.55
     59.1700	 1567.00	 1272.89	-1475.39	  382.67
     59.2700	 1510.00	 1247.57	-1507.07	  382.79
     59.3700	 1380.00	 1211.94	-1601.44	  382.91
     59.4700	 1286.00	 1179.10	-1662.60	  383.03
     59.5700	 1177.00	 1157.26	-1749.76	  383.15
     59.6700	 1165.00	 1152.53	-1757.03	  383.27
     59.7700	 1150.00	 1172.36	-1791.86	  383.39
     59.8700	 1237.00	 1222.04	-1754.54	  383.52
     59.9700	 1356.00	 1298.32	-1711.82	  383.64
     60.0700	 1452.00	 1385.70	-1703.20	  383.76
     60.1700	 1609.00	 1457.03	-1617.53	  383.89
     60.2700	 1571.00	 1480.51	-1679.01	  384.01
     60.3700	 1493.00	 1436.53	-1713.03	  384.14
     60.4700	 1445.00	 1331.87	-1656.37	  384.27
     60.5700	 1305.00	 1192.73	-1657.23	  384.39
     60.6700	 1071.00	 1047.16	-1745.66	  384.52
     60.7700	  966.00	  915.56	-1719.06	  384.65
     60.8700	  810.00	  809.36	-1768.86	  384.78
     60.9700	  676.00	  732.37	-1825.87	  384.91
     61.0700	  656.00	  683.36	-1796.86	  385.03
     61.1700	  648.00	  659.08	-1780.58	  385.16
     61.2700	  635.00	  656.99	-1791.49	  385.29
     61.3700	  643.00	  676.91	-1803.41	  385.43
     61.4700	  673.00	  721.13	-1817.63	  385.56
     61.5700	  769.00	  793.12	-1793.62	  385.69
     61.6700	  840.00	  895.04	-1824.54	  385.82
     61.7700	  991.00	 1024.61	-1803.11	  385.95
     61.8700	 1131.00	 1172.42	-1810.92	  386.09
     61.9700	 1288.00	 1320.02	-1801.52	  386.22
     62.0700	 1354.00	 1440.18	-1855.68	  386.35
     62.1700	 1309.00	 1502.00	-1962.50	  386.49
     62.2700	 1404.00	 1485.32	-1850.82	  386.62
     62.3700	 1289.00	 1395.19	-1875.69	  386.75
     62.4700	 1169.00	 1258.02	-1858.52	  386.89
     62.5700	 1097.00	 1104.59	-1777.09	  387.02
     62.6700	  878.00	  958.88	-1850.38	  387.16
     62.7700	  788.00	  835.46	-1816.96	  387.30
     62.8700	  680.00	  740.27	-1829.77	  387.43
     62.9700	  589.00	  672.63	-1853.13	  387.57
     63.0700	  587.00	  627.92	-1810.42	  387.70
     63.1700	  611.00	  600.15	-1758.65	  387.84
     63.2700	  561.00	  583.85	-1792.35	  387.98
     63.3700	  562.00	  574.97	-1782.47	  388.12
     63.4700	  566.00	  571.10	-1774.60	  388.25
     63.5700	  619.00	  571.31	-1721.81	  388.39
     63.6700	  556.00	  575.93	-1789.43	  388.53
     63.7700	  556.00	  586.29	-1799.79	  388.67
     63.8700	  657.00	  604.42	-1716.92	  388.81
     63.9700	  688.00	  632.54	-1714.04	  388.95
     64.0700	  754.00	  672.28	-1687.78	  389.08
     64.1700	  760.00	  723.73	-1733.23	  389.22
     64.2700	  848.00	  784.43	-1705.93	  389.36
     64.3700	  912.00	  848.74	-1706.24	  389.50
     64.4700	  963.00	  907.66	-1714.16	  389.64
     64.5700	 1044.00	  949.79	-1675.29	  389.78
     64.6700	 1002.00	  966.99	-1734.49	  389.92
     64.7700	 1024.00	  955.80	-1701.30	  390.06
     64.8700	  993.00	  920.37	-1696.87	  390.20
     64.9700	  928.00	  869.24	-1710.74	  390.34
     65.0700	  865.00	  812.28	-1716.78	  390.48
     65.1700	  800.00	  757.76	-1727.26	  390.62
     65.2700	  749.00	  710.57	-1731.07	  390.76
     65.3700	  690.00	  672.26	-1751.76	  390.90
     65.4700	  667.00	  642.11	-1744.61	  391.04
     65.5700	  646.00	  618.67	-1742.17	  391.18
     65.6700	  592.00	  600.59	-1778.09	  391.32
     65.7700	  560.00	  586.89	-1796.39	  391.46
     65.8700	  562.00	  576.81	-1784.31	  391.60
     65.9700	  550.00	  569.76	-1789.26	  391.74
     66.0700	  542.00	  565.29	-1792.79	  391.88
     66.1700	  583.00	  562.98	-1749.48	  392.02
     66.2700	  568.00	  562.46	-1763.96	  392.16
     66.3700	  553.00	  563.44	-1779.94	  392.30
     66.4700	  545.00	  565.75	-1790.25	  392.44
     66.5700	  593.00	  569.43	-1745.93	  392.58
     66.6700	  545.00	  574.92	-1799.42	  392.72
     66.7700	  518.00	  582.88	-1834.38	  392.86
     66.8700	  564.00	  595.05	-1800.55	  393.00
     66.9700	  577.00	  614.34	-1806.84	  393.14
     67.0700	  636.00	  645.40	-1778.90	  393.28
     67.1700	  674.00	  694.92	-1790.42	  393.42
     67.2700	  802.00	  771.45	-1738.95	  393.56
     67.3700	  900.00	  884.30	-1753.80	  393.70
     67.4700	  995.00	 1041.14	-1815.64	  393.83
     67.5700	 1277.00	 1245.39	-1737.89	  393.97
     67.6700	 1544.00	 1491.57	-1717.07	  394.11
     67.7700	 1763.00	 1763.40	-1769.90	  394.25
     67.8700	 2047.00	 2031.97	-1754.47	  394.39
     67.9700	 2231.00	 2256.66	-1795.16	  394.52
     68.0700	 2463.00	 2391.73	-1698.23	  394.66
     68.1700	 2443.00	 2402.73	-1729.23	  394.80
     68.2700	 2260.00	 2286.54	-1796.04	  394.94
     68.3700	 2051.00	 2073.63	-1792.13	  395.07
     68.4700	 1818.00	 1809.50	-1761.00	  395.21
     68.5700	 1589.00	 1536.37	-1716.87	  395.34
     68.6700	 1288.00	 1284.95	-1766.45	  395.48
     68.7700	 1061.00	 1073.72	-1782.22	  395.62
     68.8700	  856.00	  909.54	-1823.04	  395.75
     68.9700	  827.00	  790.50	-1733.00	  395.89
     69.0700	  679.00	  709.20	-1799.70	  396.02
     69.1700	  649.00	  656.40	-1776.90	  396.15
     69.2700	  582.00	  623.34	-1810.84	  396.29
     69.3700	  626.00	  603.00	-1746.50	  396.42
     69.4700	  575.00	  590.39	-1784.89	  396.55
     69.5700	  576.00	  582.34	-1775.84	  396.69
     69.6700	  560.00	  577.00	-1786.50	  396.82
     69.7700	  603.00	  573.32	-1739.82	  396.95
     69.8700	  569.00	  570.78	-1771.28	  397.08
     69.9700	  576.00	  569.11	-1762.61	  397.21
     70.0700	  614.00	  568.16	-1723.66	  397.35
     70.1700	  579.00	  567.90	-1758.40	  397.48
     70.2700	  567.00	  568.35	-1770.85	  397.61
     70.3700	  551.00	  569.58	-1788.08	  397.73
     70.4700	  597.00	  571.83	-1744.33	  397.86
     70.5700	  581.00	  575.53	-1764.03	  397.99
     70.6700	  534.00	  581.52	-1817.02	  398.12
     70.7700	  590.00	  591.25	-1770.75	  398.25
     70.8700	  568.00	  607.04	-1808.54	  398.37
     70.9700	  612.00	  632.40	-1789.90	  398.50
     71.0700	  659.00	  672.03	-1782.53	  398.63
     71.1700	  735.00	  731.68	-1766.18	  398.75
     71.2700	  817.00	  817.22	-1769.72	  398.88
     71.3700	  900.00	  933.27	-1802.77	  399.00
     71.4700	 1018.00	 1081.24	-1832.74	  399.13
     71.5700	 1240.00	 1258.20	-1787.70	  399.25
     71.6700	 1351.00	 1452.12	-1870.62	  399.37
     71.7700	 1586.00	 1645.93	-1829.43	  399.49
     71.8700	 1757.00	 1814.89	-1827.39	  399.61
     71.9700	 1857.00	 1930.38	-1842.88	  399.74
     72.0700	 1910.00	 1967.91	-1827.41	  399.86
     72.1700	 1924.00	 1918.62	-1764.12	  399.98
     72.2700	 1850.00	 1794.23	-1713.73	  400.09
     72.3700	 1675.00	 1621.53	-1716.03	  400.21
     72.4700	 1482.00	 1428.45	-1715.95	  400.33
     72.5700	 1413.00	 1238.49	-1594.99	  400.45
     72.6700	 1202.00	 1068.00	-1635.50	  400.56
     72.7700	 1067.00	  925.92	-1628.42	  400.68
     72.8700	  898.00	  814.80	-1686.30	  400.79
     72.9700	  866.00	  732.48	-1635.98	  400.91
     73.0700	  759.00	  674.22	-1684.72	  401.02
     73.1700	  699.00	  634.38	-1704.88	  401.14
     73.2700	  766.00	  607.74	-1611.24	  401.25
     73.3700	  698.00	  590.04	-1661.54	  401.36
     73.4700	  628.00	  578.18	-1719.68	  401.47
     73.5700	  612.00	  570.13	-1727.63	  401.58
     73.6700	  586.00	  564.60	-1748.10	  401.69
     73.7700	  619.00	  560.84	-1711.34	  401.80
     73.8700	  583.00	  558.40	-1744.90	  401.90
     73.9700	  604.00	  556.99	-1722.49	  402.01
     74.0700	  623.00	  556.42	-1702.92	  402.12
     74.1700	  599.00	  556.51	-1727.01	  402.22
     74.2700	  624.00	  557.03	-1702.53	  402.33
     74.3700	  619.00	  557.76	-1708.26	  402.43
     74.4700	  593.00	  558.41	-1734.91	  402.53
     74.5700	  634.00	  558.68	-1694.18	  402.64
     74.6700	  605.00	  558.33	-1722.83	  402.74
     74.7700	  590.00	  557.28	-1736.78	  402.84
     74.8700	  620.00	  555.66	-1705.16	  402.94
     74.9700	  612.00	  553.74	-1711.24	  403.04
     75.0700	  620.00	  551.85	-1701.35	  403.13
     75.1700	  572.00	  550.33	-1747.83	  403.23
     75.2700	  531.00	  549.47	-1787.97	  403.33
     75.3700	  606.00	  549.82	-1713.32	  403.42
     75.4700	  534.00	  551.74	-1787.24	  403.52
     75.5700	  531.00	  555.62	-1794.12	  403.61
     75.6700	  543.00	  562.20	-1788.70	  403.70
     75.7700	  534.00	  571.86	-1807.36	  403.79
     75.8700	  563.00	  584.95	-1791.45	  403.88
     75.9700	  617.00	  601.49	-1753.99	  403.97
     76.0700	  610.00	  621.02	-1780.52	  404.06
     76.1700	  609.00	  642.45	-1802.95	  404.15
     76.2700	  697.00	  664.09	-1736.59	  404.24
     76.3700	  714.00	  683.60	-1739.10	  404.32
     76.4700	  674.00	  698.24	-1793.74	  404.41
     76.5700	  697.00	  705.46	-1777.96	  404.49
     76.6700	  683.00	  703.77	-1790.27	  404.57
     76.7700	  729.00	  693.51	-1734.01	  404.66
     76.8700	  651.00	  676.63	-1795.13	  404.74
     76.9700	  617.00	  655.68	-1808.18	  404.82
     77.0700	  606.00	  633.63	-1797.13	  404.90
     77.1700	  589.00	  612.41	-1792.91	  404.97
     77.2700	  596.00	  593.50	-1767.00	  405.05
     77.3700	  572.00	  577.71	-1775.21	  405.13
     77.4700	  515.00	  565.27	-1819.77	  405.20
     77.5700	  515.00	  555.98	-1810.48	  405.27
     77.6700	  564.00	  549.37	-1754.87	  405.35
     77.7700	  537.00	  544.87	-1777.37	  405.42
     77.8700	  522.00	  541.90	-1789.40	  405.49
     77.9700	  495.00	  540.00	-1814.50	  405.56
     78.0700	  522.00	  538.80	-1786.30	  405.62
     78.1700	  491.00	  538.05	-1816.55	  405.69
     78.2700	  506.00	  537.58	-1801.08	  405.76
     78.3700	  527.00	  537.30	-1779.80	  405.82
     78.4700	  579.00	  537.14	-1727.64	  405.89
     78.5700	  538.00	  537.09	-1768.59	  405.95
     78.6700	  552.00	  537.14	-1754.64	  406.01
     78.7700	  532.00	  537.28	-1774.78	  406.07
     78.8700	  505.00	  537.55	-1802.05	  406.13
     78.9700	  540.00	  537.97	-1767.47	  406.19
     79.0700	  533.00	  538.59	-1775.09	  406.24
     79.1700	  474.00	  539.45	-1834.95	  406.30
     79.2700	  556.00	  540.45	-1753.95	  406.35
     79.3700	  507.00	  541.99	-1804.49	  406.41
     79.4700	  521.00	  543.99	-1792.49	  406.46
     79.5700	  515.00	  546.52	-1801.02	  406.51
     79.6700	  513.00	  549.67	-1806.17	  406.56
     79.7700	  499.00	  553.55	-1824.05	  406.61
     79.8700	  557.00	  558.32	-1770.82	  406.66
     79.9700	  579.00	  564.15	-1754.65	  406.70
     80.0700	  553.00	  571.27	-1787.77	  406.75
     80.1700	  549.00	  579.93	-1800.43	  406.79
     80.2700	  555.00	  590.45	-1804.95	  406.83
     80.3700	  526.00	  603.08	-1846.58	  406.88
     80.4700	  547.00	  617.92	-1840.42	  406.92
     80.5700	  615.00	  634.81	-1789.31	  406.95
     80.6700	  588.00	  653.22	-1834.72	  406.99
     80.7700	  610.00	  672.25	-1831.75	  407.03
     80.8700	  689.00	  690.66	-1771.16	  407.06
     80.9700	  675.00	  707.01	-1801.51	  407.10
     81.0700	  703.00	  720.01	-1786.51	  407.13
     81.1700	  768.00	  728.72	-1730.22	  407.16
     81.2700	  727.00	  732.54	-1775.04	  407.19
     81.3700	  777.00	  731.31	-1723.81	  407.22
     81.4700	  786.00	  725.23	-1708.73	  407.25
     81.5700	  758.00	  714.90	-1726.40	  407.27
     81.6700	  756.00	  701.10	-1714.60	  407.30
     81.7700	  768.00	  684.69	-1686.19	  407.32
     81.8700	  729.00	  666.58	-1707.08	  407.34
     81.9700	  696.00	  647.95	-1721.45	  407.36
     82.0700	  726.00	  629.79	-1673.29	  407.38
     82.1700	  692.00	  612.94	-1690.44	  407.40
     82.2700	  666.00	  597.96	-1701.46	  407.42
     82.3700	  648.00	  585.16	-1706.66	  407.43
     82.4700	  631.00	  574.62	-1713.12	  407.45
     82.5700	  619.00	  566.36	-1716.86	  407.46
     82.6700	  593.00	  560.24	-1736.74	  407.47
     82.7700	  613.00	  556.08	-1712.58	  407.48
     82.8700	  546.00	  553.72	-1777.22	  407.49
     82.9700	  557.00	  553.00	-1765.50	  407.50
     83.0700	  546.00	  553.79	-1777.29	  407.50
     83.1700	  554.00	  555.97	-1771.47	  407.51
     83.2700	  532.00	  559.40	-1796.90	  407.51
     83.3700	  533.00	  563.91	-1800.41	  407.51
     83.4700	  549.00	  569.25	-1789.75	  407.51
     83.5700	  561.00	  575.06	-1783.56	  407.51
     83.6700	  573.00	  580.90	-1777.40	  407.51
     83.7700	  536.00	  586.23	-1819.73	  407.51
     83.8700	  627.00	  590.42	-1732.92	  407.50
     83.9700	  622.00	  592.89	-1740.39	  407.49
     84.0700	  581.00	  593.22	-1781.72	  407.49
     84.1700	  542.00	  591.33	-1818.83	  407.48
     84.2700	  559.00	  587.49	-1797.99	  407.47
     84.3700	  559.00	  582.22	-1792.72	  407.45
     84.4700	  551.00	  576.12	-1794.62	  407.44
     84.5700	  541.00	  569.75	-1798.25	  407.43
     84.6700	  513.00	  563.56	-1820.06	  407.41
     84.7700	  571.00	  557.90	-1756.40	  407.39
     84.8700	  590.00	  552.98	-1732.48	  407.37
     84.9700	  535.00	  548.91	-1783.41	  407.35
     85.0700	  530.00	  545.70	-1785.20	  407.33
     85.1700	  517.00	  543.29	-1795.79	  407.31
     85.2700	  494.00	  541.60	-1817.10	  407.28
     85.3700	  501.00	  540.50	-1809.00	  407.26
     85.4700	  516.00	  539.91	-1793.41	  407.23
     85.5700	  499.00	  539.72	-1810.22	  407.20
     85.6700	  529.00	  539.89	-1780.39	  407.17
     85.7700	  556.00	  540.38	-1753.88	  407.14
     85.8700	  536.00	  541.20	-1774.70	  407.10
     85.9700	  466.00	  542.39	-1845.89	  407.07
     86.0700	  555.00	  544.02	-1758.52	  407.03
     86.1700	  539.00	  546.18	-1776.68	  406.99
     86.2700	  555.00	  549.02	-1763.52	  406.95
     86.3700	  514.00	  552.67	-1808.17	  406.91
     86.4700	  579.00	  557.29	-1747.79	  406.87
     86.5700	  559.00	  562.99	-1773.49	  406.83
     86.6700	  548.00	  569.53	-1791.03	  406.78
     86.7700	  574.00	  577.48	-1772.98	  406.74
     86.8700	  612.00	  586.33	-1743.83	  406.69
     86.9700	  549.00	  595.72	-1816.22	  406.64
     87.0700	  624.00	  605.10	-1750.60	  406.59
     87.1700	  628.00	  613.81	-1755.31	  406.53
     87.2700	  645.00	  621.07	-1745.57	  406.48
     87.3700	  673.00	  626.07	-1722.57	  406.43
     87.4700	  620.00	  628.19	-1777.69	  406.37
     87.5700	  623.00	  627.11	-1773.61	  406.31
     87.6700	  619.00	  623.04	-1773.54	  406.25
     87.7700	  615.00	  616.56	-1771.06	  406.19
     87.8700	  642.00	  608.53	-1736.03	  406.13
     87.9700	  627.00	  599.85	-1742.35	  406.06
     88.0700	  627.00	  591.38	-1733.88	  406.00
     88.1700	  631.00	  583.82	-1722.32	  405.93
     88.2700	  589.00	  577.76	-1758.26	  405.86
     88.3700	  542.00	  573.56	-1801.06	  405.79
     88.4700	  599.00	  571.43	-1741.93	  405.72
     88.5700	  560.00	  571.39	-1780.89	  405.65
     88.6700	  571.00	  573.31	-1771.81	  405.57
     88.7700	  549.00	  576.88	-1797.38	  405.50
     88.8700	  606.00	  581.71	-1745.21	  405.42
     88.9700	  606.00	  587.28	-1750.78	  405.34
     89.0700	  612.00	  593.01	-1750.51	  405.26
     89.1700	  642.00	  598.24	-1725.74	  405.18
     89.2700	  605.00	  602.35	-1766.85	  405.10
     89.3700	  629.00	  604.73	-1745.23	  405.01
     89.4700	  602.00	  605.03	-1772.53	  404.92
     89.5700	  665.00	  603.13	-1707.63	  404.84
     89.6700	  600.00	  599.26	-1768.76	  404.75
     89.7700	  598.00	  593.86	-1765.36	  404.66
     89.8700	  588.00	  587.48	-1768.98	  404.57
     89.9700	  559.00	  580.62	-1791.12	  404.47
     90.0700	  534.00	  573.77	-1809.27	  404.38
     90.1700	  492.00	  567.29	-1844.79	  404.28
     90.2700	  542.00	  561.45	-1788.95	  404.18
     90.3700	  518.00	  556.41	-1807.91	  404.08
     90.4700	  554.00	  552.24	-1767.74	  403.98
     90.5700	  580.00	  548.94	-1738.44	  403.88
     90.6700	  529.00	  546.44	-1786.94	  403.78
     90.7700	  512.00	  544.66	-1802.16	  403.67
     90.8700	  543.00	  543.48	-1769.98	  403.57
     90.9700	  536.00	  542.82	-1776.32	  403.46
     91.0700	  526.00	  542.61	-1786.11	  403.35
     91.1700	  500.00	  542.79	-1812.29	  403.24
     91.2700	  536.00	  543.36	-1776.86	  403.13
     91.3700	  485.00	  544.36	-1828.86	  403.01
     91.4700	  534.00	  545.86	-1781.36	  402.90
     91.5700	  529.00	  547.98	-1788.48	  402.78
     91.6700	  515.00	  550.88	-1805.38	  402.66
     91.7700	  521.00	  554.74	-1803.24	  402.55
     91.8700	  529.00	  559.53	-1800.03	  402.42
     91.9700	  549.00	  565.91	-1786.41	  402.30
     92.0700	  550.00	  573.83	-1793.33	  402.18
     92.1700	  579.00	  583.42	-1773.92	  402.05
     92.2700	  567.00	  594.70	-1797.20	  401.93
     92.3700	  622.00	  607.64	-1755.14	  401.80
     92.4700	  632.00	  622.03	-1759.53	  401.67
     92.5700	  657.00	  637.58	-1750.08	  401.54
     92.6700	  693.00	  653.81	-1730.31	  401.41
     92.7700	  698.00	  670.17	-1741.67	  401.28
     92.8700	  695.00	  685.97	-1760.47	  401.14
     92.9700	  648.00	  700.53	-1822.03	  401.01
     93.0700	  704.00	  713.30	-1778.80	  400.87
     93.1700	  790.00	  723.98	-1703.48	  400.73
     93.2700	  831.00	  732.69	-1671.19	  400.59
     93.3700	  819.00	  739.92	-1690.42	  400.45
     93.4700	  874.00	  746.39	-1641.89	  400.31
     93.5700	  799.00	  752.86	-1723.36	  400.16
     93.6700	  824.00	  760.06	-1705.56	  400.02
     93.7700	  826.00	  768.58	-1712.07	  399.87
     93.8700	  834.00	  778.90	-1714.40	  399.73
     93.9700	  903.00	  791.42	-1657.92	  399.58
     94.0700	  882.00	  806.37	-1693.87	  399.43
     94.1700	  836.00	  823.74	-1757.24	  399.27
     94.2700	  894.00	  843.19	-1718.69	  399.12
     94.3700	  894.00	  863.90	-1739.40	  398.97
     94.4700	  839.00	  884.62	-1815.12	  398.81
     94.5700	  928.00	  903.69	-1745.19	  398.65
     94.6700	  943.00	  919.19	-1745.69	  398.50
     94.7700	  888.00	  929.12	-1810.62	  398.34
     94.8700	  910.00	  931.84	-1791.34	  398.18
     94.9700	  920.00	  926.40	-1775.90	  398.02
     95.0700	  942.00	  912.91	-1740.41	  397.85
     95.1700	  872.00	  892.42	-1789.92	  397.69
     95.2700	  844.00	  866.69	-1792.19	  397.52
     95.3700	  805.00	  837.80	-1802.30	  397.36
     95.4700	  755.00	  807.88	-1822.38	  397.19
     95.5700	  768.00	  778.97	-1780.47	  397.02
     95.6700	  722.00	  752.92	-1800.42	  396.85
     95.7700	  703.00	  731.38	-1797.88	  396.68
     95.8700	  705.00	  715.84	-1780.34	  396.50
     95.9700	  694.00	  707.57	-1783.07	  396.33
     96.0700	  677.00	  707.68	-1800.18	  396.15
     96.1700	  663.00	  717.09	-1823.59	  395.98
     96.2700	  724.00	  736.52	-1782.02	  395.80
     96.3700	  768.00	  766.44	-1767.94	  395.62
     96.4700	  764.00	  807.00	-1812.50	  395.44
     96.5700	  831.00	  857.90	-1796.40	  395.26
     96.6700	  894.00	  918.33	-1793.83	  395.08
     96.7700	  966.00	  986.86	-1790.36	  394.90
     96.8700	  984.00	 1061.35	-1846.85	  394.71
     96.9700	 1086.00	 1138.96	-1822.46	  394.53
     97.0700	 1177.00	 1216.14	-1808.64	  394.34
     97.1700	 1326.00	 1288.77	-1732.27	  394.15
     97.2700	 1308.00	 1352.34	-1813.84	  393.97
     97.3700	 1423.00	 1402.24	-1748.74	  393.78
     97.4700	 1456.00	 1434.47	-1747.97	  393.58
     97.5700	 1428.00	 1446.32	-1787.82	  393.39
     97.6700	 1475.00	 1436.98	-1731.48	  393.20
     97.7700	 1418.00	 1407.78	-1759.28	  393.01
     97.8700	 1338.00	 1361.70	-1793.20	  392.81
     97.9700	 1271.00	 1302.89	-1801.39	  392.62
     98.0700	 1175.00	 1235.80	-1830.30	  392.42
     98.1700	 1200.00	 1164.80	-1734.30	  392.22
     98.2700	 1095.00	 1093.91	-1768.41	  392.02
     98.3700	 1012.00	 1026.65	-1784.15	  391.82
     98.4700	 1019.00	  965.95	-1716.45	  391.62
     98.5700	  912.00	  914.16	-1771.66	  391.42
     98.6700	  827.00	  873.06	-1815.56	  391.22
     98.7700	  824.00	  843.97	-1789.47	  391.02
     98.8700	  778.00	  827.84	-1819.34	  390.81
     98.9700	  823.00	  825.30	-1771.80	  390.61
     99.0700	  771.00	  836.74	-1835.24	  390.40
     99.1700	  812.00	  862.35	-1819.85	  390.19
     99.2700	  838.00	  902.13	-1833.63	  389.99
     99.3700	  921.00	  955.84	-1804.34	  389.78
     99.4700	  968.00	 1022.97	-1824.47	  389.57
     99.5700	 1078.00	 1102.66	-1794.16	  389.36
     99.6700	 1219.00	 1193.56	-1744.06	  389.15
     99.7700	 1311.00	 1293.79	-1752.29	  388.94
     99.8700	 1394.00	 1400.81	-1776.31	  388.72
     99.9700	 1492.00	 1511.37	-1788.87	  388.51
    100.0700	 1644.00	 1621.61	-1747.11	  388.30
    100.1700	 1715.00	 1727.19	-1781.69	  388.08
    100.2700	 1851.00	 1823.68	-1742.18	  387.86
    100.3700	 2020.00	 1907.12	-1656.62	  387.65
    100.4700	 1977.00	 1974.31	-1766.81	  387.43
    100.5700	 2098.00	 2023.05	-1694.55	  387.21
    100.6700	 2017.00	 2051.88	-1804.38	  387.00
    100.7700	 2082.00	 2059.97	-1747.47	  386.78
    100.8700	 2038.00	 2046.92	-1778.42	  386.56
    100.9700	 2054.00	 2013.04	-1728.54	  386.34
    101.0700	 1966.00	 1959.70	-1763.20	  386.12
    101.1700	 1922.00	 1889.64	-1737.14	  385.89
    101.2700	 1881.00	 1806.89	-1695.39	  385.67
    101.3700	 1738.00	 1716.28	-1747.78	  385.45
    101.4700	 1647.00	 1622.84	-1745.34	  385.23
    101.5700	 1594.00	 1531.18	-1706.68	  385.00
    101.6700	 1439.00	 1445.21	-1775.71	  384.78
    101.7700	 1421.00	 1367.82	-1716.32	  384.55
    101.8700	 1378.00	 1300.83	-1692.33	  384.33
    101.9700	 1230.00	 1245.05	-1784.55	  384.10
    102.0700	 1195.00	 1200.25	-1774.75	  383.87
    102.1700	 1204.00	 1165.32	-1730.82	  383.65
    102.2700	 1108.00	 1138.38	-1799.88	  383.42
    102.3700	 1137.00	 1116.98	-1749.48	  383.19
    102.4700	 1086.00	 1098.45	-1781.95	  382.96
    102.5700	 1089.00	 1080.12	-1760.62	  382.73
    102.6700	 1031.00	 1059.75	-1798.25	  382.51
    102.7700	  987.00	 1035.77	-1818.27	  382.28
    102.8700	 1003.00	 1007.48	-1773.98	  382.05
    102.9700	  958.00	  974.97	-1786.47	  381.82
    103.0700	  906.00	  938.94	-1802.44	  381.59
    103.1700	  911.00	  900.45	-1758.95	  381.36
    103.2700	  794.00	  860.72	-1836.22	  381.12
    103.3700	  863.00	  821.00	-1727.50	  380.89
    103.4700	  772.00	  782.40	-1779.90	  380.66
    103.5700	  762.00	  745.90	-1753.40	  380.43
    103.6700	  730.00	  712.26	-1751.76	  380.20
    103.7700	  656.00	  682.03	-1795.53	  379.97
    103.8700	  674.00	  655.51	-1751.01	  379.73
    103.9700	  632.00	  632.82	-1770.32	  379.50
    104.0700	  626.00	  613.88	-1757.38	  379.27
    104.1700	  580.00	  598.46	-1787.96	  379.04
    104.2700	  596.00	  586.27	-1759.77	  378.80
    104.3700	  548.00	  576.92	-1798.42	  378.57
    104.4700	  585.00	  570.04	-1754.54	  378.34
    104.5700	  566.00	  565.22	-1768.72	  378.10
    104.6700	  520.00	  562.12	-1811.62	  377.87
    104.7700	  570.00	  560.41	-1759.91	  377.64
    104.8700	  532.00	  559.79	-1797.29	  377.40
    104.9700	  536.00	  560.05	-1793.55	  377.17
    105.0700	  512.00	  560.98	-1818.48	  376.94
    105.1700	  581.00	  562.45	-1750.95	  376.70
    105.2700	  552.00	  564.31	-1781.81	  376.47
    105.3700	  544.00	  566.53	-1792.03	  376.24
    105.4700	  540.00	  569.06	-1798.56	  376.01
    105.5700	  548.00	  571.89	-1793.39	  375.77
    105.6700	  552.00	  575.09	-1792.59	  375.54
    105.7700	  614.00	  578.72	-1734.22	  375.31
    105.8700	  598.00	  582.91	-1754.41	  375.08
    105.9700	  583.00	  587.76	-1774.26	  374.85
    106.0700	  604.00	  593.36	-1758.86	  374.61
    106.1700	  561.00	  599.76	-1808.26	  374.38
    106.2700	  619.00	  606.98	-1757.48	  374.15
    106.3700	  575.00	  614.95	-1809.45	  373.92
    106.4700	  567.00	  623.54	-1826.04	  373.69
    106.5700	  640.00	  632.57	-1762.07	  373.46
    106.6700	  599.00	  641.75	-1812.25	  373.23
    106.7700	  614.00	  650.79	-1806.29	  373.00
    106.8700	  624.00	  659.31	-1804.81	  372.77
    106.9700	  677.00	  666.94	-1759.44	  372.54
    107.0700	  684.00	  673.31	-1758.81	  372.32
    107.1700	  673.00	  678.13	-1774.63	  372.09
    107.2700	  665.00	  681.22	-1785.72	  371.86
    107.3700	  646.00	  682.54	-1806.04	  371.64
    107.4700	  658.00	  682.24	-1793.74	  371.41
    107.5700	  668.00	  680.62	-1782.12	  371.18
    107.6700	  668.00	  678.07	-1779.57	  370.96
    107.7700	  651.00	  675.02	-1793.52	  370.74
    107.8700	  637.00	  671.88	-1804.38	  370.51
    107.9700	  654.00	  669.01	-1784.51	  370.29
    108.0700	  662.00	  666.69	-1774.19	  370.07
    108.1700	  696.00	  665.10	-1738.60	  369.85
    108.2700	  662.00	  664.31	-1771.81	  369.63
    108.3700	  721.00	  664.26	-1712.76	  369.41
    108.4700	  676.00	  664.81	-1758.31	  369.19
    108.5700	  658.00	  665.71	-1777.21	  368.97
    108.6700	  716.00	  666.64	-1720.14	  368.75
    108.7700	  663.00	  667.24	-1773.74	  368.54
    108.8700	  654.00	  667.12	-1782.62	  368.32
    108.9700	  678.00	  665.97	-1757.47	  368.11
    109.0700	  650.00	  663.52	-1783.02	  367.89
    109.1700	  633.00	  659.66	-1796.16	  367.68
    109.2700	  641.00	  654.38	-1782.88	  367.47
    109.3700	  633.00	  647.81	-1784.31	  367.26
    109.4700	  616.00	  640.16	-1793.66	  367.05
    109.5700	  618.00	  631.72	-1783.22	  366.84
    109.6700	  652.00	  622.78	-1740.28	  366.63
    109.7700	  625.00	  613.64	-1758.14	  366.43
    109.8700	  584.00	  604.57	-1790.07	  366.22
    109.9700	  583.00	  595.84	-1782.34	  366.02
    110.0700	  545.00	  587.64	-1812.14	  365.81
    110.1700	  569.00	  580.13	-1780.63	  365.61
    110.2700	  569.00	  573.45	-1773.95	  365.41
    110.3700	  581.00	  567.64	-1756.14	  365.21
    110.4700	  617.00	  562.76	-1715.26	  365.01
    110.5700	  555.00	  558.78	-1773.28	  364.82
    110.6700	  566.00	  555.67	-1759.17	  364.62
    110.7700	  544.00	  553.36	-1778.86	  364.43
    110.8700	  542.00	  551.80	-1779.30	  364.24
    110.9700	  571.00	  550.89	-1749.39	  364.05
    111.0700	  587.00	  550.55	-1733.05	  363.86
    111.1700	  544.00	  550.72	-1776.22	  363.67
    111.2700	  544.00	  551.31	-1776.81	  363.48
    111.3700	  564.00	  552.26	-1757.76	  363.30
    111.4700	  536.00	  553.53	-1787.03	  363.12
    111.5700	  547.00	  555.07	-1777.57	  362.94
    111.6700	  562.00	  556.85	-1764.35	  362.76
    111.7700	  517.00	  558.85	-1811.35	  362.58
    111.8700	  516.00	  561.06	-1814.56	  362.40
    111.9700	  593.00	  563.46	-1739.96	  362.23
    112.0700	  570.00	  566.07	-1765.57	  362.06
    112.1700	  583.00	  568.89	-1755.39	  361.88
    112.2700	  569.00	  571.94	-1772.44	  361.72
    112.3700	  604.00	  575.27	-1740.77	  361.55
    112.4700	  626.00	  578.89	-1722.39	  361.38
    112.5700	  570.00	  582.87	-1782.37	  361.22
    112.6700	  625.00	  587.26	-1731.76	  361.06
    112.7700	  621.00	  592.16	-1740.66	  360.90
    112.8700	  645.00	  597.67	-1722.17	  360.74
    112.9700	  684.00	  603.93	-1689.43	  360.59
    113.0700	  655.00	  611.15	-1725.65	  360.44
    113.1700	  683.00	  619.56	-1706.06	  360.28
    113.2700	  784.00	  629.47	-1614.97	  360.14
    113.3700	  812.00	  641.29	-1598.79	  359.99
    113.4700	  805.00	  655.53	-1620.03	  359.85
    113.5700	  785.00	  672.81	-1657.31	  359.70
    113.6700	  826.00	  693.94	-1637.44	  359.56
    113.7700	  899.00	  719.88	-1590.38	  359.43
    113.8700	 1022.00	  751.78	-1499.28	  359.29
    113.9700	  977.00	  791.01	-1583.51	  359.16
    114.0700	 1031.00	  839.14	-1577.64	  359.03
    114.1700	 1092.00	  897.98	-1575.48	  358.90
    114.2700	 1117.00	  969.56	-1622.06	  358.78
    114.3700	 1264.00	 1056.04	-1561.54	  358.65
    114.4700	 1292.00	 1159.74	-1637.24	  358.53
    114.5700	 1440.00	 1282.99	-1612.49	  358.42
    114.6700	 1520.00	 1428.13	-1677.63	  358.30
    114.7700	 1690.00	 1597.34	-1676.84	  358.19
    114.8700	 1963.00	 1792.48	-1598.98	  358.08
    114.9700	 2035.00	 2014.96	-1749.46	  357.97
    115.0700	 2364.00	 2265.57	-1671.07	  357.87
    115.1700	 2577.00	 2544.40	-1736.90	  357.77
    115.2700	 2850.00	 2850.65	-1770.15	  357.67
    115.3700	 3137.00	 3182.39	-1814.89	  357.58
    115.4700	 3506.00	 3536.57	-1800.07	  357.48
    115.5700	 3773.00	 3908.90	-1905.40	  357.39
    115.6700	 4023.00	 4293.94	-2040.44	  357.31
    115.7700	 4441.00	 4685.02	-2013.52	  357.22
    115.8700	 4782.00	 5074.19	-2061.69	  357.14
    115.9700	 5122.00	 5452.43	-2099.93	  357.07
    116.0700	 5539.00	 5809.78	-2040.28	  356.99
    116.1700	 6004.00	 6135.69	-1901.19	  356.92
    116.2700	 6320.00	 6419.39	-1868.89	  356.85
    116.3700	 6609.00	 6650.31	-1810.81	  356.79
    116.4700	 6823.00	 6819.07	-1765.57	  356.73
    116.5700	 6843.00	 6918.31	-1844.81	  356.67
    116.6700	 7078.00	 6943.59	-1635.09	  356.62
    116.7700	 6892.00	 6893.89	-1771.39	  356.57
    116.8700	 6802.00	 6771.79	-1739.29	  356.52
    116.9700	 6808.00	 6583.14	-1544.64	  356.48
    117.0700	 6430.00	 6336.32	-1675.82	  356.44
    117.1700	 6241.00	 6041.28	-1569.78	  356.40
    117.2700	 5652.00	 5708.64	-1826.14	  356.37
    117.3700	 5323.00	 5349.18	-1795.68	  356.34
    117.4700	 4997.00	 4973.14	-1745.64	  356.31
    117.5700	 4612.00	 4590.02	-1747.52	  356.29
    117.6700	 4248.00	 4208.17	-1729.67	  356.27
    117.7700	 3998.00	 3834.77	-1606.27	  356.26
    117.8700	 3596.00	 3475.88	-1649.38	  356.25
    117.9700	 3218.00	 3136.28	-1687.78	  356.24
    118.0700	 2976.00	 2819.56	-1613.06	  356.24
    118.1700	 2640.00	 2528.02	-1657.52	  356.24
    118.2700	 2197.00	 2262.98	-1835.48	  356.24
    118.3700	 1982.00	 2024.86	-1812.36	  356.25
    118.4700	 1770.00	 1813.29	-1812.79	  356.27
    118.5700	 1513.00	 1627.27	-1883.77	  356.29
    118.6700	 1359.00	 1465.27	-1875.77	  356.31
    118.7700	 1197.00	 1325.41	-1897.91	  356.33
    118.8700	 1096.00	 1205.67	-1879.17	  356.36
    118.9700	 1023.00	 1103.89	-1850.39	  356.40
    119.0700	  939.00	 1017.92	-1848.42	  356.44
    119.1700	  908.00	  945.67	-1807.17	  356.48
    119.2700	  794.00	  885.19	-1860.69	  356.53
    119.3700	  781.00	  834.73	-1823.23	  356.58
    119.4700	  741.00	  792.71	-1821.21	  356.64
    119.5700	  676.00	  757.74	-1851.24	  356.70
    119.6700	  646.00	  728.65	-1852.15	  356.77
    119.7700	  663.00	  704.42	-1810.92	  356.84
    119.8700	  656.00	  684.22	-1797.72	  356.92
    119.9700	  623.00	  667.35	-1813.85	  357.00
    120.0700	  643.00	  653.24	-1779.74	  357.08
    120.1700	  595.00	  641.44	-1815.94	  357.17
    120.2700	  575.00	  631.57	-1826.07	  357.27
    120.3700	  587.00	  623.33	-1805.83	  357.37
    120.4700	  531.00	  616.49	-1854.99	  357.47
    120.5700	  553.00	  610.85	-1827.35	  357.58
    120.6700	  567.00	  606.28	-1808.78	  357.70
    120.7700	  552.00	  602.65	-1820.15	  357.82
    120.8700	  551.00	  599.87	-1818.37	  357.95
    120.9700	  557.00	  597.87	-1810.37	  358.08
    121.0700	  584.00	  596.59	-1782.09	  358.21
    121.1700	  585.00	  595.99	-1780.49	  358.35
    121.2700	  571.00	  596.02	-1794.52	  358.50
    121.3700	  553.00	  596.64	-1813.14	  358.65
    121.4700	  616.00	  597.79	-1751.29	  358.81
    121.5700	  543.00	  599.45	-1825.95	  358.97
    121.6700	  590.00	  601.54	-1781.04	  359.14
    121.7700	  580.00	  604.00	-1793.50	  359.32
    121.8700	  561.00	  606.78	-1815.28	  359.50
    121.9700	  650.00	  609.80	-1729.30	  359.68
    122.0700	  630.00	  612.96	-1752.46	  359.88
    122.1700	  619.00	  616.17	-1766.67	  360.07
    122.2700	  642.00	  619.32	-1746.82	  360.28
    122.3700	  636.00	  622.32	-1755.82	  360.49
    122.4700	  617.00	  625.06	-1777.56	  360.70
    122.5700	  603.00	  627.43	-1793.93	  360.92
    122.6700	  656.00	  629.35	-1742.85	  361.15
    122.7700	  630.00	  630.73	-1770.23	  361.38
    122.8700	  675.00	  631.52	-1726.02	  361.62
    122.9700	  691.00	  631.69	-1710.19	  361.87
    123.0700	  637.00	  631.23	-1763.73	  362.12
    123.1700	  632.00	  630.16	-1767.66	  362.38
    123.2700	  669.00	  628.52	-1729.02	  362.65
    123.3700	  627.00	  626.38	-1768.88	  362.92
    123.4700	  640.00	  623.79	-1753.29	  363.19
    123.5700	  653.00	  620.84	-1737.34	  363.48
    123.6700	  630.00	  617.59	-1757.09	  363.77
    123.7700	  635.00	  614.13	-1748.63	  364.07
    123.8700	  649.00	  610.52	-1731.02	  364.37
    123.9700	  566.00	  606.83	-1810.33	  364.68
    124.0700	  635.00	  603.14	-1737.64	  365.00
    124.1700	  670.00	  599.48	-1698.98	  365.33
    124.2700	  635.00	  595.92	-1730.42	  365.66
    124.3700	  619.00	  592.49	-1742.99	  366.00
    124.4700	  583.00	  589.21	-1775.71	  366.34
    124.5700	  582.00	  586.13	-1773.63	  366.69
    124.6700	  623.00	  583.25	-1729.75	  367.05
    124.7700	  538.00	  580.60	-1812.10	  367.42
    124.8700	  612.00	  578.17	-1735.67	  367.80
    124.9700	  543.00	  486.92	-1713.42	  368.18
    125.0700	  604.00	  487.31	-1769.50	  368.57
    125.1700	  563.00	  487.71	-1769.50	  368.96
    125.2700	  601.00	  488.11	-1769.50	  369.37
    125.3700	  579.00	  488.52	-1769.50	  369.78
    125.4700	  604.00	  488.94	-1769.50	  370.20
    125.5700	  601.00	  489.37	-1769.50	  370.62
    125.6700	  547.00	  489.80	-1769.50	  371.06
    125.7700	  538.00	  490.25	-1769.50	  371.50
    125.8700	  608.00	  490.70	-1769.50	  371.95
    125.9700	  618.00	  491.15	-1769.50	  372.41
    126.0700	  543.00	  491.62	-1769.50	  372.87
    126.1700	  628.00	  492.09	-1769.50	  373.35
    126.2700	  601.00	  492.57	-1769.50	  373.83
    126.3700	  580.00	  493.06	-1769.50	  374.32
    126.4700	  600.00	  493.56	-1769.50	  374.82
    126.5700	  626.00	  494.07	-1769.50	  375.32
    126.6700	  663.00	  494.58	-1769.50	  375.84
    126.7700	  612.00	  495.10	-1769.50	  376.36
    126.8700	  581.00	  495.64	-1769.50	  376.89
    126.9700	  633.00	  496.18	-1769.50	  377.43
    127.0700	  602.00	  496.72	-1769.50	  377.98
    127.1700	  636.00	  497.28	-1769.50	  378.53
    127.2700	  636.00	  497.85	-1769.50	  379.10
    127.3700	  643.00	  498.42	-1769.50	  379.67
    127.4700	  631.00	  499.00	-1769.50	  380.26
    127.5700	  655.00	  499.59	-1769.50	  380.85
    127.6700	  695.00	  500.19	-1769.50	  381.45
    127.7700	  650.00	  500.80	-1769.50	  382.06
    127.8700	  775.00	  501.42	-1769.50	  382.68
    127.9700	  693.00	  502.05	-1769.50	  383.30
    128.0700	  774.00	  502.69	-1769.50	  383.94
    128.1700	  783.00	  503.33	-1769.50	  384.59
    128.2700	  743.00	  503.99	-1769.50	  385.24
    128.3700	  839.00	  504.65	-1769.50	  385.90
    128.4700	  772.00	  505.32	-1769.50	  386.58
    128.5700	    0.00	  506.01	-1769.50	  387.26
    128.6700	    0.00	  506.70	-1769.50	  387.95
     12.3044	        	        	        	        	       0	(  0  0  2)	  0  1
     24.8909	        	        	        	        	       0	(  0  0  4)	  0  1
     28.3264	        	        	        	        	       0	(  1  0  0)	  0  1
     29.0240	        	        	        	        	       0	(  1  0  1)	  0  1
     31.0312	        	        	        	        	       0	(  1  0  2)	  0  1
     34.1409	        	        	        	        	       0	(  1  0  3)	  0  1
     37.7936	        	        	        	        	       0	(  0  0  6)	  0  1
     38.1196	        	        	        	        	       0	(  1  0  4)	  0  1
     42.7715	        	        	        	        	       0	(  1  0  5)	  0  1
     47.9575	        	        	        	        	       0	(  1  0  6)	  0  1
     50.2636	        	        	        	        	       0	(  1  1  0)	  0  1
     51.2190	        	        	        	        	       0	(  0  0  8)	  0  1
     51.9875	        	        	        	        	       0	(  1  1  2)	  0  1
     53.5899	        	        	        	        	       0	(  1  0  7)	  0  1
     56.9377	        	        	        	        	       0	(  1  1  4)	  0  1
     58.7607	        	        	        	        	       0	(  2  0  0)	  0  1
     59.1525	        	        	        	        	       0	(  2  0  1)	  0  1
     59.6224	        	        	        	        	       0	(  1  0  8)	  0  1
     60.3184	        	        	        	        	       0	(  2  0  2)	  0  1
     62.2326	        	        	        	        	       0	(  2  0  3)	  0  1
     64.6358	        	        	        	        	       0	(  1  1  6)	  0  1
     64.8579	        	        	        	        	       0	(  2  0  4)	  0  1
     65.4524	        	        	        	        	       0	(  0  0 10)	  0  1
     66.0410	        	        	        	        	       0	(  1  0  9)	  0  1
     68.1537	        	        	        	        	       0	(  2  0  5)	  0  1
     72.0829	        	        	        	        	       0	(  2  0  6)	  0  1
     72.8596	        	        	        	        	       0	(  1  0 10)	  0  1
     74.6777	        	        	        	        	       0	(  1  1  8)	  0  1
     76.6191	        	        	        	        	       0	(  2  0  7)	  0  1
     80.1200	        	        	        	        	       0	(  1  0 11)	  0  1
     80.9382	        	        	        	        	       0	(  0  0 12)	  0  1
     81.0023	        	        	        	        	       0	(  2  1  0)	  0  1
     81.3423	        	        	        	        	       0	(  2  1  1)	  0  1
     81.7516	        	        	        	        	       0	(  2  0  8)	  0  1
     82.3606	        	        	        	        	       0	(  2  1  2)	  0  1
     84.0528	        	        	        	        	       0	(  2  1  3)	  0  1
     86.4136	        	        	        	        	       0	(  2  1  4)	  0  1
     86.9544	        	        	        	        	       0	(  1  1 10)	  0  1
     87.4923	        	        	        	        	       0	(  2  0  9)	  0  1
     87.8976	        	        	        	        	       0	(  1  0 12)	  0  1
     89.4408	        	        	        	        	       0	(  2  1  5)	  0  1
     93.1400	        	        	        	        	       0	(  2  1  6)	  0  1
     93.8827	        	        	        	        	       0	(  2  0 10)	  0  1
     94.8914	        	        	        	        	       0	(  3  0  0)	  0  1
     95.2290	        	        	        	        	       0	(  3  0  1)	  0  1
     96.2427	        	        	        	        	       0	(  3  0  2)	  0  1
     96.3148	        	        	        	        	       0	(  1  0 13)	  0  1
     97.5308	        	        	        	        	       0	(  2  1  7)	  0  1
     97.9368	        	        	        	        	       0	(  3  0  3)	  0  1
     98.4854	        	        	        	        	       0	(  0  0 14)	  0  1
    100.3210	        	        	        	        	       0	(  3  0  4)	  0  1
    101.0082	        	        	        	        	       0	(  2  0 11)	  0  1
    101.8321	        	        	        	        	       0	(  1  1 12)	  0  1
    102.6558	        	        	        	        	       0	(  2  1  8)	  0  1
    103.4141	        	        	        	        	       0	(  3  0  5)	  0  1
    105.5726	        	        	        	        	       0	(  1  0 14)	  0  1
    107.2511	        	        	        	        	       0	(  3  0  6)	  0  1
    108.5958	        	        	        	        	       0	(  2  1  9)	  0  1
    109.0240	        	        	        	        	       0	(  2  0 12)	  0  1
    111.8939	        	        	        	        	       0	(  3  0  7)	  0  1
    115.4967	        	        	        	        	       0	(  2  1 10)	  0  1
    116.0235	        	        	        	        	       0	(  1  0 15)	  0  1
    116.6174	        	        	        	        	       0	(  2  2  0)	  0  1
    117.4504	        	        	        	        	       0	(  3  0  8)	  0  1
    118.1333	        	        	        	        	       0	(  2  2  2)	  0  1
    118.2147	        	        	        	        	       0	(  2  0 13)	  0  1
    119.9892	        	        	        	        	       0	(  0  0 16)	  0  1
    120.6893	        	        	        	        	       0	(  1  1 14)	  0  1
    122.8212	        	        	        	        	       0	(  2  2  4)	  0  1
    123.6294	        	        	        	        	       0	(  2  1 11)	  0  1
    124.1146	        	        	        	        	       0	(  3  0  9)	  0  1
    124.6831	        	        	        	        	       0	(  3  1  0)	  0  1
    125.0936	        	        	        	        	       0	(  3  1  1)	  0  1
    126.3377	        	        	        	        	       0	(  3  1  2)	  0  1
    128.3796	        	        	        	        	       0	(  1  0 16)	  0  1
    128.4570	        	        	        	        	       0	(  3  1  3)	  0  1
    129.1549	        	        	        	        	       0	(  2  0 14)	  0  1
    131.2660	        	        	        	        	       0	(  2  2  6)	  0  1
    131.5347	        	        	        	        	       0	(  3  1  4)	  0  1
    132.2617	        	        	        	        	       0	(  3  0 10)	  0  1
    133.5509	        	        	        	        	       0	(  2  1 12)	  0  1
    135.7243	        	        	        	        	       0	(  3  1  5)	  0  1
    141.3239	        	        	        	        	       0	(  3  1  6)	  0  1
    142.7525	        	        	        	        	       0	(  3  0 11)	  0  1
    143.3178	        	        	        	        	       0	(  2  0 15)	  0  1
    144.5812	        	        	        	        	       0	(  1  0 17)	  0  1
    145.5124	        	        	        	        	       0	(  2  2  8)	  0  1
    146.7276	        	        	        	        	       0	(  2  1 13)	  0  1
    149.0048	        	        	        	        	       0	(  3  1  7)	  0  1
    149.6775	        	        	        	        	       0	(  1  1 16)	  0  1
    154.1263	        	        	        	        	       0	(  0  0 18)	  0  1
    158.6727	        	        	        	        	       0	(  3  0 12)	  0  1
    158.8486	        	        	        	        	       0	(  4  0  0)	  0  1
    159.8066	        	        	        	        	       0	(  4  0  1)	  0  1
    161.0228	        	        	        	        	       0	(  3  1  8)	  0  1
    162.9902	        	        	        	        	       0	(  4  0  2)	  0  1
    169.9992	        	        	        	        	       0	(  2  0 16)	  0  1
    170.3590	        	        	        	        	       0	(  4  0  3)	  0  1
    174.5739	        	        	        	        	       0	(  2  1 14)	  0  1
