MSG Master    CELL:    5.89533   5.89533  23.16668   90.0000   90.0000  120.0000   SPGR: P 63/m m c             TEMP:    718.25
  2   1280     2.52000     0.00000    -0.11441     0.00000     0.00000    0
    96    96     0     0     2
       0.00000      10.00000
     125.00000     130.00000
 2Theta	Yobs	Ycal	Yobs-Ycal	Backg	Posr	(hkl)	K
      0.7700	    0.00	  586.16	-1819.50	  472.18
      0.8700	    0.00	  587.21	-1819.50	  473.22
      0.9700	   67.00	  588.24	-1819.50	  474.26
      1.0700	   43.00	  589.26	-1819.50	  475.28
      1.1700	   39.00	  590.27	-1819.50	  476.29
      1.2700	   35.00	  591.26	-1819.50	  477.28
      1.3700	   49.00	  592.24	-1819.50	  478.26
      1.4700	   96.00	  593.21	-1819.50	  479.23
      1.5700	  280.00	  594.16	-1819.50	  480.18
      1.6700	  457.00	  595.10	-1819.50	  481.12
      1.7700	  591.00	  596.03	-1819.50	  482.05
      1.8700	  654.00	  596.94	-1819.50	  482.96
      1.9700	  680.00	  597.84	-1819.50	  483.86
      2.0700	  770.00	  598.73	-1819.50	  484.75
      2.1700	  822.00	  599.60	-1819.50	  485.62
      2.2700	  773.00	  600.47	-1819.50	  486.48
      2.3700	  790.00	  601.31	-1819.50	  487.33
      2.4700	  655.00	  602.15	-1819.50	  488.17
      2.5700	  704.00	  602.97	-1819.50	  488.99
      2.6700	  710.00	  603.78	-1819.50	  489.80
      2.7700	  619.00	  604.58	-1819.50	  490.60
      2.8700	  610.00	  605.37	-1819.50	  491.39
      2.9700	  627.00	  606.14	-1819.50	  492.16
      3.0700	  627.00	  606.91	-1819.50	  492.92
      3.1700	  623.00	  607.66	-1819.50	  493.67
      3.2700	  679.00	  608.39	-1819.50	  494.41
      3.3700	  843.00	  609.12	-1819.50	  495.14
      3.4700	 1018.00	  609.83	-1819.50	  495.85
      3.5700	 1085.00	  610.54	-1819.50	  496.55
      3.6700	 1244.00	  611.23	-1819.50	  497.24
      3.7700	 1362.00	  611.91	-1819.50	  497.92
      3.8700	 1438.00	  612.57	-1819.50	  498.59
      3.9700	 1481.00	  613.23	-1819.50	  499.25
      4.0700	 1541.00	  613.87	-1819.50	  499.89
      4.1700	 1572.00	  614.51	-1819.50	  500.53
      4.2700	 1557.00	  615.13	-1819.50	  501.15
      4.3700	 1645.00	  615.74	-1819.50	  501.76
      4.4700	 1435.00	  616.34	-1819.50	  502.36
      4.5700	 1447.00	  616.93	-1819.50	  502.95
      4.6700	 1474.00	  617.51	-1819.50	  503.53
      4.7700	 1390.00	  618.08	-1819.50	  504.09
      4.8700	 1223.00	  618.63	-1819.50	  504.65
      4.9700	 1286.00	  619.18	-1819.50	  505.20
      5.0700	 1249.00	  619.72	-1819.50	  505.73
      5.1700	 1158.00	  620.24	-1819.50	  506.26
      5.2700	 1191.00	  620.76	-1819.50	  506.77
      5.3700	 1159.00	  621.26	-1819.50	  507.28
      5.4700	 1162.00	  621.75	-1819.50	  507.77
      5.5700	 1098.00	  622.24	-1819.50	  508.26
      5.6700	 1064.00	  622.71	-1819.50	  508.73
      5.7700	 1030.00	  623.18	-1819.50	  509.19
      5.8700	 1031.00	  623.63	-1819.50	  509.65
      5.9700	  996.00	  624.07	-1819.50	  510.09
      6.0700	  968.00	  624.51	-1819.50	  510.52
      6.1700	  958.00	  624.93	-1819.50	  510.95
      6.2700	  966.00	  625.35	-1819.50	  511.36
      6.3700	  894.00	  625.75	-1819.50	  511.77
      6.4700	  931.00	  626.15	-1819.50	  512.16
      6.5700	  918.00	  626.53	-1819.50	  512.55
      6.6700	  864.00	  626.91	-1819.50	  512.93
      6.7700	  840.00	  627.28	-1819.50	  513.30
      6.8700	  861.00	  627.64	-1819.50	  513.65
      6.9700	  891.00	  627.98	-1819.50	  514.00
      7.0700	  794.00	  628.32	-1819.50	  514.34
      7.1700	  758.00	  628.66	-1819.50	  514.67
      7.2700	  810.00	  628.98	-1819.50	  515.00
      7.3700	  786.00	  629.29	-1819.50	  515.31
      7.4700	  772.00	  629.59	-1819.50	  515.61
      7.5700	  791.00	  629.89	-1819.50	  515.91
      7.6700	  766.00	  630.18	-1819.50	  516.19
      7.7700	  782.00	  630.46	-1819.50	  516.47
      7.8700	  784.00	  630.73	-1819.50	  516.74
      7.9700	  716.00	  630.99	-1819.50	  517.00
      8.0700	  772.00	  631.24	-1819.50	  517.26
      8.1700	  721.00	  631.48	-1819.50	  517.50
      8.2700	  780.00	  631.72	-1819.50	  517.74
      8.3700	  738.00	  631.95	-1819.50	  517.97
      8.4700	  713.00	  632.17	-1819.50	  518.19
      8.5700	  716.00	  632.38	-1819.50	  518.40
      8.6700	  693.00	  632.58	-1819.50	  518.60
      8.7700	  728.00	  632.78	-1819.50	  518.80
      8.8700	  688.00	  632.97	-1819.50	  518.98
      8.9700	  737.00	  633.15	-1819.50	  519.16
      9.0700	  720.00	  633.32	-1819.50	  519.34
      9.1700	  719.00	  633.48	-1819.50	  519.50
      9.2700	  695.00	  633.64	-1819.50	  519.66
      9.3700	  682.00	  633.79	-1819.50	  519.81
      9.4700	  683.00	  633.93	-1819.50	  519.95
      9.5700	  733.00	  634.07	-1819.50	  520.09
      9.6700	  678.00	  634.20	-1819.50	  520.21
      9.7700	  680.00	  634.32	-1819.50	  520.33
      9.8700	  674.00	  634.43	-1819.50	  520.45
      9.9700	  653.00	  634.53	-1819.50	  520.55
     10.0700	  686.00	  636.69	-1770.19	  520.65
     10.1700	  693.00	  637.01	-1763.51	  520.74
     10.2700	  648.00	  637.38	-1808.88	  520.83
     10.3700	  672.00	  637.82	-1785.32	  520.90
     10.4700	  680.00	  638.35	-1777.85	  520.97
     10.5700	  664.00	  639.03	-1794.53	  521.04
     10.6700	  662.00	  639.94	-1797.44	  521.10
     10.7700	  663.00	  641.19	-1797.69	  521.15
     10.8700	  641.00	  642.86	-1821.36	  521.19
     10.9700	  680.00	  645.04	-1784.54	  521.23
     11.0700	  617.00	  647.72	-1850.22	  521.26
     11.1700	  712.00	  650.94	-1758.44	  521.28
     11.2700	  679.00	  654.71	-1795.21	  521.30
     11.3700	  701.00	  659.10	-1777.60	  521.31
     11.4700	  645.00	  664.26	-1838.76	  521.32
     11.5700	  669.00	  670.39	-1820.89	  521.32
     11.6700	  729.00	  677.78	-1768.28	  521.31
     11.7700	  737.00	  686.83	-1769.33	  521.30
     11.8700	  743.00	  697.85	-1774.35	  521.28
     11.9700	  773.00	  710.71	-1757.21	  521.25
     12.0700	  762.00	  724.20	-1781.70	  521.22
     12.1700	  802.00	  735.30	-1752.80	  521.19
     12.2700	  784.00	  738.84	-1774.34	  521.14
     12.3700	  789.00	  729.79	-1760.29	  521.10
     12.4700	  722.00	  710.09	-1807.59	  521.04
     12.5700	  691.00	  688.46	-1816.96	  520.98
     12.6700	  604.00	  670.96	-1886.46	  520.92
     12.7700	  660.00	  658.86	-1818.36	  520.85
     12.8700	  652.00	  651.23	-1818.73	  520.77
     12.9700	  648.00	  646.59	-1818.09	  520.69
     13.0700	  625.00	  643.72	-1838.22	  520.60
     13.1700	  675.00	  641.81	-1786.31	  520.51
     13.2700	  603.00	  640.47	-1856.97	  520.41
     13.3700	  626.00	  639.42	-1832.92	  520.31
     13.4700	  601.00	  638.58	-1857.08	  520.20
     13.5700	  584.00	  637.88	-1873.38	  520.09
     13.6700	  638.00	  637.29	-1818.79	  519.97
     13.7700	  600.00	  636.79	-1856.29	  519.85
     13.8700	  598.00	  636.34	-1857.84	  519.72
     13.9700	  629.00	  635.94	-1826.44	  519.59
     14.0700	  656.00	  635.57	-1799.07	  519.45
     14.1700	  567.00	  635.24	-1887.74	  519.31
     14.2700	  619.00	  634.93	-1835.43	  519.16
     14.3700	  574.00	  634.63	-1880.13	  519.01
     14.4700	  601.00	  634.35	-1852.85	  518.86
     14.5700	  586.00	  634.08	-1867.58	  518.70
     14.6700	  675.00	  633.81	-1778.31	  518.53
     14.7700	  645.00	  633.56	-1808.06	  518.36
     14.8700	  611.00	  633.31	-1841.81	  518.19
     14.9700	  592.00	  633.06	-1860.56	  518.01
     15.0700	  640.00	  632.82	-1812.32	  517.83
     15.1700	  583.00	  632.57	-1869.07	  517.64
     15.2700	  651.00	  632.33	-1800.83	  517.45
     15.3700	  581.00	  632.09	-1870.59	  517.25
     15.4700	  623.00	  631.85	-1828.35	  517.05
     15.5700	  560.00	  631.61	-1891.11	  516.85
     15.6700	  604.00	  631.37	-1846.87	  516.64
     15.7700	  625.00	  631.13	-1825.63	  516.43
     15.8700	  625.00	  630.88	-1825.38	  516.21
     15.9700	  643.00	  630.64	-1807.14	  515.99
     16.0700	  642.00	  630.39	-1807.89	  515.77
     16.1700	  582.00	  630.14	-1867.64	  515.54
     16.2700	  657.00	  629.89	-1792.39	  515.31
     16.3700	  607.00	  629.64	-1842.14	  515.08
     16.4700	  612.00	  629.38	-1836.88	  514.84
     16.5700	  654.00	  629.12	-1794.62	  514.60
     16.6700	  610.00	  628.86	-1838.36	  514.35
     16.7700	  596.00	  628.60	-1852.10	  514.11
     16.8700	  611.00	  628.33	-1836.83	  513.85
     16.9700	  643.00	  628.07	-1804.57	  513.60
     17.0700	  643.00	  627.80	-1804.30	  513.34
     17.1700	  595.00	  627.52	-1852.02	  513.08
     17.2700	  620.00	  627.25	-1826.75	  512.81
     17.3700	  636.00	  626.97	-1810.47	  512.54
     17.4700	  601.00	  626.69	-1845.19	  512.27
     17.5700	  637.00	  626.89	-1809.39	  512.00
     17.6700	  678.00	  626.61	-1768.11	  511.72
     17.7700	  598.00	  626.34	-1847.84	  511.44
     17.8700	  598.00	  626.06	-1847.56	  511.15
     17.9700	  604.00	  626.09	-1841.59	  510.86
     18.0700	  582.00	  625.81	-1863.31	  510.57
     18.1700	  627.00	  625.53	-1818.03	  510.28
     18.2700	  615.00	  625.24	-1829.74	  509.99
     18.3700	  584.00	  624.96	-1860.46	  509.69
     18.4700	  629.00	  624.67	-1815.17	  509.39
     18.5700	  591.00	  624.38	-1852.88	  509.08
     18.6700	  627.00	  624.09	-1816.59	  508.77
     18.7700	  604.00	  623.80	-1839.30	  508.46
     18.8700	  584.00	  623.51	-1859.01	  508.15
     18.9700	  645.00	  623.21	-1797.71	  507.84
     19.0700	  579.00	  622.92	-1863.42	  507.52
     19.1700	  590.00	  622.62	-1852.12	  507.20
     19.2700	  637.00	  622.32	-1804.82	  506.88
     19.3700	  578.00	  622.02	-1863.52	  506.55
     19.4700	  617.00	  621.77	-1824.27	  506.23
     19.5700	  614.00	  621.47	-1826.97	  505.90
     19.6700	  584.00	  621.17	-1856.67	  505.57
     19.7700	  601.00	  620.87	-1839.37	  505.23
     19.8700	  601.00	  620.56	-1839.06	  504.90
     19.9700	  617.00	  620.26	-1822.76	  504.56
     20.0700	  631.00	  619.95	-1808.45	  504.22
     20.1700	  601.00	  619.65	-1838.15	  503.88
     20.2700	  625.00	  619.34	-1813.84	  503.53
     20.3700	  637.00	  619.03	-1801.53	  503.19
     20.4700	  597.00	  618.73	-1841.23	  502.84
     20.5700	  595.00	  618.42	-1842.92	  502.49
     20.6700	  551.00	  618.11	-1886.61	  502.13
     20.7700	  580.00	  617.81	-1857.31	  501.78
     20.8700	  549.00	  617.50	-1888.00	  501.42
     20.9700	  618.00	  617.20	-1818.70	  501.07
     21.0700	  628.00	  616.90	-1808.40	  500.71
     21.1700	  608.00	  616.59	-1828.09	  500.35
     21.2700	  596.00	  616.29	-1839.79	  499.98
     21.3700	  614.00	  615.99	-1821.49	  499.62
     21.4700	  601.00	  615.70	-1834.20	  499.25
     21.5700	  639.00	  615.40	-1795.90	  498.88
     21.6700	  629.00	  615.11	-1805.61	  498.51
     21.7700	  578.00	  614.82	-1856.32	  498.14
     21.8700	  621.00	  614.54	-1813.04	  497.77
     21.9700	  584.00	  614.43	-1849.93	  497.40
     22.0700	  604.00	  614.16	-1829.66	  497.02
     22.1700	  636.00	  613.89	-1797.39	  496.65
     22.2700	  590.00	  613.63	-1843.13	  496.27
     22.3700	  632.00	  613.38	-1800.88	  495.89
     22.4700	  585.00	  613.13	-1847.63	  495.51
     22.5700	  592.00	  612.90	-1840.40	  495.13
     22.6700	  623.00	  612.67	-1809.17	  494.74
     22.7700	  634.00	  612.46	-1797.96	  494.36
     22.8700	  570.00	  612.27	-1861.77	  493.97
     22.9700	  585.00	  612.09	-1846.59	  493.59
     23.0700	  617.00	  611.94	-1814.44	  493.20
     23.1700	  538.00	  611.81	-1893.31	  492.81
     23.2700	  608.00	  611.71	-1823.21	  492.42
     23.3700	  599.00	  611.66	-1832.16	  492.03
     23.4700	  598.00	  611.65	-1833.15	  491.64
     23.5700	  655.00	  611.72	-1776.22	  491.25
     23.6700	  592.00	  611.81	-1839.31	  490.85
     23.7700	  599.00	  612.08	-1832.58	  490.46
     23.8700	  628.00	  612.55	-1804.05	  490.06
     23.9700	  628.00	  613.31	-1804.81	  489.67
     24.0700	  604.00	  614.56	-1830.06	  489.27
     24.1700	  665.00	  616.58	-1771.08	  488.87
     24.2700	  644.00	  619.79	-1795.29	  488.47
     24.3700	  675.00	  624.66	-1769.16	  488.08
     24.4700	  627.00	  631.61	-1824.11	  487.68
     24.5700	  650.00	  640.70	-1810.20	  487.28
     24.6700	  670.00	  651.39	-1800.89	  486.87
     24.7700	  690.00	  662.07	-1791.57	  486.47
     24.8700	  695.00	  669.69	-1794.19	  486.07
     24.9700	  679.00	  670.21	-1810.71	  485.67
     25.0700	  706.00	  662.01	-1775.51	  485.27
     25.1700	  711.00	  649.07	-1757.57	  484.86
     25.2700	  613.00	  636.66	-1843.16	  484.46
     25.3700	  672.00	  627.23	-1774.73	  484.05
     25.4700	  652.00	  620.97	-1788.47	  483.65
     25.5700	  669.00	  617.21	-1767.71	  483.24
     25.6700	  695.00	  615.12	-1739.62	  482.84
     25.7700	  613.00	  614.05	-1820.55	  482.43
     25.8700	  614.00	  613.58	-1819.08	  482.03
     25.9700	  655.00	  613.52	-1778.02	  481.62
     26.0700	  609.00	  613.75	-1824.25	  481.21
     26.1700	  666.00	  614.25	-1767.75	  480.81
     26.2700	  683.00	  615.01	-1751.51	  480.40
     26.3700	  661.00	  616.05	-1774.55	  479.99
     26.4700	  654.00	  617.39	-1782.89	  479.59
     26.5700	  689.00	  619.08	-1749.58	  479.18
     26.6700	  648.00	  621.19	-1792.69	  478.77
     26.7700	  680.00	  623.79	-1763.29	  478.36
     26.8700	  631.00	  627.01	-1815.51	  477.96
     26.9700	  642.00	  631.02	-1808.52	  477.55
     27.0700	  687.00	  636.05	-1768.55	  477.14
     27.1700	  738.00	  642.44	-1723.94	  476.73
     27.2700	  678.00	  650.79	-1792.29	  476.33
     27.3700	  678.00	  662.15	-1803.65	  475.92
     27.4700	  711.00	  678.53	-1787.03	  475.51
     27.5700	  773.00	  703.75	-1750.25	  475.10
     27.6700	  765.00	  744.55	-1799.05	  474.70
     27.7700	  847.00	  811.56	-1784.06	  474.29
     27.8700	  880.00	  918.83	-1858.33	  473.88
     27.9700	  944.00	 1079.18	-1954.68	  473.48
     28.0700	 1123.00	 1295.15	-1991.65	  473.07
     28.1700	 1466.00	 1547.46	-1900.96	  472.67
     28.2700	 1867.00	 1784.32	-1736.82	  472.26
     28.3700	 2129.00	 1920.01	-1610.51	  471.85
     28.4700	 2006.00	 1878.31	-1691.81	  471.45
     28.5700	 1802.00	 1698.68	-1716.18	  471.04
     28.6700	 1383.00	 1517.19	-1953.69	  470.64
     28.7700	 1362.00	 1422.20	-1879.70	  470.24
     28.8700	 1358.00	 1421.54	-1883.04	  469.83
     28.9700	 1422.00	 1469.00	-1866.50	  469.43
     29.0700	 1461.00	 1488.04	-1846.54	  469.03
     29.1700	 1483.00	 1410.48	-1746.98	  468.63
     29.2700	 1236.00	 1242.82	-1826.32	  468.22
     29.3700	 1112.00	 1056.25	-1763.75	  467.82
     29.4700	  897.00	  902.76	-1825.26	  467.42
     29.5700	  831.00	  796.02	-1784.52	  467.02
     29.6700	  816.00	  729.48	-1732.98	  466.62
     29.7700	  760.00	  690.33	-1749.83	  466.22
     29.8700	  703.00	  667.16	-1783.66	  465.83
     29.9700	  704.00	  652.60	-1768.10	  465.43
     30.0700	  703.00	  642.85	-1759.35	  465.03
     30.1700	  766.00	  636.22	-1689.72	  464.64
     30.2700	  708.00	  632.21	-1743.71	  464.24
     30.3700	  732.00	  631.01	-1718.51	  463.84
     30.4700	  649.00	  633.43	-1803.93	  463.45
     30.5700	  681.00	  640.78	-1779.28	  463.06
     30.6700	  690.00	  654.38	-1783.88	  462.66
     30.7700	  671.00	  674.55	-1823.05	  462.27
     30.8700	  748.00	  699.23	-1770.73	  461.88
     30.9700	  687.00	  722.98	-1855.48	  461.49
     31.0700	  694.00	  736.67	-1862.17	  461.10
     31.1700	  717.00	  731.01	-1833.51	  460.71
     31.2700	  706.00	  706.38	-1819.88	  460.32
     31.3700	  689.00	  674.64	-1805.14	  459.94
     31.4700	  664.00	  646.35	-1801.85	  459.55
     31.5700	  669.00	  625.41	-1775.91	  459.17
     31.6700	  637.00	  611.62	-1794.12	  458.78
     31.7700	  614.00	  603.16	-1808.66	  458.40
     31.8700	  656.00	  598.03	-1761.53	  458.02
     31.9700	  641.00	  594.80	-1773.30	  457.63
     32.0700	  627.00	  592.60	-1785.10	  457.25
     32.1700	  593.00	  591.03	-1817.53	  456.87
     32.2700	  625.00	  589.89	-1784.39	  456.50
     32.3700	  613.00	  589.09	-1795.59	  456.12
     32.4700	  630.00	  588.59	-1778.09	  455.74
     32.5700	  586.00	  588.38	-1821.88	  455.37
     32.6700	  587.00	  588.48	-1820.98	  454.99
     32.7700	  603.00	  588.91	-1805.41	  454.62
     32.8700	  587.00	  589.73	-1822.23	  454.25
     32.9700	  588.00	  591.06	-1822.56	  453.88
     33.0700	  625.00	  592.99	-1787.49	  453.51
     33.1700	  609.00	  595.83	-1806.33	  453.14
     33.2700	  626.00	  600.12	-1793.62	  452.77
     33.3700	  629.00	  606.86	-1797.36	  452.40
     33.4700	  632.00	  617.93	-1805.43	  452.04
     33.5700	  624.00	  636.44	-1831.94	  451.67
     33.6700	  589.00	  666.77	-1897.27	  451.31
     33.7700	  677.00	  713.68	-1856.18	  450.95
     33.8700	  814.00	  779.64	-1785.14	  450.59
     33.9700	  912.00	  860.81	-1768.31	  450.23
     34.0700	  999.00	  943.36	-1763.86	  449.87
     34.1700	 1127.00	 1002.34	-1694.84	  449.52
     34.2700	 1094.00	 1008.73	-1734.23	  449.16
     34.3700	  993.00	  954.03	-1780.53	  448.81
     34.4700	  875.00	  865.49	-1809.99	  448.45
     34.5700	  804.00	  777.37	-1792.87	  448.10
     34.6700	  636.00	  707.13	-1890.63	  447.75
     34.7700	  661.00	  658.19	-1816.69	  447.40
     34.8700	  622.00	  627.10	-1824.60	  447.05
     34.9700	  630.00	  608.34	-1797.84	  446.71
     35.0700	  594.00	  596.97	-1822.47	  446.36
     35.1700	  627.00	  589.70	-1782.20	  446.02
     35.2700	  614.00	  584.60	-1790.10	  445.68
     35.3700	  576.00	  580.77	-1824.27	  445.34
     35.4700	  560.00	  577.73	-1837.23	  445.00
     35.5700	  530.00	  575.25	-1864.75	  444.66
     35.6700	  549.00	  573.69	-1844.19	  444.32
     35.7700	  548.00	  571.95	-1843.45	  443.99
     35.8700	  586.00	  570.46	-1803.96	  443.65
     35.9700	  553.00	  569.17	-1835.67	  443.32
     36.0700	  583.00	  568.04	-1804.54	  442.99
     36.1700	  566.00	  567.05	-1820.55	  442.66
     36.2700	  582.00	  566.18	-1803.68	  442.33
     36.3700	  557.00	  565.42	-1827.92	  442.01
     36.4700	  548.00	  564.74	-1836.24	  441.68
     36.5700	  554.00	  564.16	-1829.66	  441.36
     36.6700	  576.00	  563.67	-1807.17	  441.04
     36.7700	  526.00	  563.27	-1856.77	  440.72
     36.8700	  565.00	  562.95	-1817.45	  440.40
     36.9700	  524.00	  562.80	-1858.30	  440.08
     37.0700	  535.00	  562.85	-1847.35	  439.77
     37.1700	  579.00	  563.39	-1803.89	  439.45
     37.2700	  559.00	  564.21	-1824.71	  439.14
     37.3700	  576.00	  565.74	-1809.24	  438.83
     37.4700	  555.00	  568.31	-1832.81	  438.52
     37.5700	  588.00	  572.24	-1803.74	  438.21
     37.6700	  556.00	  577.78	-1841.28	  437.90
     37.7700	  564.00	  584.86	-1840.36	  437.60
     37.8700	  629.00	  592.87	-1783.37	  437.30
     37.9700	  584.00	  600.65	-1836.15	  436.99
     38.0700	  584.00	  606.80	-1842.30	  436.69
     38.1700	  598.00	  609.73	-1831.23	  436.40
     38.2700	  587.00	  607.62	-1840.12	  436.10
     38.3700	  550.00	  600.10	-1869.60	  435.80
     38.4700	  553.00	  589.66	-1856.16	  435.51
     38.5700	  582.00	  579.47	-1816.97	  435.22
     38.6700	  523.00	  571.09	-1867.59	  434.93
     38.7700	  557.00	  564.96	-1827.46	  434.64
     38.8700	  498.00	  560.80	-1882.30	  434.35
     38.9700	  512.00	  558.09	-1865.59	  434.07
     39.0700	  532.00	  556.31	-1843.81	  433.79
     39.1700	  493.00	  555.07	-1881.57	  433.50
     39.2700	  555.00	  553.68	-1818.18	  433.22
     39.3700	  543.00	  552.95	-1829.45	  432.94
     39.4700	  529.00	  552.33	-1842.83	  432.67
     39.5700	  540.00	  551.80	-1831.30	  432.39
     39.6700	  514.00	  551.32	-1856.82	  432.12
     39.7700	  504.00	  550.90	-1866.40	  431.85
     39.8700	  556.00	  550.51	-1814.01	  431.58
     39.9700	  502.00	  550.16	-1867.66	  431.31
     40.0700	  579.00	  549.84	-1790.34	  431.04
     40.1700	  544.00	  550.09	-1825.59	  430.78
     40.2700	  558.00	  549.83	-1811.33	  430.51
     40.3700	  532.00	  549.29	-1836.79	  430.25
     40.4700	  575.00	  549.08	-1793.58	  429.99
     40.5700	  568.00	  548.90	-1800.40	  429.74
     40.6700	  533.00	  548.74	-1835.24	  429.48
     40.7700	  543.00	  548.61	-1825.11	  429.22
     40.8700	  540.00	  548.51	-1828.01	  428.97
     40.9700	  533.00	  548.44	-1834.94	  428.72
     41.0700	  547.00	  548.42	-1820.92	  428.47
     41.1700	  491.00	  548.44	-1876.94	  428.22
     41.2700	  523.00	  548.51	-1845.01	  427.98
     41.3700	  568.00	  548.65	-1800.15	  427.73
     41.4700	  538.00	  548.87	-1830.37	  427.49
     41.5700	  555.00	  549.25	-1813.75	  427.25
     41.6700	  516.00	  549.71	-1853.21	  427.01
     41.7700	  550.00	  550.38	-1819.88	  426.78
     41.8700	  539.00	  551.37	-1831.87	  426.54
     41.9700	  548.00	  552.95	-1824.45	  426.31
     42.0700	  580.00	  555.39	-1794.89	  426.07
     42.1700	  524.00	  559.49	-1854.99	  425.84
     42.2700	  569.00	  565.97	-1816.47	  425.62
     42.3700	  582.00	  575.98	-1813.48	  425.39
     42.4700	  551.00	  590.38	-1858.88	  425.17
     42.5700	  596.00	  609.20	-1832.70	  424.94
     42.6700	  646.00	  630.84	-1804.34	  424.72
     42.7700	  620.00	  651.29	-1850.79	  424.50
     42.8700	  645.00	  664.46	-1838.96	  424.28
     42.9700	  648.00	  663.95	-1835.45	  424.07
     43.0700	  584.00	  649.84	-1885.34	  423.85
     43.1700	  638.00	  628.26	-1809.76	  423.64
     43.2700	  565.00	  606.05	-1860.55	  423.43
     43.3700	  586.00	  587.16	-1820.66	  423.22
     43.4700	  569.00	  572.90	-1823.40	  423.02
     43.5700	  515.00	  563.06	-1867.56	  422.81
     43.6700	  540.00	  556.69	-1836.19	  422.61
     43.7700	  565.00	  552.69	-1807.19	  422.40
     43.8700	  527.00	  550.16	-1842.66	  422.20
     43.9700	  591.00	  548.47	-1776.97	  422.01
     44.0700	  597.00	  547.48	-1769.98	  421.81
     44.1700	  546.00	  546.58	-1820.08	  421.62
     44.2700	  579.00	  545.87	-1786.37	  421.42
     44.3700	  541.00	  545.29	-1823.79	  421.23
     44.4700	  530.00	  544.82	-1834.32	  421.04
     44.5700	  555.00	  544.43	-1808.94	  420.85
     44.6700	  593.00	  544.12	-1770.62	  420.67
     44.7700	  565.00	  543.86	-1798.36	  420.48
     44.8700	  547.00	  543.65	-1816.15	  420.30
     44.9700	  536.00	  543.48	-1826.98	  420.12
     45.0700	  569.00	  543.35	-1793.85	  419.94
     45.1700	  514.00	  543.26	-1848.76	  419.77
     45.2700	  524.00	  543.21	-1838.71	  419.59
     45.3700	  571.00	  543.19	-1791.69	  419.42
     45.4700	  539.00	  543.30	-1823.80	  419.25
     45.5700	  533.00	  543.35	-1829.85	  419.08
     45.6700	  579.00	  543.42	-1783.92	  418.91
     45.7700	  575.00	  543.53	-1788.03	  418.74
     45.8700	  526.00	  543.74	-1837.24	  418.58
     45.9700	  550.00	  543.93	-1813.43	  418.41
     46.0700	  537.00	  544.16	-1826.66	  418.25
     46.1700	  570.00	  544.43	-1793.93	  418.09
     46.2700	  538.00	  544.76	-1826.26	  417.93
     46.3700	  520.00	  545.15	-1844.65	  417.78
     46.4700	  596.00	  545.60	-1769.10	  417.62
     46.5700	  579.00	  546.14	-1786.64	  417.47
     46.6700	  581.00	  546.60	-1785.10	  417.32
     46.7700	  581.00	  547.35	-1785.85	  417.17
     46.8700	  535.00	  548.24	-1832.74	  417.02
     46.9700	  546.00	  549.35	-1822.85	  416.88
     47.0700	  547.00	  550.77	-1823.27	  416.73
     47.1700	  582.00	  552.69	-1790.19	  416.59
     47.2700	  549.00	  555.43	-1825.93	  416.45
     47.3700	  631.00	  559.47	-1747.97	  416.31
     47.4700	  557.00	  565.44	-1827.94	  416.17
     47.5700	  544.00	  573.99	-1849.49	  416.04
     47.6700	  598.00	  585.60	-1807.10	  415.90
     47.7700	  547.00	  600.21	-1872.71	  415.77
     47.8700	  580.00	  616.78	-1856.28	  415.64
     47.9700	  658.00	  633.31	-1794.81	  415.51
     48.0700	  681.00	  645.00	-1783.50	  415.38
     48.1700	  615.00	  648.43	-1852.93	  415.26
     48.2700	  665.00	  642.67	-1797.17	  415.13
     48.3700	  585.00	  630.93	-1865.43	  415.01
     48.4700	  595.00	  617.70	-1842.20	  414.89
     48.5700	  608.00	  606.12	-1817.62	  414.77
     48.6700	  619.00	  597.74	-1798.24	  414.65
     48.7700	  572.00	  593.00	-1840.50	  414.54
     48.8700	  587.00	  591.70	-1824.20	  414.42
     48.9700	  583.00	  593.39	-1829.89	  414.31
     49.0700	  607.00	  597.71	-1810.21	  414.20
     49.1700	  584.00	  604.59	-1840.09	  414.09
     49.2700	  596.00	  614.51	-1838.01	  413.98
     49.3700	  611.00	  628.90	-1837.40	  413.88
     49.4700	  656.00	  650.79	-1814.29	  413.77
     49.5700	  639.00	  685.86	-1866.36	  413.67
     49.6700	  659.00	  743.41	-1903.91	  413.57
     49.7700	  810.00	  836.60	-1846.10	  413.47
     49.8700	  941.00	  980.46	-1858.96	  413.37
     49.9700	 1098.00	 1186.96	-1908.46	  413.27
     50.0700	 1428.00	 1457.26	-1848.76	  413.18
     50.1700	 1786.00	 1772.25	-1805.75	  413.08
     50.2700	 2179.00	 2084.06	-1724.56	  412.99
     50.3700	 2468.00	 2314.09	-1665.59	  412.90
     50.4700	 2551.00	 2378.51	-1647.01	  412.81
     50.5700	 2245.00	 2246.96	-1821.46	  412.72
     50.6700	 1985.00	 1976.05	-1810.55	  412.64
     50.7700	 1586.00	 1657.17	-1890.67	  412.55
     50.8700	 1312.00	 1360.14	-1867.64	  412.47
     50.9700	 1037.00	 1120.77	-1903.27	  412.39
     51.0700	  866.00	  948.60	-1902.10	  412.31
     51.1700	  796.00	  836.27	-1859.77	  412.23
     51.2700	  745.00	  768.07	-1842.57	  412.16
     51.3700	  724.00	  726.99	-1822.49	  412.08
     51.4700	  736.00	  699.37	-1782.87	  412.01
     51.5700	  634.00	  677.27	-1862.77	  411.93
     51.6700	  652.00	  657.90	-1825.40	  411.86
     51.7700	  628.00	  641.09	-1832.59	  411.79
     51.8700	  616.00	  627.18	-1830.68	  411.72
     51.9700	  645.00	  616.30	-1790.80	  411.66
     52.0700	  624.00	  608.26	-1803.76	  411.59
     52.1700	  609.00	  602.65	-1813.15	  411.53
     52.2700	  635.00	  599.04	-1783.54	  411.47
     52.3700	  622.00	  597.12	-1794.62	  411.40
     52.4700	  654.00	  596.83	-1762.33	  411.34
     52.5700	  605.00	  598.36	-1812.86	  411.29
     52.6700	  609.00	  602.23	-1812.73	  411.23
     52.7700	  694.00	  609.48	-1734.98	  411.17
     52.8700	  613.00	  621.89	-1828.39	  411.12
     52.9700	  585.00	  642.06	-1876.56	  411.07
     53.0700	  677.00	  673.38	-1815.88	  411.02
     53.1700	  705.00	  719.48	-1833.98	  410.97
     53.2700	  763.00	  783.14	-1839.64	  410.92
     53.3700	  870.00	  864.83	-1814.33	  410.87
     53.4700	  974.00	  960.63	-1806.13	  410.82
     53.5700	 1108.00	 1060.49	-1771.99	  410.78
     53.6700	 1187.00	 1146.41	-1778.91	  410.73
     53.7700	 1216.00	 1194.83	-1798.33	  410.69
     53.8700	 1211.00	 1188.07	-1796.57	  410.65
     53.9700	 1116.00	 1128.59	-1832.09	  410.61
     54.0700	 1058.00	 1037.13	-1798.63	  410.57
     54.1700	  883.00	  937.09	-1873.59	  410.54
     54.2700	  856.00	  844.61	-1808.11	  410.50
     54.3700	  782.00	  767.93	-1805.43	  410.47
     54.4700	  704.00	  709.53	-1825.03	  410.43
     54.5700	  632.00	  668.20	-1855.70	  410.40
     54.6700	  654.00	  640.76	-1806.26	  410.37
     54.7700	  634.00	  623.51	-1809.01	  410.34
     54.8700	  617.00	  613.21	-1815.71	  410.31
     54.9700	  641.00	  607.41	-1785.91	  410.28
     55.0700	  603.00	  604.53	-1821.03	  410.26
     55.1700	  629.00	  603.64	-1794.14	  410.23
     55.2700	  582.00	  604.26	-1841.76	  410.21
     55.3700	  609.00	  606.18	-1816.68	  410.18
     55.4700	  640.00	  609.38	-1788.88	  410.16
     55.5700	  606.00	  613.94	-1827.44	  410.14
     55.6700	  641.00	  620.10	-1798.60	  410.12
     55.7700	  622.00	  628.32	-1825.82	  410.11
     55.8700	  657.00	  639.46	-1801.96	  410.09
     55.9700	  629.00	  655.11	-1845.61	  410.07
     56.0700	  733.00	  678.11	-1764.61	  410.06
     56.1700	  725.00	  713.17	-1807.67	  410.04
     56.2700	  738.00	  767.45	-1848.95	  410.03
     56.3700	  875.00	  850.63	-1795.13	  410.02
     56.4700	  881.00	  973.83	-1912.33	  410.01
     56.5700	 1078.00	 1147.12	-1888.62	  410.00
     56.6700	 1337.00	 1375.55	-1858.05	  409.99
     56.7700	 1695.00	 1654.17	-1778.67	  409.98
     56.8700	 1937.00	 1962.66	-1845.16	  409.98
     56.9700	 2282.00	 2260.72	-1798.22	  409.97
     57.0700	 2572.00	 2486.89	-1734.39	  409.97
     57.1700	 2553.00	 2574.87	-1841.37	  409.96
     57.2700	 2498.00	 2493.03	-1814.53	  409.96
     57.3700	 2305.00	 2271.01	-1785.51	  409.96
     57.4700	 1896.00	 1975.57	-1899.07	  409.96
     57.5700	 1592.00	 1669.37	-1896.87	  409.96
     57.6700	 1357.00	 1393.37	-1855.87	  409.96
     57.7700	 1041.00	 1168.17	-1946.67	  409.96
     57.8700	  923.00	  999.31	-1895.81	  409.96
     57.9700	  811.00	  882.43	-1890.93	  409.97
     58.0700	  788.00	  808.53	-1840.03	  409.97
     58.1700	  776.00	  767.93	-1811.43	  409.98
     58.2700	  762.00	  752.98	-1810.48	  409.98
     58.3700	  757.00	  758.86	-1821.36	  409.99
     58.4700	  757.00	  783.19	-1845.69	  410.00
     58.5700	  804.00	  824.84	-1840.34	  410.01
     58.6700	  852.00	  882.44	-1849.94	  410.02
     58.7700	  982.00	  952.89	-1790.39	  410.03
     58.8700	 1004.00	 1030.01	-1845.51	  410.04
     58.9700	 1077.00	 1104.77	-1847.27	  410.05
     59.0700	 1186.00	 1168.45	-1801.95	  410.07
     59.1700	 1180.00	 1216.43	-1855.93	  410.08
     59.2700	 1288.00	 1246.68	-1778.18	  410.10
     59.3700	 1349.00	 1256.30	-1726.80	  410.11
     59.4700	 1253.00	 1244.37	-1810.87	  410.13
     59.5700	 1238.00	 1217.60	-1799.10	  410.14
     59.6700	 1198.00	 1188.70	-1810.20	  410.16
     59.7700	 1270.00	 1169.30	-1718.80	  410.18
     59.8700	 1193.00	 1166.66	-1793.16	  410.20
     59.9700	 1149.00	 1185.39	-1855.89	  410.22
     60.0700	 1247.00	 1228.97	-1801.47	  410.24
     60.1700	 1335.00	 1297.66	-1782.16	  410.26
     60.2700	 1454.00	 1384.51	-1750.01	  410.28
     60.3700	 1530.00	 1472.92	-1762.42	  410.30
     60.4700	 1558.00	 1537.45	-1798.95	  410.33
     60.5700	 1500.00	 1551.00	-1870.50	  410.35
     60.6700	 1628.00	 1500.17	-1691.67	  410.38
     60.7700	 1382.00	 1395.04	-1832.54	  410.40
     60.8700	 1263.00	 1260.66	-1817.16	  410.43
     60.9700	 1133.00	 1121.68	-1808.18	  410.45
     61.0700	  996.00	  995.38	-1818.88	  410.48
     61.1700	  892.00	  891.50	-1819.00	  410.51
     61.2700	  814.00	  813.88	-1819.38	  410.53
     61.3700	  747.00	  762.51	-1835.01	  410.56
     61.4700	  770.00	  735.52	-1785.02	  410.59
     61.5700	  801.00	  731.01	-1749.51	  410.62
     61.6700	  727.00	  748.12	-1840.62	  410.65
     61.7700	  766.00	  787.15	-1840.65	  410.68
     61.8700	  820.00	  848.75	-1848.25	  410.71
     61.9700	  973.00	  932.42	-1778.92	  410.74
     62.0700	 1061.00	 1034.91	-1793.41	  410.77
     62.1700	 1137.00	 1148.49	-1830.99	  410.81
     62.2700	 1248.00	 1259.60	-1831.10	  410.84
     62.3700	 1325.00	 1348.53	-1843.03	  410.87
     62.4700	 1376.00	 1393.08	-1836.58	  410.91
     62.5700	 1323.00	 1379.10	-1875.60	  410.94
     62.6700	 1276.00	 1310.49	-1853.99	  410.97
     62.7700	 1211.00	 1206.19	-1814.69	  411.01
     62.8700	 1036.00	 1088.20	-1871.70	  411.04
     62.9700	  956.00	  973.71	-1837.21	  411.08
     63.0700	  809.00	  873.34	-1883.84	  411.12
     63.1700	  773.00	  792.12	-1838.62	  411.15
     63.2700	  743.00	  730.88	-1807.38	  411.19
     63.3700	  732.00	  687.62	-1775.12	  411.23
     63.4700	  649.00	  659.04	-1829.54	  411.26
     63.5700	  643.00	  641.58	-1818.08	  411.30
     63.6700	  633.00	  632.48	-1818.98	  411.34
     63.7700	  677.00	  629.91	-1772.41	  411.38
     63.8700	  669.00	  633.23	-1783.73	  411.41
     63.9700	  684.00	  642.83	-1778.33	  411.45
     64.0700	  675.00	  659.94	-1804.44	  411.49
     64.1700	  720.00	  686.23	-1785.73	  411.53
     64.2700	  691.00	  723.45	-1851.95	  411.57
     64.3700	  791.00	  772.61	-1801.11	  411.61
     64.4700	  878.00	  833.52	-1775.02	  411.65
     64.5700	  944.00	  903.95	-1779.45	  411.69
     64.6700	  959.00	  978.99	-1839.49	  411.73
     64.7700	 1055.00	 1050.00	-1814.50	  411.77
     64.8700	 1123.00	 1106.32	-1802.82	  411.81
     64.9700	 1157.00	 1137.62	-1800.12	  411.85
     65.0700	 1106.00	 1138.43	-1851.93	  411.89
     65.1700	 1084.00	 1110.04	-1845.54	  411.93
     65.2700	 1116.00	 1058.97	-1762.47	  411.97
     65.3700	  972.00	  996.16	-1843.66	  412.01
     65.4700	  913.00	  930.73	-1837.23	  412.05
     65.5700	  902.00	  869.39	-1786.89	  412.09
     65.6700	  803.00	  815.68	-1832.18	  412.13
     65.7700	  759.00	  770.03	-1830.53	  412.17
     65.8700	  684.00	  732.17	-1867.67	  412.21
     65.9700	  629.00	  701.45	-1891.95	  412.26
     66.0700	  694.00	  677.20	-1802.70	  412.30
     66.1700	  661.00	  658.74	-1817.24	  412.34
     66.2700	  609.00	  644.99	-1855.49	  412.38
     66.3700	  621.00	  635.27	-1833.77	  412.42
     66.4700	  684.00	  628.94	-1764.44	  412.46
     66.5700	  623.00	  625.52	-1822.02	  412.50
     66.6700	  585.00	  624.80	-1859.30	  412.54
     66.7700	  572.00	  626.47	-1873.97	  412.58
     66.8700	  630.00	  630.75	-1820.25	  412.62
     66.9700	  649.00	  638.16	-1808.66	  412.66
     67.0700	  634.00	  649.62	-1835.12	  412.71
     67.1700	  646.00	  667.03	-1840.53	  412.75
     67.2700	  712.00	  693.28	-1800.78	  412.79
     67.3700	  719.00	  732.49	-1832.99	  412.83
     67.4700	  803.00	  790.05	-1806.55	  412.87
     67.5700	  821.00	  872.15	-1870.65	  412.91
     67.6700	  952.00	  984.95	-1852.45	  412.95
     67.7700	 1119.00	 1133.10	-1833.60	  412.99
     67.8700	 1330.00	 1317.83	-1807.33	  413.02
     67.9700	 1492.00	 1535.09	-1862.59	  413.06
     68.0700	 1785.00	 1773.59	-1808.09	  413.10
     68.1700	 1964.00	 2013.36	-1868.86	  413.14
     68.2700	 2248.00	 2224.69	-1796.19	  413.18
     68.3700	 2435.00	 2370.78	-1755.28	  413.22
     68.4700	 2328.00	 2418.41	-1909.91	  413.26
     68.5700	 2391.00	 2355.12	-1783.62	  413.29
     68.6700	 2199.00	 2197.29	-1817.79	  413.33
     68.7700	 1928.00	 1979.66	-1871.16	  413.37
     68.8700	 1775.00	 1738.50	-1783.00	  413.41
     68.9700	 1482.00	 1502.15	-1839.65	  413.44
     69.0700	 1274.00	 1289.29	-1834.79	  413.48
     69.1700	 1063.00	 1109.96	-1866.46	  413.51
     69.2700	  950.00	  967.32	-1836.82	  413.55
     69.3700	  834.00	  859.46	-1844.96	  413.58
     69.4700	  768.00	  781.44	-1832.94	  413.62
     69.5700	  785.00	  727.01	-1761.51	  413.65
     69.6700	  635.00	  689.99	-1874.49	  413.69
     69.7700	  675.00	  665.13	-1809.63	  413.72
     69.8700	  636.00	  648.42	-1831.92	  413.75
     69.9700	  651.00	  637.06	-1805.56	  413.79
     70.0700	  619.00	  629.23	-1829.73	  413.82
     70.1700	  606.00	  623.76	-1837.26	  413.85
     70.2700	  603.00	  620.03	-1836.53	  413.88
     70.3700	  624.00	  617.67	-1813.17	  413.91
     70.4700	  680.00	  616.54	-1756.04	  413.94
     70.5700	  661.00	  616.60	-1775.10	  413.97
     70.6700	  571.00	  617.78	-1866.28	  414.00
     70.7700	  605.00	  621.68	-1836.18	  414.03
     70.8700	  654.00	  626.73	-1792.23	  414.06
     70.9700	  657.00	  634.75	-1797.25	  414.09
     71.0700	  636.00	  647.11	-1830.61	  414.12
     71.1700	  641.00	  665.80	-1844.30	  414.14
     71.2700	  725.00	  693.51	-1788.01	  414.17
     71.3700	  734.00	  733.60	-1819.10	  414.20
     71.4700	  811.00	  789.84	-1798.34	  414.22
     71.5700	  851.00	  865.90	-1834.40	  414.25
     71.6700	  948.00	  964.56	-1836.06	  414.27
     71.7700	 1107.00	 1086.75	-1799.25	  414.29
     71.8700	 1203.00	 1230.46	-1846.96	  414.32
     71.9700	 1397.00	 1389.86	-1812.36	  414.34
     72.0700	 1541.00	 1554.39	-1832.89	  414.36
     72.1700	 1752.00	 1708.25	-1775.75	  414.38
     72.2700	 1849.00	 1830.79	-1801.29	  414.40
     72.3700	 1887.00	 1900.05	-1832.55	  414.42
     72.4700	 1858.00	 1900.90	-1862.40	  414.44
     72.5700	 1827.00	 1833.08	-1825.58	  414.46
     72.6700	 1710.00	 1711.35	-1820.85	  414.48
     72.7700	 1558.00	 1557.55	-1819.05	  414.49
     72.8700	 1363.00	 1392.46	-1848.96	  414.51
     72.9700	 1247.00	 1232.05	-1804.55	  414.52
     73.0700	 1097.00	 1086.96	-1809.46	  414.54
     73.1700	 1018.00	  963.09	-1764.59	  414.55
     73.2700	  863.00	  862.47	-1818.97	  414.57
     73.3700	  786.00	  784.29	-1817.79	  414.58
     73.4700	  748.00	  725.84	-1797.34	  414.59
     73.5700	  773.00	  683.52	-1730.02	  414.60
     73.6700	  716.00	  653.60	-1757.10	  414.61
     73.7700	  672.00	  632.75	-1780.25	  414.62
     73.8700	  660.00	  618.30	-1777.80	  414.63
     73.9700	  653.00	  608.27	-1774.77	  414.64
     74.0700	  624.00	  601.32	-1796.82	  414.64
     74.1700	  646.00	  596.55	-1770.05	  414.65
     74.2700	  626.00	  593.41	-1786.91	  414.65
     74.3700	  559.00	  590.99	-1851.49	  414.66
     74.4700	  594.00	  590.11	-1815.61	  414.66
     74.5700	  636.00	  589.99	-1773.49	  414.66
     74.6700	  622.00	  590.36	-1787.86	  414.66
     74.7700	  642.00	  590.95	-1768.45	  414.67
     74.8700	  607.00	  591.40	-1803.90	  414.66
     74.9700	  669.00	  591.38	-1741.88	  414.66
     75.0700	  689.00	  590.62	-1721.12	  414.66
     75.1700	  648.00	  589.11	-1760.61	  414.66
     75.2700	  670.00	  587.07	-1736.57	  414.65
     75.3700	  721.00	  584.90	-1683.40	  414.65
     75.4700	  672.00	  583.07	-1730.57	  414.64
     75.5700	  634.00	  582.06	-1767.56	  414.64
     75.6700	  651.00	  582.38	-1750.88	  414.63
     75.7700	  655.00	  584.55	-1749.05	  414.62
     75.8700	  655.00	  589.12	-1753.62	  414.61
     75.9700	  632.00	  596.57	-1784.07	  414.60
     76.0700	  601.00	  607.52	-1826.02	  414.59
     76.1700	  628.00	  622.25	-1813.75	  414.58
     76.2700	  689.00	  640.84	-1771.34	  414.56
     76.3700	  659.00	  663.02	-1823.52	  414.55
     76.4700	  692.00	  688.03	-1815.53	  414.53
     76.5700	  718.00	  714.51	-1816.01	  414.51
     76.6700	  746.00	  740.38	-1813.88	  414.50
     76.7700	  756.00	  763.17	-1826.67	  414.48
     76.8700	  812.00	  779.65	-1787.15	  414.46
     76.9700	  793.00	  786.98	-1813.48	  414.44
     77.0700	  723.00	  783.64	-1880.14	  414.41
     77.1700	  731.00	  770.23	-1858.73	  414.39
     77.2700	  698.00	  749.14	-1870.64	  414.37
     77.3700	  680.00	  723.48	-1862.98	  414.34
     77.4700	  658.00	  696.13	-1857.63	  414.31
     77.5700	  693.00	  669.37	-1795.87	  414.29
     77.6700	  650.00	  644.80	-1814.30	  414.26
     77.7700	  627.00	  623.37	-1815.87	  414.23
     77.8700	  611.00	  605.51	-1814.01	  414.19
     77.9700	  600.00	  591.21	-1810.71	  414.16
     78.0700	  586.00	  580.18	-1813.68	  414.13
     78.1700	  563.00	  571.95	-1828.45	  414.09
     78.2700	  568.00	  565.96	-1817.46	  414.06
     78.3700	  589.00	  561.64	-1792.14	  414.02
     78.4700	  562.00	  558.42	-1815.92	  413.98
     78.5700	  562.00	  556.34	-1813.84	  413.94
     78.6700	  565.00	  554.89	-1809.39	  413.90
     78.7700	  536.00	  553.89	-1837.39	  413.86
     78.8700	  584.00	  553.22	-1788.72	  413.82
     78.9700	  527.00	  552.81	-1845.31	  413.77
     79.0700	  552.00	  552.61	-1820.11	  413.73
     79.1700	  569.00	  552.62	-1803.12	  413.68
     79.2700	  559.00	  552.84	-1813.34	  413.63
     79.3700	  544.00	  553.29	-1828.79	  413.58
     79.4700	  577.00	  554.00	-1796.50	  413.53
     79.5700	  533.00	  555.02	-1841.52	  413.48
     79.6700	  570.00	  556.43	-1805.93	  413.43
     79.7700	  587.00	  558.31	-1790.81	  413.37
     79.8700	  529.00	  560.79	-1851.29	  413.32
     79.9700	  581.00	  564.04	-1802.54	  413.26
     80.0700	  579.00	  568.29	-1808.79	  413.20
     80.1700	  599.00	  573.82	-1794.32	  413.14
     80.2700	  596.00	  580.99	-1804.49	  413.08
     80.3700	  616.00	  590.19	-1793.69	  413.02
     80.4700	  590.00	  601.84	-1831.34	  412.96
     80.5700	  609.00	  616.36	-1826.86	  412.89
     80.6700	  643.00	  634.13	-1810.63	  412.83
     80.7700	  634.00	  655.41	-1840.91	  412.76
     80.8700	  680.00	  680.20	-1819.70	  412.69
     80.9700	  672.00	  708.11	-1855.61	  412.62
     81.0700	  741.00	  738.08	-1816.58	  412.55
     81.1700	  748.00	  769.13	-1840.63	  412.48
     81.2700	  759.00	  799.18	-1859.68	  412.40
     81.3700	  799.00	  826.15	-1846.65	  412.33
     81.4700	  796.00	  848.18	-1871.68	  412.25
     81.5700	  832.00	  864.00	-1851.50	  412.17
     81.6700	  884.00	  873.02	-1808.52	  412.09
     81.7700	  898.00	  875.21	-1796.71	  412.01
     81.8700	  820.00	  870.99	-1870.49	  411.93
     81.9700	  841.00	  861.14	-1839.64	  411.85
     82.0700	  811.00	  846.58	-1855.08	  411.76
     82.1700	  820.00	  828.20	-1827.70	  411.68
     82.2700	  773.00	  807.00	-1853.50	  411.59
     82.3700	  762.00	  784.10	-1841.60	  411.50
     82.4700	  754.00	  760.66	-1826.16	  411.41
     82.5700	  685.00	  737.58	-1872.08	  411.32
     82.6700	  705.00	  715.35	-1829.85	  411.22
     82.7700	  693.00	  694.17	-1820.67	  411.13
     82.8700	  676.00	  674.18	-1817.68	  411.03
     82.9700	  612.00	  655.59	-1863.09	  410.93
     83.0700	  632.00	  638.75	-1826.25	  410.84
     83.1700	  618.00	  623.99	-1825.49	  410.73
     83.2700	  605.00	  611.56	-1826.06	  410.63
     83.3700	  585.00	  601.62	-1836.12	  410.53
     83.4700	  575.00	  594.20	-1838.70	  410.42
     83.5700	  607.00	  589.23	-1801.73	  410.32
     83.6700	  584.00	  586.57	-1822.07	  410.21
     83.7700	  553.00	  585.97	-1852.47	  410.10
     83.8700	  552.00	  587.08	-1854.58	  409.99
     83.9700	  585.00	  589.49	-1823.99	  409.88
     84.0700	  596.00	  592.68	-1816.18	  409.77
     84.1700	  621.00	  596.06	-1794.56	  409.65
     84.2700	  592.00	  598.98	-1826.48	  409.53
     84.3700	  593.00	  600.82	-1827.32	  409.42
     84.4700	  571.00	  601.06	-1849.56	  409.30
     84.5700	  598.00	  599.32	-1820.82	  409.18
     84.6700	  581.00	  595.99	-1834.49	  409.05
     84.7700	  575.00	  591.27	-1835.77	  408.93
     84.8700	  591.00	  585.69	-1814.19	  408.81
     84.9700	  563.00	  579.72	-1836.22	  408.68
     85.0700	  595.00	  573.81	-1798.31	  408.55
     85.1700	  541.00	  568.29	-1846.79	  408.42
     85.2700	  570.00	  563.41	-1812.91	  408.29
     85.3700	  560.00	  559.32	-1818.82	  408.16
     85.4700	  577.00	  556.12	-1798.62	  408.02
     85.5700	  570.00	  553.84	-1803.34	  407.89
     85.6700	  565.00	  552.47	-1806.97	  407.75
     85.7700	  575.00	  551.99	-1796.49	  407.61
     85.8700	  590.00	  552.35	-1781.85	  407.47
     85.9700	  587.00	  553.52	-1786.02	  407.33
     86.0700	  556.00	  555.45	-1818.95	  407.19
     86.1700	  578.00	  558.12	-1799.62	  407.05
     86.2700	  571.00	  561.53	-1810.03	  406.90
     86.3700	  561.00	  565.64	-1824.14	  406.75
     86.4700	  593.00	  570.45	-1796.95	  406.60
     86.5700	  524.00	  575.93	-1871.43	  406.45
     86.6700	  567.00	  582.05	-1834.55	  406.30
     86.7700	  603.00	  588.78	-1805.28	  406.15
     86.8700	  541.00	  596.11	-1874.61	  406.00
     86.9700	  561.00	  604.07	-1862.57	  405.84
     87.0700	  600.00	  612.75	-1832.25	  405.68
     87.1700	  597.00	  622.25	-1844.75	  405.52
     87.2700	  655.00	  632.58	-1797.08	  405.36
     87.3700	  644.00	  643.60	-1819.10	  405.20
     87.4700	  626.00	  654.98	-1848.48	  405.04
     87.5700	  640.00	  666.12	-1845.62	  404.87
     87.6700	  673.00	  676.24	-1822.74	  404.71
     87.7700	  661.00	  684.34	-1842.84	  404.54
     87.8700	  730.00	  689.44	-1778.94	  404.37
     87.9700	  672.00	  690.76	-1838.26	  404.20
     88.0700	  679.00	  688.01	-1828.51	  404.03
     88.1700	  700.00	  681.49	-1800.99	  403.85
     88.2700	  642.00	  671.96	-1849.46	  403.68
     88.3700	  664.00	  660.40	-1815.90	  403.50
     88.4700	  672.00	  647.85	-1795.35	  403.32
     88.5700	  633.00	  635.24	-1821.74	  403.14
     88.6700	  596.00	  623.35	-1846.85	  402.96
     88.7700	  630.00	  612.83	-1802.33	  402.78
     88.8700	  608.00	  604.11	-1815.61	  402.60
     88.9700	  621.00	  597.45	-1795.95	  402.41
     89.0700	  583.00	  592.48	-1828.98	  402.23
     89.1700	  558.00	  590.00	-1851.50	  402.04
     89.2700	  619.00	  589.34	-1789.84	  401.85
     89.3700	  610.00	  590.15	-1799.65	  401.66
     89.4700	  663.00	  592.00	-1748.50	  401.46
     89.5700	  553.00	  594.35	-1860.85	  401.27
     89.6700	  606.00	  596.65	-1810.15	  401.08
     89.7700	  599.00	  598.35	-1818.85	  400.88
     89.8700	  607.00	  598.94	-1811.44	  400.68
     89.9700	  633.00	  598.11	-1784.61	  400.48
     90.0700	  596.00	  595.79	-1819.29	  400.28
     90.1700	  602.00	  592.13	-1809.63	  400.08
     90.2700	  582.00	  587.47	-1824.97	  399.87
     90.3700	  571.00	  582.16	-1830.67	  399.67
     90.4700	  613.00	  576.60	-1783.10	  399.46
     90.5700	  583.00	  571.09	-1807.59	  399.26
     90.6700	  554.00	  565.89	-1831.39	  399.05
     90.7700	  570.00	  561.17	-1810.67	  398.84
     90.8700	  597.00	  557.06	-1779.56	  398.62
     90.9700	  546.00	  553.62	-1827.12	  398.41
     91.0700	  599.00	  550.87	-1771.37	  398.20
     91.1700	  547.00	  548.79	-1821.29	  397.98
     91.2700	  560.00	  547.34	-1806.84	  397.76
     91.3700	  512.00	  546.47	-1853.97	  397.55
     91.4700	  507.00	  546.15	-1858.65	  397.33
     91.5700	  579.00	  546.36	-1786.86	  397.10
     91.6700	  518.00	  547.09	-1848.59	  396.88
     91.7700	  570.00	  548.39	-1797.89	  396.66
     91.8700	  561.00	  550.33	-1808.83	  396.43
     91.9700	  518.00	  553.02	-1854.52	  396.21
     92.0700	  555.00	  556.62	-1821.12	  395.98
     92.1700	  514.00	  561.30	-1866.80	  395.75
     92.2700	  560.00	  567.26	-1826.76	  395.52
     92.3700	  597.00	  574.71	-1797.21	  395.29
     92.4700	  567.00	  583.86	-1836.36	  395.06
     92.5700	  564.00	  594.87	-1850.37	  394.82
     92.6700	  561.00	  607.85	-1866.35	  394.59
     92.7700	  602.00	  622.85	-1840.35	  394.35
     92.8700	  639.00	  639.81	-1820.31	  394.11
     92.9700	  617.00	  658.54	-1861.04	  393.87
     93.0700	  615.00	  678.73	-1883.23	  393.63
     93.1700	  654.00	  699.93	-1865.43	  393.39
     93.2700	  722.00	  721.52	-1819.02	  393.15
     93.3700	  721.00	  742.77	-1841.27	  392.91
     93.4700	  717.00	  762.87	-1865.37	  392.66
     93.5700	  711.00	  781.12	-1889.62	  392.41
     93.6700	  767.00	  797.10	-1849.60	  392.17
     93.7700	  751.00	  810.77	-1879.27	  391.92
     93.8700	  800.00	  822.50	-1842.00	  391.67
     93.9700	  841.00	  832.85	-1811.35	  391.42
     94.0700	  826.00	  842.36	-1835.86	  391.17
     94.1700	  867.00	  851.44	-1803.94	  390.91
     94.2700	  770.00	  860.32	-1909.82	  390.66
     94.3700	  845.00	  869.07	-1843.57	  390.40
     94.4700	  858.00	  877.47	-1838.97	  390.15
     94.5700	  909.00	  886.29	-1796.79	  389.89
     94.6700	  898.00	  895.44	-1816.94	  389.63
     94.7700	  887.00	  905.03	-1837.53	  389.37
     94.8700	  896.00	  914.91	-1838.41	  389.11
     94.9700	  927.00	  924.60	-1817.10	  388.85
     95.0700	  963.00	  933.22	-1789.72	  388.59
     95.1700	  969.00	  939.53	-1790.03	  388.33
     95.2700	  865.00	  942.14	-1896.64	  388.06
     95.3700	  950.00	  939.79	-1809.29	  387.80
     95.4700	  924.00	  931.68	-1827.18	  387.53
     95.5700	  912.00	  917.76	-1825.26	  387.26
     95.6700	  901.00	  898.73	-1817.23	  386.99
     95.7700	  942.00	  875.94	-1753.44	  386.72
     95.8700	  900.00	  851.03	-1770.53	  386.45
     95.9700	  806.00	  825.78	-1839.28	  386.18
     96.0700	  750.00	  801.90	-1871.40	  385.91
     96.1700	  744.00	  780.98	-1856.48	  385.64
     96.2700	  768.00	  764.48	-1815.98	  385.36
     96.3700	  751.00	  753.69	-1822.19	  385.09
     96.4700	  732.00	  749.76	-1837.26	  384.81
     96.5700	  735.00	  753.64	-1838.14	  384.54
     96.6700	  754.00	  766.11	-1831.61	  384.26
     96.7700	  837.00	  787.75	-1770.25	  383.98
     96.8700	  784.00	  818.91	-1854.41	  383.70
     96.9700	  902.00	  859.66	-1777.16	  383.42
     97.0700	  887.00	  909.72	-1842.22	  383.14
     97.1700	  971.00	  968.42	-1816.92	  382.86
     97.2700	 1008.00	 1034.64	-1846.14	  382.58
     97.3700	 1162.00	 1106.74	-1764.24	  382.30
     97.4700	 1151.00	 1182.50	-1851.00	  382.01
     97.5700	 1201.00	 1259.10	-1877.60	  381.73
     97.6700	 1312.00	 1333.14	-1840.64	  381.45
     97.7700	 1349.00	 1400.71	-1871.21	  381.16
     97.8700	 1413.00	 1457.58	-1864.08	  380.87
     97.9700	 1465.00	 1499.67	-1854.17	  380.59
     98.0700	 1562.00	 1523.67	-1781.17	  380.30
     98.1700	 1466.00	 1527.78	-1881.28	  380.01
     98.2700	 1568.00	 1512.12	-1763.62	  379.72
     98.3700	 1472.00	 1478.64	-1826.14	  379.43
     98.4700	 1417.00	 1430.62	-1833.12	  379.14
     98.5700	 1355.00	 1372.02	-1836.52	  378.85
     98.6700	 1321.00	 1306.92	-1805.42	  378.56
     98.7700	 1199.00	 1239.16	-1859.66	  378.27
     98.8700	 1123.00	 1172.17	-1868.67	  377.98
     98.9700	 1053.00	 1108.94	-1875.44	  377.69
     99.0700	 1013.00	 1051.97	-1858.47	  377.40
     99.1700	  996.00	 1003.34	-1826.84	  377.10
     99.2700	  920.00	  964.68	-1864.18	  376.81
     99.3700	  924.00	  937.30	-1832.80	  376.52
     99.4700	  959.00	  922.15	-1782.65	  376.22
     99.5700	  911.00	  919.90	-1828.40	  375.93
     99.6700	  968.00	  930.91	-1782.41	  375.63
     99.7700	  975.00	  955.28	-1799.78	  375.34
     99.8700	 1011.00	  992.85	-1801.35	  375.04
     99.9700	 1038.00	 1043.16	-1824.66	  374.75
    100.0700	 1172.00	 1105.43	-1752.93	  374.45
    100.1700	 1233.00	 1178.55	-1765.05	  374.15
    100.2700	 1291.00	 1261.00	-1789.50	  373.86
    100.3700	 1362.00	 1350.77	-1808.27	  373.56
    100.4700	 1472.00	 1445.36	-1792.86	  373.26
    100.5700	 1644.00	 1541.72	-1717.22	  372.97
    100.6700	 1635.00	 1636.41	-1820.91	  372.67
    100.7700	 1765.00	 1725.76	-1780.26	  372.37
    100.8700	 1855.00	 1806.39	-1770.89	  372.07
    100.9700	 1946.00	 1875.32	-1748.82	  371.78
    101.0700	 1899.00	 1930.41	-1850.91	  371.48
    101.1700	 2065.00	 1970.30	-1724.80	  371.18
    101.2700	 1952.00	 1994.17	-1861.67	  370.88
    101.3700	 1957.00	 2001.41	-1863.91	  370.58
    101.4700	 2015.00	 1991.73	-1796.23	  370.29
    101.5700	 2009.00	 1965.26	-1775.76	  369.99
    101.6700	 1954.00	 1923.02	-1788.52	  369.69
    101.7700	 1860.00	 1867.09	-1826.59	  369.39
    101.8700	 1853.00	 1800.62	-1767.12	  369.10
    101.9700	 1773.00	 1727.45	-1773.95	  368.80
    102.0700	 1690.00	 1651.57	-1781.07	  368.50
    102.1700	 1660.00	 1576.66	-1736.16	  368.20
    102.2700	 1519.00	 1505.69	-1806.19	  367.91
    102.3700	 1399.00	 1440.86	-1861.36	  367.61
    102.4700	 1372.00	 1383.57	-1831.07	  367.31
    102.5700	 1341.00	 1334.38	-1812.88	  367.02
    102.6700	 1255.00	 1293.15	-1857.65	  366.72
    102.7700	 1240.00	 1259.01	-1838.51	  366.43
    102.8700	 1226.00	 1230.58	-1824.08	  366.13
    102.9700	 1185.00	 1206.01	-1840.51	  365.84
    103.0700	 1189.00	 1183.22	-1813.72	  365.54
    103.1700	 1134.00	 1160.12	-1845.62	  365.25
    103.2700	 1157.00	 1134.92	-1797.42	  364.95
    103.3700	 1054.00	 1106.43	-1871.93	  364.66
    103.4700	 1093.00	 1074.16	-1800.66	  364.37
    103.5700	 1095.00	 1038.27	-1762.77	  364.07
    103.6700	  985.00	  999.46	-1833.96	  363.78
    103.7700	 1025.00	  958.68	-1753.18	  363.49
    103.8700	  911.00	  916.99	-1825.49	  363.20
    103.9700	  897.00	  875.44	-1797.94	  362.91
    104.0700	  859.00	  834.93	-1795.43	  362.62
    104.1700	  815.00	  796.26	-1800.76	  362.33
    104.2700	  850.00	  760.05	-1729.55	  362.04
    104.3700	  722.00	  726.78	-1824.28	  361.76
    104.4700	  744.00	  696.75	-1772.25	  361.47
    104.5700	  694.00	  670.12	-1795.62	  361.18
    104.6700	  680.00	  646.91	-1786.41	  360.90
    104.7700	  647.00	  627.01	-1799.51	  360.62
    104.8700	  701.00	  610.24	-1728.74	  360.33
    104.9700	  644.00	  596.34	-1771.84	  360.05
    105.0700	  587.00	  585.01	-1817.51	  359.77
    105.1700	  647.00	  575.97	-1748.47	  359.49
    105.2700	  619.00	  568.90	-1769.40	  359.21
    105.3700	  580.00	  563.55	-1803.05	  358.93
    105.4700	  602.00	  559.67	-1777.17	  358.65
    105.5700	  574.00	  557.07	-1802.57	  358.37
    105.6700	  586.00	  555.60	-1789.10	  358.10
    105.7700	  556.00	  555.15	-1818.65	  357.82
    105.8700	  530.00	  555.66	-1845.16	  357.55
    105.9700	  593.00	  557.10	-1783.60	  357.28
    106.0700	  520.00	  559.47	-1858.97	  357.01
    106.1700	  543.00	  562.77	-1839.27	  356.74
    106.2700	  576.00	  567.10	-1810.60	  356.47
    106.3700	  604.00	  572.47	-1787.97	  356.20
    106.4700	  602.00	  578.95	-1796.45	  355.94
    106.5700	  592.00	  586.58	-1814.08	  355.67
    106.6700	  612.00	  595.36	-1802.86	  355.41
    106.7700	  583.00	  605.25	-1841.75	  355.15
    106.8700	  664.00	  616.24	-1771.74	  354.89
    106.9700	  637.00	  628.18	-1810.68	  354.63
    107.0700	  636.00	  640.89	-1824.39	  354.37
    107.1700	  656.00	  654.14	-1817.64	  354.12
    107.2700	  628.00	  667.62	-1859.12	  353.86
    107.3700	  618.00	  680.98	-1882.48	  353.61
    107.4700	  698.00	  693.82	-1815.32	  353.36
    107.5700	  725.00	  705.71	-1800.21	  353.11
    107.6700	  738.00	  716.20	-1797.70	  352.86
    107.7700	  732.00	  724.90	-1812.40	  352.62
    107.8700	  694.00	  731.53	-1857.03	  352.37
    107.9700	  710.00	  735.94	-1845.44	  352.13
    108.0700	  719.00	  738.17	-1838.67	  351.89
    108.1700	  723.00	  738.53	-1835.03	  351.65
    108.2700	  773.00	  737.38	-1783.88	  351.42
    108.3700	  688.00	  735.21	-1866.71	  351.18
    108.4700	  752.00	  732.51	-1800.01	  350.95
    108.5700	  742.00	  729.71	-1807.21	  350.72
    108.6700	  692.00	  727.20	-1854.70	  350.49
    108.7700	  684.00	  725.24	-1860.74	  350.26
    108.8700	  684.00	  723.99	-1859.49	  350.04
    108.9700	  641.00	  723.49	-1901.99	  349.82
    109.0700	  705.00	  723.66	-1838.16	  349.60
    109.1700	  717.00	  724.32	-1826.82	  349.38
    109.2700	  718.00	  725.19	-1826.69	  349.16
    109.3700	  712.00	  725.89	-1833.39	  348.95
    109.4700	  751.00	  726.02	-1794.52	  348.74
    109.5700	  699.00	  725.14	-1845.64	  348.53
    109.6700	  708.00	  722.88	-1834.38	  348.33
    109.7700	  713.00	  719.00	-1825.50	  348.12
    109.8700	  758.00	  713.35	-1774.85	  347.92
    109.9700	  653.00	  706.01	-1872.51	  347.72
    110.0700	  686.00	  697.13	-1830.63	  347.53
    110.1700	  675.00	  687.01	-1831.51	  347.34
    110.2700	  700.00	  675.97	-1795.47	  347.15
    110.3700	  654.00	  664.39	-1829.89	  346.96
    110.4700	  665.00	  652.58	-1807.08	  346.77
    110.5700	  678.00	  640.86	-1782.36	  346.59
    110.6700	  663.00	  629.50	-1786.00	  346.41
    110.7700	  667.00	  618.73	-1771.23	  346.23
    110.8700	  639.00	  608.74	-1789.24	  346.06
    110.9700	  576.00	  599.67	-1843.17	  345.89
    111.0700	  605.00	  591.62	-1806.12	  345.72
    111.1700	  592.00	  584.65	-1812.15	  345.56
    111.2700	  570.00	  578.78	-1828.28	  345.40
    111.3700	  586.00	  574.00	-1807.50	  345.24
    111.4700	  588.00	  570.27	-1801.77	  345.08
    111.5700	  534.00	  567.52	-1853.02	  344.93
    111.6700	  586.00	  565.69	-1799.19	  344.78
    111.7700	  611.00	  564.68	-1773.18	  344.64
    111.8700	  601.00	  564.41	-1782.91	  344.49
    111.9700	  556.00	  564.77	-1828.27	  344.35
    112.0700	  556.00	  565.66	-1829.16	  344.22
    112.1700	  557.00	  567.02	-1829.52	  344.09
    112.2700	  596.00	  568.74	-1792.24	  343.96
    112.3700	  553.00	  570.76	-1837.26	  343.83
    112.4700	  572.00	  573.03	-1820.53	  343.71
    112.5700	  567.00	  575.49	-1827.99	  343.59
    112.6700	  583.00	  578.11	-1814.61	  343.48
    112.7700	  561.00	  580.90	-1839.40	  343.37
    112.8700	  581.00	  583.85	-1822.35	  343.26
    112.9700	  597.00	  587.01	-1809.51	  343.16
    113.0700	  532.00	  590.41	-1877.91	  343.06
    113.1700	  615.00	  594.11	-1798.61	  342.96
    113.2700	  566.00	  598.18	-1851.68	  342.87
    113.3700	  574.00	  602.73	-1848.23	  342.79
    113.4700	  598.00	  607.85	-1829.35	  342.70
    113.5700	  617.00	  613.68	-1816.18	  342.62
    113.6700	  581.00	  620.39	-1858.89	  342.55
    113.7700	  574.00	  628.20	-1873.70	  342.48
    113.8700	  636.00	  637.36	-1820.86	  342.41
    113.9700	  606.00	  648.21	-1861.71	  342.35
    114.0700	  679.00	  661.15	-1801.65	  342.29
    114.1700	  632.00	  676.71	-1864.21	  342.24
    114.2700	  672.00	  695.53	-1843.03	  342.19
    114.3700	  672.00	  718.36	-1865.86	  342.14
    114.4700	  713.00	  746.16	-1852.66	  342.10
    114.5700	  799.00	  780.03	-1800.53	  342.07
    114.6700	  812.00	  821.28	-1828.78	  342.03
    114.7700	  916.00	  871.42	-1774.92	  342.01
    114.8700	  919.00	  932.13	-1832.63	  341.99
    114.9700	  999.00	 1005.28	-1825.78	  341.97
    115.0700	 1019.00	 1092.92	-1893.42	  341.96
    115.1700	 1190.00	 1197.21	-1826.71	  341.95
    115.2700	 1401.00	 1320.33	-1738.83	  341.95
    115.3700	 1509.00	 1464.43	-1774.93	  341.95
    115.4700	 1687.00	 1631.54	-1764.04	  341.96
    115.5700	 1969.00	 1823.45	-1673.95	  341.97
    115.6700	 2112.00	 2041.61	-1749.11	  341.99
    115.7700	 2438.00	 2286.89	-1668.39	  342.01
    115.8700	 2631.00	 2559.57	-1748.07	  342.04
    115.9700	 3011.00	 2859.06	-1667.56	  342.07
    116.0700	 3283.00	 3183.99	-1720.49	  342.11
    116.1700	 3516.00	 3531.99	-1835.49	  342.15
    116.2700	 3802.00	 3899.54	-1917.04	  342.20
    116.3700	 4347.00	 4282.03	-1754.53	  342.26
    116.4700	 4694.00	 4673.61	-1799.11	  342.32
    116.5700	 4884.00	 5067.53	-2003.03	  342.39
    116.6700	 5262.00	 5455.87	-2013.37	  342.46
    116.7700	 5935.00	 5829.62	-1714.12	  342.53
    116.8700	 6033.00	 6179.00	-1965.50	  342.62
    116.9700	 6456.00	 6493.67	-1857.17	  342.71
    117.0700	 6852.00	 6763.27	-1730.77	  342.80
    117.1700	 6853.00	 6977.98	-1944.48	  342.90
    117.2700	 7022.00	 7129.20	-1926.70	  343.01
    117.3700	 7221.00	 7210.61	-1809.11	  343.12
    117.4700	 7278.00	 7218.83	-1760.33	  343.24
    117.5700	 7200.00	 7153.94	-1773.44	  343.37
    117.6700	 7020.00	 7019.29	-1818.79	  343.50
    117.7700	 6811.00	 6821.23	-1829.73	  343.63
    117.8700	 6587.00	 6568.27	-1800.77	  343.78
    117.9700	 6138.00	 6270.22	-1951.72	  343.93
    118.0700	 5798.00	 5937.33	-1958.83	  344.09
    118.1700	 5516.00	 5579.67	-1883.17	  344.25
    118.2700	 5119.00	 5206.84	-1907.34	  344.42
    118.3700	 4757.00	 4827.57	-1890.07	  344.60
    118.4700	 4551.00	 4449.63	-1718.13	  344.78
    118.5700	 4199.00	 4079.55	-1700.05	  344.97
    118.6700	 3748.00	 3722.75	-1794.25	  345.16
    118.7700	 3541.00	 3383.65	-1662.15	  345.37
    118.8700	 3168.00	 3065.49	-1716.99	  345.58
    118.9700	 2795.00	 2770.55	-1795.05	  345.80
    119.0700	 2471.00	 2500.11	-1848.61	  346.02
    119.1700	 2307.00	 2254.66	-1767.16	  346.25
    119.2700	 2023.00	 2034.06	-1830.56	  346.49
    119.3700	 1849.00	 1837.57	-1808.07	  346.74
    119.4700	 1738.00	 1664.06	-1745.56	  346.99
    119.5700	 1482.00	 1511.98	-1849.48	  347.25
    119.6700	 1370.00	 1379.59	-1829.09	  347.52
    119.7700	 1304.00	 1265.07	-1780.57	  347.79
    119.8700	 1213.00	 1166.51	-1773.01	  348.08
    119.9700	 1191.00	 1082.07	-1710.57	  348.37
    120.0700	  972.00	 1009.93	-1857.43	  348.66
    120.1700	  994.00	  948.45	-1773.95	  348.97
    120.2700	  866.00	  896.12	-1849.62	  349.28
    120.3700	  863.00	  851.60	-1808.10	  349.60
    120.4700	  886.00	  813.73	-1747.23	  349.93
    120.5700	  779.00	  781.50	-1822.00	  350.27
    120.6700	  816.00	  754.05	-1757.55	  350.62
    120.7700	  724.00	  730.65	-1826.15	  350.97
    120.8700	  729.00	  710.71	-1801.21	  351.33
    120.9700	  722.00	  693.74	-1791.24	  351.70
    121.0700	  691.00	  679.32	-1807.82	  352.08
    121.1700	  655.00	  667.11	-1831.61	  352.47
    121.2700	  626.00	  656.86	-1850.36	  352.86
    121.3700	  600.00	  648.32	-1867.82	  353.26
    121.4700	  643.00	  641.31	-1817.81	  353.68
    121.5700	  591.00	  635.68	-1864.18	  354.10
    121.6700	  620.00	  631.30	-1830.80	  354.53
    121.7700	  663.00	  628.05	-1784.55	  354.96
    121.8700	  640.00	  625.86	-1805.36	  355.41
    121.9700	  601.00	  624.62	-1843.12	  355.87
    122.0700	  613.00	  624.26	-1830.76	  356.33
    122.1700	  643.00	  624.71	-1801.21	  356.81
    122.2700	  598.00	  625.89	-1847.39	  357.29
    122.3700	  624.00	  627.75	-1823.25	  357.78
    122.4700	  653.00	  630.19	-1796.69	  358.28
    122.5700	  651.00	  633.15	-1801.65	  358.79
    122.6700	  622.00	  636.54	-1834.04	  359.31
    122.7700	  651.00	  640.28	-1808.78	  359.84
    122.8700	  676.00	  644.27	-1787.77	  360.38
    122.9700	  656.00	  648.40	-1811.90	  360.93
    123.0700	  688.00	  652.59	-1784.09	  361.49
    123.1700	  676.00	  656.71	-1800.21	  362.06
    123.2700	  667.00	  660.65	-1813.15	  362.64
    123.3700	  668.00	  664.31	-1815.81	  363.22
    123.4700	  648.00	  667.58	-1839.08	  363.82
    123.5700	  686.00	  670.37	-1803.87	  364.43
    123.6700	  673.00	  672.61	-1819.11	  365.05
    123.7700	  680.00	  674.24	-1813.74	  365.68
    123.8700	  690.00	  675.25	-1804.75	  366.31
    123.9700	  674.00	  675.64	-1821.14	  366.96
    124.0700	  654.00	  675.44	-1840.94	  367.62
    124.1700	  685.00	  674.70	-1809.20	  368.29
    124.2700	  618.00	  673.48	-1874.98	  368.97
    124.3700	  631.00	  671.86	-1860.36	  369.66
    124.4700	  660.00	  669.90	-1829.40	  370.37
    124.5700	  680.00	  667.68	-1807.18	  371.08
    124.6700	  631.00	  665.23	-1853.73	  371.80
    124.7700	  661.00	  662.67	-1821.17	  372.54
    124.8700	  616.00	  660.03	-1863.53	  373.28
    124.9700	  647.00	  488.02	-1660.52	  374.04
    125.0700	  627.00	  488.79	-1819.50	  374.80
    125.1700	  649.00	  489.57	-1819.50	  375.58
    125.2700	  671.00	  490.36	-1819.50	  376.37
    125.3700	  593.00	  491.16	-1819.50	  377.18
    125.4700	  606.00	  491.97	-1819.50	  377.99
    125.5700	  631.00	  492.80	-1819.50	  378.81
    125.6700	  633.00	  493.63	-1819.50	  379.65
    125.7700	  660.00	  494.48	-1819.50	  380.50
    125.8700	  631.00	  495.34	-1819.50	  381.36
    125.9700	  612.00	  496.21	-1819.50	  382.23
    126.0700	  634.00	  497.09	-1819.50	  383.11
    126.1700	  617.00	  497.99	-1819.50	  384.01
    126.2700	  595.00	  498.90	-1819.50	  384.92
    126.3700	  610.00	  499.82	-1819.50	  385.84
    126.4700	  564.00	  500.75	-1819.50	  386.77
    126.5700	  609.00	  501.70	-1819.50	  387.71
    126.6700	  573.00	  502.65	-1819.50	  388.67
    126.7700	  610.00	  503.62	-1819.50	  389.64
    126.8700	  596.00	  504.60	-1819.50	  390.62
    126.9700	  566.00	  505.60	-1819.50	  391.62
    127.0700	  543.00	  506.61	-1819.50	  392.63
    127.1700	  577.00	  507.63	-1819.50	  393.65
    127.2700	  576.00	  508.66	-1819.50	  394.68
    127.3700	  605.00	  509.71	-1819.50	  395.73
    127.4700	  551.00	  510.77	-1819.50	  396.79
    127.5700	  657.00	  511.84	-1819.50	  397.86
    127.6700	  598.00	  512.93	-1819.50	  398.95
    127.7700	  587.00	  514.03	-1819.50	  400.04
    127.8700	  598.00	  515.14	-1819.50	  401.16
    127.9700	  571.00	  516.27	-1819.50	  402.28
    128.0700	  653.00	  517.41	-1819.50	  403.43
    128.1700	  643.00	  518.56	-1819.50	  404.58
    128.2700	  645.00	  519.73	-1819.50	  405.75
    128.3700	  654.00	  520.91	-1819.50	  406.93
    128.4700	  707.00	  522.11	-1819.50	  408.12
    128.5700	    0.00	  523.32	-1819.50	  409.33
    128.6700	    0.00	  524.54	-1819.50	  410.56
     12.3753	        	        	        	        	       0	(  0  0  2)	  0  1
     12.3753	        	        	        	        	    -454	(  0  0  2)	  0  1
     25.0165	        	        	        	        	       0	(  0  0  4)	  0  1
     25.0165	        	        	        	        	    -454	(  0  0  4)	  0  1
     28.4612	        	        	        	        	       0	(  1  0  0)	  0  1
     28.4612	        	        	        	        	    -454	(  1  0  0)	  0  1
     29.1621	        	        	        	        	       0	(  1  0  1)	  0  1
     29.1621	        	        	        	        	    -454	(  1  0  1)	  0  1
     31.1787	        	        	        	        	       0	(  1  0  2)	  0  1
     31.1787	        	        	        	        	    -454	(  1  0  2)	  0  1
     34.3032	        	        	        	        	       0	(  1  0  3)	  0  1
     34.3032	        	        	        	        	    -454	(  1  0  3)	  0  1
     37.9782	        	        	        	        	       0	(  0  0  6)	  0  1
     37.9782	        	        	        	        	    -454	(  0  0  6)	  0  1
     38.3010	        	        	        	        	       0	(  1  0  4)	  0  1
     38.3010	        	        	        	        	    -454	(  1  0  4)	  0  1
     42.9757	        	        	        	        	       0	(  1  0  5)	  0  1
     42.9757	        	        	        	        	    -454	(  1  0  5)	  0  1
     48.1878	        	        	        	        	       0	(  1  0  6)	  0  1
     48.1878	        	        	        	        	    -454	(  1  0  6)	  0  1
     50.4983	        	        	        	        	       0	(  1  1  0)	  0  1
     50.4983	        	        	        	        	    -454	(  1  1  0)	  0  1
     51.4701	        	        	        	        	       0	(  0  0  8)	  0  1
     51.4701	        	        	        	        	    -454	(  0  0  8)	  0  1
     52.2314	        	        	        	        	       0	(  1  1  2)	  0  1
     52.2314	        	        	        	        	    -454	(  1  1  2)	  0  1
     53.8498	        	        	        	        	       0	(  1  0  7)	  0  1
     53.8498	        	        	        	        	    -454	(  1  0  7)	  0  1
     57.2088	        	        	        	        	       0	(  1  1  4)	  0  1
     57.2088	        	        	        	        	    -454	(  1  1  4)	  0  1
     59.0387	        	        	        	        	       0	(  2  0  0)	  0  1
     59.0387	        	        	        	        	    -454	(  2  0  0)	  0  1
     59.4327	        	        	        	        	       0	(  2  0  1)	  0  1
     59.4327	        	        	        	        	    -454	(  2  0  1)	  0  1
     59.9156	        	        	        	        	       0	(  1  0  8)	  0  1
     59.9156	        	        	        	        	    -454	(  1  0  8)	  0  1
     60.6054	        	        	        	        	       0	(  2  0  2)	  0  1
     60.6054	        	        	        	        	    -454	(  2  0  2)	  0  1
     62.5308	        	        	        	        	       0	(  2  0  3)	  0  1
     62.5308	        	        	        	        	    -454	(  2  0  3)	  0  1
     64.9515	        	        	        	        	       0	(  1  1  6)	  0  1
     64.9515	        	        	        	        	    -454	(  1  1  6)	  0  1
     65.1718	        	        	        	        	       0	(  2  0  4)	  0  1
     65.1718	        	        	        	        	    -454	(  2  0  4)	  0  1
     65.7828	        	        	        	        	       0	(  0  0 10)	  0  1
     65.7828	        	        	        	        	    -454	(  0  0 10)	  0  1
     66.3718	        	        	        	        	       0	(  1  0  9)	  0  1
     66.3718	        	        	        	        	    -454	(  1  0  9)	  0  1
     68.4879	        	        	        	        	       0	(  2  0  5)	  0  1
     68.4879	        	        	        	        	    -454	(  2  0  5)	  0  1
     72.4423	        	        	        	        	       0	(  2  0  6)	  0  1
     72.4423	        	        	        	        	    -454	(  2  0  6)	  0  1
     73.2334	        	        	        	        	       0	(  1  0 10)	  0  1
     73.2334	        	        	        	        	    -454	(  1  0 10)	  0  1
     75.0575	        	        	        	        	       0	(  1  1  8)	  0  1
     75.0575	        	        	        	        	    -454	(  1  1  8)	  0  1
     77.0091	        	        	        	        	       0	(  2  0  7)	  0  1
     77.0091	        	        	        	        	    -454	(  2  0  7)	  0  1
     80.5440	        	        	        	        	       0	(  1  0 11)	  0  1
     80.5440	        	        	        	        	    -454	(  1  0 11)	  0  1
     81.3710	        	        	        	        	       0	(  0  0 12)	  0  1
     81.3710	        	        	        	        	    -454	(  0  0 12)	  0  1
     81.4148	        	        	        	        	       0	(  2  1  0)	  0  1
     81.4148	        	        	        	        	    -454	(  2  1  0)	  0  1
     81.7573	        	        	        	        	       0	(  2  1  1)	  0  1
     81.7573	        	        	        	        	    -454	(  2  1  1)	  0  1
     82.1786	        	        	        	        	       0	(  2  0  8)	  0  1
     82.1786	        	        	        	        	    -454	(  2  0  8)	  0  1
     82.7833	        	        	        	        	       0	(  2  1  2)	  0  1
     82.7833	        	        	        	        	    -454	(  2  1  2)	  0  1
     84.4884	        	        	        	        	       0	(  2  1  3)	  0  1
     84.4884	        	        	        	        	    -454	(  2  1  3)	  0  1
     86.8678	        	        	        	        	       0	(  2  1  4)	  0  1
     86.8678	        	        	        	        	    -454	(  2  1  4)	  0  1
     87.4248	        	        	        	        	       0	(  1  1 10)	  0  1
     87.4248	        	        	        	        	    -454	(  1  1 10)	  0  1
     87.9641	        	        	        	        	       0	(  2  0  9)	  0  1
     87.9641	        	        	        	        	    -454	(  2  0  9)	  0  1
     88.3816	        	        	        	        	       0	(  1  0 12)	  0  1
     88.3816	        	        	        	        	    -454	(  1  0 12)	  0  1
     89.9200	        	        	        	        	       0	(  2  1  5)	  0  1
     89.9200	        	        	        	        	    -454	(  2  1  5)	  0  1
     93.6514	        	        	        	        	       0	(  2  1  6)	  0  1
     93.6514	        	        	        	        	    -454	(  2  1  6)	  0  1
     94.4097	        	        	        	        	       0	(  2  0 10)	  0  1
     94.4097	        	        	        	        	    -454	(  2  0 10)	  0  1
     95.4130	        	        	        	        	       0	(  3  0  0)	  0  1
     95.4130	        	        	        	        	    -454	(  3  0  0)	  0  1
     95.7536	        	        	        	        	       0	(  3  0  1)	  0  1
     95.7536	        	        	        	        	    -454	(  3  0  1)	  0  1
     96.7769	        	        	        	        	       0	(  3  0  2)	  0  1
     96.7769	        	        	        	        	    -454	(  3  0  2)	  0  1
     96.8735	        	        	        	        	       0	(  1  0 13)	  0  1
     96.8735	        	        	        	        	    -454	(  1  0 13)	  0  1
     98.0834	        	        	        	        	       0	(  2  1  7)	  0  1
     98.0834	        	        	        	        	    -454	(  2  1  7)	  0  1
     98.4874	        	        	        	        	       0	(  3  0  3)	  0  1
     98.4874	        	        	        	        	    -454	(  3  0  3)	  0  1
     99.0684	        	        	        	        	       0	(  0  0 14)	  0  1
     99.0684	        	        	        	        	    -454	(  0  0 14)	  0  1
    100.8956	        	        	        	        	       0	(  3  0  4)	  0  1
    100.8956	        	        	        	        	    -454	(  3  0  4)	  0  1
    101.6050	        	        	        	        	       0	(  2  0 11)	  0  1
    101.6050	        	        	        	        	    -454	(  2  0 11)	  0  1
    102.4408	        	        	        	        	       0	(  1  1 12)	  0  1
    102.4408	        	        	        	        	    -454	(  1  1 12)	  0  1
    103.2612	        	        	        	        	       0	(  2  1  8)	  0  1
    103.2612	        	        	        	        	    -454	(  2  1  8)	  0  1
    104.0218	        	        	        	        	       0	(  3  0  5)	  0  1
    104.0218	        	        	        	        	    -454	(  3  0  5)	  0  1
    106.2292	        	        	        	        	       0	(  1  0 14)	  0  1
    106.2292	        	        	        	        	    -454	(  1  0 14)	  0  1
    107.9030	        	        	        	        	       0	(  3  0  6)	  0  1
    107.9030	        	        	        	        	    -454	(  3  0  6)	  0  1
    109.2704	        	        	        	        	       0	(  2  1  9)	  0  1
    109.2704	        	        	        	        	    -454	(  2  1  9)	  0  1
    109.7133	        	        	        	        	       0	(  2  0 12)	  0  1
    109.7133	        	        	        	        	    -454	(  2  0 12)	  0  1
    112.6049	        	        	        	        	       0	(  3  0  7)	  0  1
    112.6049	        	        	        	        	    -454	(  3  0  7)	  0  1
    116.2654	        	        	        	        	       0	(  2  1 10)	  0  1
    116.2654	        	        	        	        	    -454	(  2  1 10)	  0  1
    116.8199	        	        	        	        	       0	(  1  0 15)	  0  1
    116.8199	        	        	        	        	    -454	(  1  0 15)	  0  1
    117.3864	        	        	        	        	       0	(  2  2  0)	  0  1
    117.3864	        	        	        	        	    -454	(  2  2  0)	  0  1
    118.2424	        	        	        	        	       0	(  3  0  8)	  0  1
    118.2424	        	        	        	        	    -454	(  3  0  8)	  0  1
    118.9260	        	        	        	        	       0	(  2  2  2)	  0  1
    118.9260	        	        	        	        	    -454	(  2  2  2)	  0  1
    119.0357	        	        	        	        	       0	(  2  0 13)	  0  1
    119.0357	        	        	        	        	    -454	(  2  0 13)	  0  1
    120.8536	        	        	        	        	       0	(  0  0 16)	  0  1
    120.8536	        	        	        	        	    -454	(  0  0 16)	  0  1
    121.5555	        	        	        	        	       0	(  1  1 14)	  0  1
    121.5555	        	        	        	        	    -454	(  1  1 14)	  0  1
    123.6943	        	        	        	        	       0	(  2  2  4)	  0  1
    123.6943	        	        	        	        	    -454	(  2  2  4)	  0  1
    124.5355	        	        	        	        	       0	(  2  1 11)	  0  1
    124.5355	        	        	        	        	    -454	(  2  1 11)	  0  1
    125.0229	        	        	        	        	       0	(  3  0  9)	  0  1
    125.0229	        	        	        	        	    -454	(  3  0  9)	  0  1
    125.5880	        	        	        	        	       0	(  3  1  0)	  0  1
    125.5880	        	        	        	        	    -454	(  3  1  0)	  0  1
    126.0065	        	        	        	        	       0	(  3  1  1)	  0  1
    126.0065	        	        	        	        	    -454	(  3  1  1)	  0  1
    127.2758	        	        	        	        	       0	(  3  1  2)	  0  1
    127.2758	        	        	        	        	    -454	(  3  1  2)	  0  1
    129.4075	        	        	        	        	       0	(  1  0 16)	  0  1
    129.4075	        	        	        	        	    -454	(  1  0 16)	  0  1
    129.4408	        	        	        	        	       0	(  3  1  3)	  0  1
    129.4408	        	        	        	        	    -454	(  3  1  3)	  0  1
    130.1892	        	        	        	        	       0	(  2  0 14)	  0  1
    130.1892	        	        	        	        	    -454	(  2  0 14)	  0  1
    132.3201	        	        	        	        	       0	(  2  2  6)	  0  1
    132.3201	        	        	        	        	    -454	(  2  2  6)	  0  1
    132.5915	        	        	        	        	       0	(  3  1  4)	  0  1
    132.5915	        	        	        	        	    -454	(  3  1  4)	  0  1
    133.3533	        	        	        	        	       0	(  3  0 10)	  0  1
    133.3533	        	        	        	        	    -454	(  3  0 10)	  0  1
    134.6856	        	        	        	        	       0	(  2  1 12)	  0  1
    134.6856	        	        	        	        	    -454	(  2  1 12)	  0  1
    136.8963	        	        	        	        	       0	(  3  1  5)	  0  1
    136.8963	        	        	        	        	    -454	(  3  1  5)	  0  1
    142.6884	        	        	        	        	       0	(  3  1  6)	  0  1
    142.6884	        	        	        	        	    -454	(  3  1  6)	  0  1
    144.1957	        	        	        	        	       0	(  3  0 11)	  0  1
    144.1957	        	        	        	        	    -454	(  3  0 11)	  0  1
    144.8115	        	        	        	        	       0	(  2  0 15)	  0  1
    144.8115	        	        	        	        	    -454	(  2  0 15)	  0  1
    146.1500	        	        	        	        	       0	(  1  0 17)	  0  1
    146.1500	        	        	        	        	    -454	(  1  0 17)	  0  1
    147.0681	        	        	        	        	       0	(  2  2  8)	  0  1
    147.0681	        	        	        	        	    -454	(  2  2  8)	  0  1
    148.3746	        	        	        	        	       0	(  2  1 13)	  0  1
    148.3746	        	        	        	        	    -454	(  2  1 13)	  0  1
    150.7501	        	        	        	        	       0	(  3  1  7)	  0  1
    150.7501	        	        	        	        	    -454	(  3  1  7)	  0  1
    151.5279	        	        	        	        	       0	(  1  1 16)	  0  1
    151.5279	        	        	        	        	    -454	(  1  1 16)	  0  1
    156.3574	        	        	        	        	       0	(  0  0 18)	  0  1
    156.3574	        	        	        	        	    -454	(  0  0 18)	  0  1
    161.3743	        	        	        	        	       0	(  3  0 12)	  0  1
    161.3743	        	        	        	        	    -454	(  3  0 12)	  0  1
    161.5110	        	        	        	        	       0	(  4  0  0)	  0  1
    161.5110	        	        	        	        	    -454	(  4  0  0)	  0  1
    162.6186	        	        	        	        	       0	(  4  0  1)	  0  1
    162.6186	        	        	        	        	    -454	(  4  0  1)	  0  1
    164.0850	        	        	        	        	       0	(  3  1  8)	  0  1
    164.0850	        	        	        	        	    -454	(  3  1  8)	  0  1
    166.4621	        	        	        	        	       0	(  4  0  2)	  0  1
    166.4621	        	        	        	        	    -454	(  4  0  2)	  0  1
