MSG Master    CELL:    5.91903   5.91903  23.26888   90.0000   90.0000  120.0000   SPGR: P 63/m m c             TEMP:   1074.85
  1   1280     2.52000     0.00000    -0.13058     0.00000     0.00000    0
    99     0     2
       0.00000      10.00000
     125.00000     130.00000
 2Theta	Yobs	Ycal	Yobs-Ycal	Backg	Posr	(hkl)	K
      0.7700	    0.00	  532.01	-1770.50	  413.20
      0.8700	    0.00	  532.96	-1770.50	  414.16
      0.9700	   44.00	  533.91	-1770.50	  415.10
      1.0700	   40.00	  534.84	-1770.50	  416.03
      1.1700	   42.00	  535.76	-1770.50	  416.95
      1.2700	   41.00	  536.67	-1770.50	  417.86
      1.3700	   52.00	  537.56	-1770.50	  418.75
      1.4700	  102.00	  538.44	-1770.50	  419.63
      1.5700	  287.00	  539.31	-1770.50	  420.50
      1.6700	  470.00	  540.17	-1770.50	  421.36
      1.7700	  601.00	  541.01	-1770.50	  422.20
      1.8700	  691.00	  541.84	-1770.50	  423.03
      1.9700	  707.00	  542.66	-1770.50	  423.85
      2.0700	  804.00	  543.47	-1770.50	  424.66
      2.1700	  791.00	  544.26	-1770.50	  425.45
      2.2700	  771.00	  545.05	-1770.50	  426.24
      2.3700	  734.00	  545.82	-1770.50	  427.01
      2.4700	  692.00	  546.58	-1770.50	  427.77
      2.5700	  701.00	  547.32	-1770.50	  428.51
      2.6700	  691.00	  548.06	-1770.50	  429.25
      2.7700	  687.00	  548.78	-1770.50	  429.97
      2.8700	  626.00	  549.50	-1770.50	  430.69
      2.9700	  580.00	  550.20	-1770.50	  431.39
      3.0700	  618.00	  550.89	-1770.50	  432.08
      3.1700	  584.00	  551.57	-1770.50	  432.76
      3.2700	  529.00	  552.23	-1770.50	  433.42
      3.3700	  656.00	  552.89	-1770.50	  434.08
      3.4700	  692.00	  553.53	-1770.50	  434.73
      3.5700	  847.00	  554.17	-1770.50	  435.36
      3.6700	  857.00	  554.79	-1770.50	  435.98
      3.7700	  884.00	  555.41	-1770.50	  436.60
      3.8700	  962.00	  556.01	-1770.50	  437.20
      3.9700	  946.00	  556.60	-1770.50	  437.79
      4.0700	 1041.00	  557.18	-1770.50	  438.37
      4.1700	 1123.00	  557.75	-1770.50	  438.94
      4.2700	 1169.00	  558.31	-1770.50	  439.50
      4.3700	 1093.00	  558.86	-1770.50	  440.05
      4.4700	 1054.00	  559.40	-1770.50	  440.59
      4.5700	 1055.00	  559.93	-1770.50	  441.12
      4.6700	 1030.00	  560.45	-1770.50	  441.64
      4.7700	  998.00	  560.96	-1770.50	  442.15
      4.8700	  950.00	  561.46	-1770.50	  442.65
      4.9700	  943.00	  561.95	-1770.50	  443.14
      5.0700	  935.00	  562.43	-1770.50	  443.62
      5.1700	  875.00	  562.90	-1770.50	  444.09
      5.2700	  903.00	  563.36	-1770.50	  444.55
      5.3700	  917.00	  563.81	-1770.50	  445.00
      5.4700	  859.00	  564.25	-1770.50	  445.44
      5.5700	  855.00	  564.68	-1770.50	  445.87
      5.6700	  842.00	  565.10	-1770.50	  446.29
      5.7700	  839.00	  565.51	-1770.50	  446.71
      5.8700	  832.00	  565.92	-1770.50	  447.11
      5.9700	  869.00	  566.31	-1770.50	  447.50
      6.0700	  844.00	  566.70	-1770.50	  447.89
      6.1700	  789.00	  567.08	-1770.50	  448.27
      6.2700	  779.00	  567.44	-1770.50	  448.63
      6.3700	  818.00	  567.80	-1770.50	  448.99
      6.4700	  768.00	  568.15	-1770.50	  449.34
      6.5700	  712.00	  568.49	-1770.50	  449.68
      6.6700	  735.00	  568.83	-1770.50	  450.02
      6.7700	  687.00	  569.15	-1770.50	  450.34
      6.8700	  713.00	  569.46	-1770.50	  450.66
      6.9700	  703.00	  569.77	-1770.50	  450.96
      7.0700	  703.00	  570.07	-1770.50	  451.26
      7.1700	  669.00	  570.36	-1770.50	  451.55
      7.2700	  677.00	  570.64	-1770.50	  451.83
      7.3700	  671.00	  570.92	-1770.50	  452.11
      7.4700	  686.00	  571.18	-1770.50	  452.37
      7.5700	  617.00	  571.44	-1770.50	  452.63
      7.6700	  649.00	  571.69	-1770.50	  452.88
      7.7700	  661.00	  571.93	-1770.50	  453.12
      7.8700	  663.00	  572.16	-1770.50	  453.36
      7.9700	  622.00	  572.39	-1770.50	  453.58
      8.0700	  642.00	  572.61	-1770.50	  453.80
      8.1700	  595.00	  572.82	-1770.50	  454.01
      8.2700	  633.00	  573.02	-1770.50	  454.21
      8.3700	  659.00	  573.22	-1770.50	  454.41
      8.4700	  668.00	  573.41	-1770.50	  454.60
      8.5700	  632.00	  573.59	-1770.50	  454.78
      8.6700	  619.00	  573.76	-1770.50	  454.95
      8.7700	  621.00	  573.93	-1770.50	  455.12
      8.8700	  619.00	  574.09	-1770.50	  455.28
      8.9700	  615.00	  574.24	-1770.50	  455.43
      9.0700	  609.00	  574.38	-1770.50	  455.57
      9.1700	  623.00	  574.52	-1770.50	  455.71
      9.2700	  604.00	  574.65	-1770.50	  455.84
      9.3700	  651.00	  574.77	-1770.50	  455.97
      9.4700	  597.00	  574.89	-1770.50	  456.08
      9.5700	  628.00	  575.00	-1770.50	  456.19
      9.6700	  580.00	  575.10	-1770.50	  456.30
      9.7700	  562.00	  575.20	-1770.50	  456.39
      9.8700	  612.00	  575.29	-1770.50	  456.48
      9.9700	  620.00	  575.37	-1770.50	  456.57
     10.0700	  590.00	  576.21	-1756.71	  456.64
     10.1700	  603.00	  576.36	-1743.86	  456.71
     10.2700	  586.00	  576.52	-1761.02	  456.78
     10.3700	  623.00	  576.71	-1724.21	  456.84
     10.4700	  607.00	  576.94	-1740.44	  456.89
     10.5700	  566.00	  577.28	-1781.78	  456.93
     10.6700	  597.00	  577.81	-1751.31	  456.97
     10.7700	  613.00	  578.63	-1736.13	  457.01
     10.8700	  584.00	  579.80	-1766.30	  457.04
     10.9700	  629.00	  581.32	-1722.82	  457.06
     11.0700	  620.00	  583.16	-1733.66	  457.07
     11.1700	  570.00	  585.31	-1785.81	  457.08
     11.2700	  582.00	  587.81	-1776.31	  457.09
     11.3700	  554.00	  590.72	-1807.22	  457.09
     11.4700	  591.00	  594.18	-1773.68	  457.08
     11.5700	  599.00	  598.36	-1769.86	  457.07
     11.6700	  633.00	  603.60	-1741.10	  457.05
     11.7700	  611.00	  610.46	-1769.96	  457.02
     11.8700	  658.00	  619.79	-1732.29	  456.99
     11.9700	  628.00	  632.17	-1774.67	  456.96
     12.0700	  695.00	  646.05	-1721.55	  456.92
     12.1700	  657.00	  655.67	-1769.17	  456.87
     12.2700	  679.00	  652.13	-1743.63	  456.82
     12.3700	  670.00	  633.11	-1733.61	  456.77
     12.4700	  575.00	  610.31	-1805.81	  456.71
     12.5700	  588.00	  593.80	-1776.30	  456.64
     12.6700	  568.00	  584.90	-1787.40	  456.57
     12.7700	  588.00	  580.89	-1763.39	  456.49
     12.8700	  536.00	  579.08	-1813.58	  456.41
     12.9700	  532.00	  578.10	-1816.60	  456.33
     13.0700	  626.00	  577.43	-1721.93	  456.24
     13.1700	  560.00	  576.93	-1787.43	  456.14
     13.2700	  540.00	  576.53	-1807.03	  456.04
     13.3700	  535.00	  576.19	-1811.69	  455.94
     13.4700	  555.00	  575.90	-1791.40	  455.83
     13.5700	  538.00	  575.64	-1808.14	  455.72
     13.6700	  618.00	  575.40	-1727.90	  455.60
     13.7700	  528.00	  575.18	-1817.68	  455.48
     13.8700	  557.00	  574.97	-1788.47	  455.35
     13.9700	  610.00	  574.77	-1735.27	  455.22
     14.0700	  548.00	  574.58	-1797.08	  455.08
     14.1700	  605.00	  574.39	-1739.89	  454.94
     14.2700	  514.00	  574.20	-1830.70	  454.80
     14.3700	  551.00	  574.01	-1793.51	  454.65
     14.4700	  577.00	  573.83	-1767.33	  454.50
     14.5700	  586.00	  573.65	-1758.15	  454.35
     14.6700	  555.00	  573.46	-1788.96	  454.19
     14.7700	  540.00	  573.27	-1803.77	  454.02
     14.8700	  553.00	  573.09	-1790.59	  453.85
     14.9700	  532.00	  572.90	-1811.40	  453.68
     15.0700	  551.00	  572.70	-1792.20	  453.51
     15.1700	  588.00	  572.51	-1755.01	  453.33
     15.2700	  604.00	  572.31	-1738.81	  453.15
     15.3700	  535.00	  572.12	-1807.62	  452.96
     15.4700	  528.00	  571.91	-1814.41	  452.77
     15.5700	  566.00	  571.71	-1776.21	  452.58
     15.6700	  572.00	  571.50	-1770.00	  452.38
     15.7700	  560.00	  571.30	-1781.80	  452.18
     15.8700	  552.00	  571.08	-1789.58	  451.97
     15.9700	  568.00	  570.87	-1773.37	  451.77
     16.0700	  548.00	  570.65	-1793.15	  451.56
     16.1700	  540.00	  570.46	-1800.96	  451.34
     16.2700	  577.00	  570.24	-1763.74	  451.13
     16.3700	  594.00	  570.01	-1746.51	  450.90
     16.4700	  567.00	  569.78	-1773.28	  450.68
     16.5700	  549.00	  569.55	-1791.05	  450.45
     16.6700	  595.00	  569.32	-1744.82	  450.23
     16.7700	  565.00	  569.08	-1774.58	  449.99
     16.8700	  599.00	  568.85	-1740.35	  449.76
     16.9700	  590.00	  568.61	-1749.11	  449.52
     17.0700	  577.00	  568.36	-1761.86	  449.28
     17.1700	  567.00	  568.11	-1771.61	  449.03
     17.2700	  535.00	  567.87	-1803.37	  448.79
     17.3700	  533.00	  567.61	-1805.11	  448.54
     17.4700	  603.00	  567.36	-1734.86	  448.28
     17.5700	  577.00	  567.10	-1760.60	  448.03
     17.6700	  521.00	  566.84	-1816.34	  447.77
     17.7700	  584.00	  566.58	-1753.08	  447.51
     17.8700	  567.00	  566.32	-1769.82	  447.25
     17.9700	  591.00	  566.05	-1745.55	  446.98
     18.0700	  573.00	  565.89	-1763.39	  446.71
     18.1700	  576.00	  565.62	-1760.12	  446.44
     18.2700	  586.00	  565.35	-1749.85	  446.17
     18.3700	  540.00	  565.07	-1795.57	  445.90
     18.4700	  552.00	  564.80	-1783.30	  445.62
     18.5700	  570.00	  564.52	-1765.02	  445.34
     18.6700	  563.00	  564.24	-1771.74	  445.06
     18.7700	  577.00	  563.96	-1757.46	  444.77
     18.8700	  593.00	  563.68	-1741.18	  444.49
     18.9700	  561.00	  563.47	-1772.97	  444.20
     19.0700	  593.00	  563.19	-1740.69	  443.91
     19.1700	  536.00	  562.90	-1797.40	  443.61
     19.2700	  556.00	  562.61	-1777.11	  443.32
     19.3700	  556.00	  562.32	-1776.82	  443.02
     19.4700	  520.00	  562.03	-1812.53	  442.73
     19.5700	  561.00	  561.74	-1771.24	  442.43
     19.6700	  539.00	  561.45	-1792.95	  442.12
     19.7700	  526.00	  561.15	-1805.65	  441.82
     19.8700	  503.00	  560.85	-1828.35	  441.51
     19.9700	  552.00	  560.55	-1779.05	  441.21
     20.0700	  564.00	  560.25	-1766.75	  440.90
     20.1700	  566.00	  559.95	-1764.45	  440.59
     20.2700	  583.00	  559.65	-1747.15	  440.27
     20.3700	  582.00	  559.35	-1747.85	  439.96
     20.4700	  519.00	  559.04	-1810.54	  439.64
     20.5700	  563.00	  558.71	-1766.21	  439.33
     20.6700	  555.00	  558.40	-1773.90	  439.01
     20.7700	  523.00	  558.10	-1805.60	  438.69
     20.8700	  554.00	  557.79	-1774.29	  438.37
     20.9700	  587.00	  557.52	-1741.02	  438.05
     21.0700	  574.00	  557.21	-1753.71	  437.72
     21.1700	  544.00	  556.90	-1783.40	  437.40
     21.2700	  558.00	  556.59	-1769.09	  437.07
     21.3700	  554.00	  556.29	-1772.79	  436.74
     21.4700	  578.00	  555.98	-1748.48	  436.41
     21.5700	  559.00	  555.67	-1767.17	  436.08
     21.6700	  527.00	  555.37	-1798.87	  435.75
     21.7700	  574.00	  555.06	-1751.56	  435.42
     21.8700	  562.00	  554.76	-1763.26	  435.08
     21.9700	  532.00	  554.46	-1792.96	  434.75
     22.0700	  526.00	  554.15	-1798.65	  434.41
     22.1700	  572.00	  553.85	-1752.35	  434.08
     22.2700	  534.00	  553.56	-1790.06	  433.74
     22.3700	  545.00	  553.26	-1778.76	  433.40
     22.4700	  554.00	  552.97	-1769.47	  433.06
     22.5700	  530.00	  552.69	-1793.19	  432.72
     22.6700	  567.00	  552.41	-1755.91	  432.38
     22.7700	  545.00	  552.13	-1777.63	  432.04
     22.8700	  576.00	  551.87	-1746.37	  431.70
     22.9700	  565.00	  551.61	-1757.11	  431.35
     23.0700	  577.00	  551.37	-1744.87	  431.01
     23.1700	  603.00	  551.14	-1718.64	  430.66
     23.2700	  575.00	  550.93	-1746.43	  430.32
     23.3700	  538.00	  550.75	-1783.25	  429.97
     23.4700	  578.00	  550.60	-1743.10	  429.63
     23.5700	  548.00	  550.51	-1773.01	  429.28
     23.6700	  553.00	  550.48	-1767.98	  428.93
     23.7700	  584.00	  550.69	-1737.19	  428.58
     23.8700	  563.00	  550.99	-1758.49	  428.23
     23.9700	  570.00	  551.74	-1752.24	  427.88
     24.0700	  571.00	  553.37	-1752.87	  427.54
     24.1700	  556.00	  556.55	-1771.05	  427.19
     24.2700	  550.00	  562.12	-1782.62	  426.84
     24.3700	  559.00	  571.07	-1782.57	  426.48
     24.4700	  605.00	  584.42	-1749.92	  426.13
     24.5700	  624.00	  602.41	-1748.91	  425.78
     24.6700	  602.00	  622.16	-1790.66	  425.43
     24.7700	  618.00	  635.77	-1788.27	  425.08
     24.8700	  614.00	  632.59	-1789.09	  424.73
     24.9700	  599.00	  611.38	-1782.88	  424.38
     25.0700	  597.00	  585.71	-1759.21	  424.02
     25.1700	  606.00	  566.48	-1730.98	  423.67
     25.2700	  594.00	  555.60	-1732.10	  423.32
     25.3700	  576.00	  550.45	-1744.95	  422.97
     25.4700	  521.00	  548.09	-1797.59	  422.61
     25.5700	  543.00	  546.82	-1774.32	  422.26
     25.6700	  562.00	  545.99	-1754.49	  421.91
     25.7700	  563.00	  545.37	-1752.87	  421.56
     25.8700	  578.00	  544.90	-1737.40	  421.21
     25.9700	  536.00	  544.52	-1779.02	  420.85
     26.0700	  551.00	  544.24	-1763.74	  420.50
     26.1700	  592.00	  544.04	-1722.54	  420.15
     26.2700	  572.00	  543.91	-1742.41	  419.80
     26.3700	  540.00	  543.86	-1774.36	  419.45
     26.4700	  544.00	  543.89	-1770.39	  419.09
     26.5700	  549.00	  544.01	-1765.51	  418.74
     26.6700	  584.00	  544.25	-1730.75	  418.39
     26.7700	  564.00	  544.62	-1751.12	  418.04
     26.8700	  564.00	  545.16	-1751.66	  417.69
     26.9700	  550.00	  545.93	-1766.43	  417.34
     27.0700	  518.00	  546.99	-1799.49	  416.99
     27.1700	  541.00	  548.48	-1777.98	  416.64
     27.2700	  560.00	  550.66	-1761.16	  416.29
     27.3700	  550.00	  554.04	-1774.54	  415.95
     27.4700	  590.00	  559.61	-1740.10	  415.60
     27.5700	  556.00	  569.16	-1783.66	  415.25
     27.6700	  534.00	  585.55	-1822.05	  414.90
     27.7700	  545.00	  612.42	-1837.92	  414.56
     27.8700	  631.00	  652.89	-1792.39	  414.21
     27.9700	  697.00	  707.03	-1780.53	  413.86
     28.0700	  786.00	  768.37	-1752.87	  413.52
     28.1700	  915.00	  821.05	-1676.55	  413.17
     28.2700	  907.00	  841.55	-1705.05	  412.83
     28.3700	  894.00	  817.04	-1693.54	  412.49
     28.4700	  775.00	  770.74	-1766.24	  412.15
     28.5700	  726.00	  738.44	-1782.94	  411.80
     28.6700	  684.00	  735.75	-1822.25	  411.46
     28.7700	  743.00	  757.47	-1784.97	  411.12
     28.8700	  836.00	  783.57	-1718.07	  410.78
     28.9700	  792.00	  786.58	-1765.08	  410.44
     29.0700	  772.00	  749.99	-1748.49	  410.10
     29.1700	  696.00	  689.77	-1764.27	  409.77
     29.2700	  615.00	  633.20	-1788.70	  409.43
     29.3700	  606.00	  592.82	-1757.32	  409.09
     29.4700	  561.00	  568.64	-1778.14	  408.76
     29.5700	  596.00	  555.63	-1730.13	  408.43
     29.6700	  637.00	  548.74	-1682.24	  408.09
     29.7700	  566.00	  544.78	-1749.28	  407.76
     29.8700	  621.00	  542.27	-1691.77	  407.43
     29.9700	  578.00	  540.61	-1733.11	  407.10
     30.0700	  637.00	  539.68	-1673.18	  406.77
     30.1700	  568.00	  539.62	-1742.12	  406.44
     30.2700	  540.00	  540.87	-1771.37	  406.11
     30.3700	  525.00	  544.34	-1789.84	  405.79
     30.4700	  565.00	  551.42	-1756.92	  405.46
     30.5700	  597.00	  563.54	-1737.04	  405.14
     30.6700	  592.00	  581.07	-1759.57	  404.81
     30.7700	  570.00	  601.76	-1802.26	  404.49
     30.8700	  595.00	  619.59	-1795.09	  404.17
     30.9700	  616.00	  625.46	-1779.96	  403.85
     31.0700	  603.00	  613.47	-1780.97	  403.53
     31.1700	  589.00	  589.89	-1771.39	  403.21
     31.2700	  576.00	  566.52	-1761.02	  402.89
     31.3700	  532.00	  549.39	-1787.89	  402.58
     31.4700	  549.00	  539.02	-1760.52	  402.26
     31.5700	  558.00	  533.49	-1745.99	  401.95
     31.6700	  515.00	  530.62	-1786.12	  401.64
     31.7700	  562.00	  529.01	-1737.51	  401.33
     31.8700	  543.00	  527.97	-1755.47	  401.02
     31.9700	  513.00	  527.23	-1784.73	  400.71
     32.0700	  498.00	  526.70	-1799.20	  400.40
     32.1700	  546.00	  526.33	-1750.83	  400.09
     32.2700	  559.00	  526.11	-1737.61	  399.79
     32.3700	  568.00	  526.02	-1728.52	  399.49
     32.4700	  584.00	  526.08	-1712.58	  399.18
     32.5700	  528.00	  526.30	-1768.80	  398.88
     32.6700	  592.00	  526.70	-1705.20	  398.58
     32.7700	  521.00	  527.34	-1776.84	  398.29
     32.8700	  526.00	  528.29	-1772.79	  397.99
     32.9700	  561.00	  529.64	-1739.14	  397.69
     33.0700	  563.00	  531.62	-1739.12	  397.40
     33.1700	  530.00	  534.69	-1775.19	  397.11
     33.2700	  548.00	  539.86	-1762.36	  396.82
     33.3700	  580.00	  549.42	-1739.92	  396.53
     33.4700	  585.00	  567.65	-1753.15	  396.24
     33.5700	  565.00	  601.49	-1806.99	  395.95
     33.6700	  661.00	  658.78	-1768.28	  395.66
     33.7700	  748.00	  742.99	-1765.49	  395.38
     33.8700	  840.00	  844.77	-1775.27	  395.10
     33.9700	 1037.00	  936.56	-1670.06	  394.82
     34.0700	 1066.00	  976.27	-1680.77	  394.54
     34.1700	  986.00	  933.48	-1717.98	  394.26
     34.2700	  884.00	  830.55	-1717.05	  393.98
     34.3700	  746.00	  720.50	-1745.00	  393.71
     34.4700	  659.00	  635.65	-1747.15	  393.44
     34.5700	  560.00	  582.48	-1792.98	  393.16
     34.6700	  554.00	  553.79	-1770.29	  392.89
     34.7700	  554.00	  539.39	-1755.89	  392.63
     34.8700	  527.00	  531.88	-1775.38	  392.36
     34.9700	  498.00	  527.37	-1799.87	  392.09
     35.0700	  551.00	  524.24	-1743.74	  391.83
     35.1700	  513.00	  521.87	-1779.37	  391.57
     35.2700	  498.00	  520.01	-1792.51	  391.31
     35.3700	  485.00	  518.47	-1803.97	  391.05
     35.4700	  509.00	  517.19	-1778.69	  390.79
     35.5700	  506.00	  516.10	-1780.60	  390.53
     35.6700	  545.00	  515.16	-1740.66	  390.28
     35.7700	  499.00	  514.33	-1785.83	  390.03
     35.8700	  516.00	  513.61	-1768.11	  389.78
     35.9700	  514.00	  512.96	-1769.46	  389.53
     36.0700	  541.00	  512.85	-1742.35	  389.28
     36.1700	  543.00	  512.32	-1739.82	  389.04
     36.2700	  521.00	  511.85	-1761.35	  388.79
     36.3700	  542.00	  511.41	-1739.91	  388.55
     36.4700	  512.00	  511.01	-1769.51	  388.31
     36.5700	  525.00	  510.65	-1756.15	  388.07
     36.6700	  470.00	  510.33	-1810.83	  387.83
     36.7700	  516.00	  510.06	-1764.56	  387.60
     36.8700	  507.00	  509.85	-1773.35	  387.37
     36.9700	  494.00	  509.76	-1786.26	  387.13
     37.0700	  502.00	  509.91	-1778.41	  386.91
     37.1700	  520.00	  510.53	-1761.03	  386.68
     37.2700	  559.00	  511.96	-1723.46	  386.45
     37.3700	  510.00	  514.55	-1775.05	  386.23
     37.4700	  539.00	  518.31	-1749.81	  386.00
     37.5700	  535.00	  522.61	-1758.11	  385.78
     37.6700	  540.00	  526.05	-1756.55	  385.56
     37.7700	  517.00	  527.04	-1780.54	  385.35
     37.8700	  502.00	  525.13	-1793.63	  385.13
     37.9700	  541.00	  521.62	-1751.12	  384.92
     38.0700	  480.00	  517.77	-1808.27	  384.71
     38.1700	  529.00	  514.13	-1755.63	  384.50
     38.2700	  532.00	  511.04	-1749.54	  384.29
     38.3700	  503.00	  508.71	-1776.21	  384.08
     38.4700	  533.00	  507.10	-1744.60	  383.88
     38.5700	  508.00	  506.05	-1768.55	  383.68
     38.6700	  510.00	  505.27	-1765.77	  383.48
     38.7700	  490.00	  504.82	-1785.32	  383.28
     38.8700	  498.00	  504.47	-1776.97	  383.08
     38.9700	  519.00	  504.19	-1755.69	  382.88
     39.0700	  493.00	  503.93	-1781.43	  382.69
     39.1700	  461.00	  503.62	-1813.12	  382.50
     39.2700	  488.00	  503.41	-1785.91	  382.31
     39.3700	  467.00	  503.21	-1806.71	  382.12
     39.4700	  543.00	  503.02	-1730.52	  381.94
     39.5700	  515.00	  502.96	-1758.46	  381.76
     39.6700	  456.00	  502.80	-1817.30	  381.57
     39.7700	  457.00	  502.64	-1816.14	  381.39
     39.8700	  456.00	  502.49	-1816.99	  381.22
     39.9700	  465.00	  502.35	-1807.85	  381.04
     40.0700	  516.00	  502.22	-1756.72	  380.87
     40.1700	  507.00	  502.11	-1765.61	  380.69
     40.2700	  504.00	  502.00	-1768.50	  380.52
     40.3700	  488.00	  501.90	-1784.40	  380.36
     40.4700	  495.00	  501.82	-1777.32	  380.19
     40.5700	  463.00	  501.76	-1809.26	  380.03
     40.6700	  519.00	  501.71	-1753.21	  379.86
     40.7700	  531.00	  501.68	-1741.18	  379.70
     40.8700	  531.00	  501.67	-1741.17	  379.54
     40.9700	  461.00	  501.69	-1811.19	  379.39
     41.0700	  501.00	  501.74	-1771.24	  379.23
     41.1700	  466.00	  501.81	-1806.31	  379.08
     41.2700	  496.00	  501.95	-1776.45	  378.93
     41.3700	  472.00	  502.16	-1800.66	  378.78
     41.4700	  497.00	  502.45	-1775.95	  378.63
     41.5700	  518.00	  503.29	-1755.79	  378.49
     41.6700	  507.00	  503.88	-1767.38	  378.35
     41.7700	  498.00	  504.78	-1777.28	  378.20
     41.8700	  465.00	  506.30	-1811.80	  378.07
     41.9700	  502.00	  509.13	-1777.63	  377.93
     42.0700	  497.00	  514.64	-1788.14	  377.79
     42.1700	  474.00	  524.99	-1821.49	  377.66
     42.2700	  527.00	  542.72	-1786.22	  377.53
     42.3700	  500.00	  569.37	-1839.87	  377.40
     42.4700	  558.00	  602.87	-1815.37	  377.27
     42.5700	  578.00	  636.06	-1828.56	  377.15
     42.6700	  561.00	  656.98	-1866.48	  377.02
     42.7700	  596.00	  654.79	-1829.29	  376.90
     42.8700	  550.00	  629.74	-1850.24	  376.78
     42.9700	  562.00	  594.43	-1802.93	  376.67
     43.0700	  526.00	  561.24	-1805.74	  376.55
     43.1700	  510.00	  536.32	-1796.82	  376.44
     43.2700	  464.00	  520.49	-1826.99	  376.33
     43.3700	  496.00	  511.65	-1786.15	  376.22
     43.4700	  493.00	  507.09	-1784.59	  376.11
     43.5700	  553.00	  504.72	-1722.22	  376.00
     43.6700	  532.00	  503.37	-1741.87	  375.90
     43.7700	  485.00	  502.67	-1788.17	  375.80
     43.8700	  518.00	  502.03	-1754.53	  375.70
     43.9700	  470.00	  501.54	-1802.04	  375.60
     44.0700	  542.00	  501.20	-1729.70	  375.50
     44.1700	  501.00	  500.91	-1770.41	  375.41
     44.2700	  524.00	  500.67	-1747.17	  375.32
     44.3700	  510.00	  500.49	-1760.99	  375.23
     44.4700	  513.00	  500.35	-1757.85	  375.14
     44.5700	  514.00	  500.13	-1756.63	  375.05
     44.6700	  485.00	  500.06	-1785.56	  374.97
     44.7700	  499.00	  500.02	-1771.52	  374.89
     44.8700	  513.00	  500.01	-1757.51	  374.81
     44.9700	  477.00	  500.02	-1793.52	  374.73
     45.0700	  549.00	  500.05	-1721.55	  374.65
     45.1700	  497.00	  500.11	-1773.61	  374.58
     45.2700	  519.00	  500.37	-1751.87	  374.50
     45.3700	  501.00	  500.47	-1769.97	  374.43
     45.4700	  546.00	  500.59	-1725.09	  374.36
     45.5700	  543.00	  500.74	-1728.24	  374.30
     45.6700	  525.00	  500.91	-1746.41	  374.23
     45.7700	  490.00	  501.11	-1781.61	  374.17
     45.8700	  512.00	  501.34	-1759.84	  374.11
     45.9700	  516.00	  501.60	-1756.09	  374.05
     46.0700	  499.00	  501.89	-1773.39	  373.99
     46.1700	  499.00	  502.22	-1773.72	  373.94
     46.2700	  490.00	  502.59	-1783.09	  373.88
     46.3700	  482.00	  503.01	-1791.51	  373.83
     46.4700	  469.00	  503.49	-1804.99	  373.78
     46.5700	  527.00	  504.04	-1747.54	  373.73
     46.6700	  484.00	  504.67	-1791.17	  373.69
     46.7700	  494.00	  505.41	-1781.91	  373.64
     46.8700	  509.00	  506.31	-1767.81	  373.60
     46.9700	  483.00	  507.49	-1794.99	  373.56
     47.0700	  508.00	  509.20	-1771.70	  373.52
     47.1700	  497.00	  511.97	-1785.47	  373.49
     47.2700	  487.00	  516.66	-1800.16	  373.45
     47.3700	  554.00	  524.33	-1740.83	  373.42
     47.4700	  558.00	  536.12	-1748.62	  373.39
     47.5700	  556.00	  552.23	-1766.73	  373.36
     47.6700	  556.00	  571.09	-1785.59	  373.33
     47.7700	  611.00	  588.79	-1748.29	  373.31
     47.8700	  576.00	  599.64	-1794.14	  373.28
     47.9700	  628.00	  599.17	-1741.67	  373.26
     48.0700	  552.00	  588.25	-1806.75	  373.24
     48.1700	  567.00	  572.55	-1776.05	  373.22
     48.2700	  561.00	  557.57	-1767.07	  373.21
     48.3700	  553.00	  546.53	-1764.03	  373.19
     48.4700	  540.00	  540.33	-1770.83	  373.18
     48.5700	  562.00	  538.43	-1746.93	  373.17
     48.6700	  503.00	  539.77	-1807.27	  373.16
     48.7700	  494.00	  543.44	-1819.94	  373.15
     48.8700	  555.00	  549.00	-1764.50	  373.14
     48.9700	  528.00	  556.53	-1799.03	  373.14
     49.0700	  588.00	  566.71	-1749.21	  373.14
     49.1700	  575.00	  581.26	-1776.76	  373.14
     49.2700	  599.00	  603.75	-1775.25	  373.14
     49.3700	  660.00	  641.02	-1751.52	  373.14
     49.4700	  662.00	  704.68	-1813.18	  373.15
     49.5700	  803.00	  811.66	-1779.16	  373.15
     49.6700	  919.00	  980.26	-1831.76	  373.16
     49.7700	 1154.00	 1224.75	-1841.25	  373.17
     49.8700	 1422.00	 1542.81	-1891.31	  373.18
     49.9700	 1877.00	 1903.74	-1797.24	  373.20
     50.0700	 2215.00	 2239.02	-1794.52	  373.21
     50.1700	 2556.00	 2448.36	-1662.86	  373.23
     50.2700	 2523.00	 2444.63	-1692.13	  373.25
     50.3700	 2286.00	 2227.32	-1711.82	  373.27
     50.4700	 1911.00	 1886.93	-1746.43	  373.29
     50.5700	 1471.00	 1527.44	-1826.94	  373.31
     50.6700	  986.00	 1216.52	-2001.02	  373.34
     50.7700	  819.00	  983.01	-1934.51	  373.37
     50.8700	  676.00	  827.28	-1921.78	  373.39
     50.9700	  610.00	  733.22	-1893.72	  373.43
     51.0700	  627.00	  679.42	-1822.92	  373.46
     51.1700	  628.00	  646.86	-1789.36	  373.49
     51.2700	  603.00	  623.05	-1790.55	  373.53
     51.3700	  531.00	  602.73	-1842.23	  373.56
     51.4700	  613.00	  585.06	-1742.56	  373.60
     51.5700	  551.00	  570.50	-1790.00	  373.64
     51.6700	  562.00	  559.36	-1767.86	  373.68
     51.7700	  552.00	  551.41	-1769.91	  373.73
     51.8700	  535.00	  546.02	-1781.52	  373.77
     51.9700	  567.00	  542.49	-1745.99	  373.82
     52.0700	  562.00	  540.26	-1748.76	  373.86
     52.1700	  594.00	  539.01	-1715.51	  373.91
     52.2700	  552.00	  538.88	-1757.38	  373.96
     52.3700	  543.00	  539.53	-1767.03	  374.02
     52.4700	  530.00	  541.60	-1782.10	  374.07
     52.5700	  575.00	  546.11	-1741.61	  374.13
     52.6700	  569.00	  555.17	-1756.67	  374.18
     52.7700	  643.00	  572.72	-1700.22	  374.24
     52.8700	  631.00	  604.85	-1744.35	  374.30
     52.9700	  751.00	  659.13	-1678.63	  374.36
     53.0700	  749.00	  742.03	-1763.53	  374.43
     53.1700	  879.00	  854.44	-1745.94	  374.49
     53.2700	 1023.00	  986.85	-1734.35	  374.56
     53.3700	 1183.00	 1116.05	-1703.55	  374.62
     53.4700	 1151.00	 1206.99	-1826.49	  374.69
     53.5700	 1184.00	 1225.54	-1812.04	  374.76
     53.6700	 1099.00	 1163.07	-1834.57	  374.83
     53.7700	 1020.00	 1045.28	-1795.78	  374.91
     53.8700	  839.00	  910.24	-1841.74	  374.98
     53.9700	  732.00	  787.26	-1825.76	  375.06
     54.0700	  676.00	  691.54	-1786.04	  375.14
     54.1700	  632.00	  626.04	-1764.54	  375.21
     54.2700	  617.00	  585.94	-1739.44	  375.29
     54.3700	  537.00	  563.55	-1797.05	  375.38
     54.4700	  587.00	  551.96	-1735.46	  375.46
     54.5700	  554.00	  546.24	-1762.74	  375.54
     54.6700	  603.00	  543.58	-1711.08	  375.63
     54.7700	  534.00	  542.58	-1779.08	  375.71
     54.8700	  604.00	  542.63	-1709.13	  375.80
     54.9700	  514.00	  543.47	-1799.97	  375.89
     55.0700	  583.00	  545.05	-1732.55	  375.98
     55.1700	  570.00	  547.35	-1747.85	  376.07
     55.2700	  587.00	  550.47	-1733.97	  376.17
     55.3700	  552.00	  554.48	-1772.98	  376.26
     55.4700	  562.00	  559.61	-1768.11	  376.36
     55.5700	  585.00	  566.26	-1751.76	  376.45
     55.6700	  606.00	  575.21	-1739.71	  376.55
     55.7700	  545.00	  588.07	-1813.57	  376.65
     55.8700	  575.00	  608.15	-1803.65	  376.75
     55.9700	  634.00	  641.60	-1778.10	  376.85
     56.0700	  658.00	  698.78	-1811.28	  376.96
     56.1700	  716.00	  794.77	-1849.27	  377.06
     56.2700	  876.00	  947.61	-1842.11	  377.17
     56.3700	 1108.00	 1173.09	-1835.59	  377.27
     56.4700	 1380.00	 1475.93	-1866.43	  377.38
     56.5700	 1759.00	 1840.02	-1851.52	  377.49
     56.6700	 2140.00	 2220.42	-1850.92	  377.60
     56.7700	 2440.00	 2541.32	-1871.82	  377.71
     56.8700	 2642.00	 2710.32	-1838.82	  377.82
     56.9700	 2531.00	 2664.66	-1904.16	  377.94
     57.0700	 2367.00	 2422.03	-1825.53	  378.05
     57.1700	 2026.00	 2066.05	-1810.55	  378.17
     57.2700	 1701.00	 1686.93	-1756.43	  378.28
     57.3700	 1361.00	 1348.00	-1757.50	  378.40
     57.4700	 1032.00	 1081.28	-1819.78	  378.52
     57.5700	  910.00	  892.92	-1753.42	  378.64
     57.6700	  743.00	  772.62	-1800.12	  378.76
     57.7700	  635.00	  703.51	-1839.01	  378.88
     57.8700	  677.00	  669.70	-1763.20	  379.01
     57.9700	  693.00	  660.10	-1737.60	  379.13
     58.0700	  705.00	  668.92	-1734.42	  379.25
     58.1700	  704.00	  694.33	-1760.83	  379.38
     58.2700	  793.00	  736.48	-1713.98	  379.51
     58.3700	  841.00	  795.59	-1725.09	  379.63
     58.4700	  968.00	  870.22	-1672.72	  379.76
     58.5700	 1144.00	  955.62	-1582.12	  379.89
     58.6700	 1288.00	 1043.29	-1525.79	  380.02
     58.7700	 1408.00	 1123.34	-1485.84	  380.15
     58.8700	 1521.00	 1189.01	-1438.51	  380.29
     58.9700	 1570.00	 1236.53	-1437.03	  380.42
     59.0700	 1626.00	 1260.97	-1405.47	  380.55
     59.1700	 1477.00	 1258.07	-1551.57	  380.69
     59.2700	 1493.00	 1232.05	-1509.55	  380.83
     59.3700	 1430.00	 1195.88	-1536.38	  380.96
     59.4700	 1288.00	 1162.76	-1645.26	  381.10
     59.5700	 1100.00	 1141.48	-1811.98	  381.24
     59.6700	 1070.00	 1139.04	-1839.54	  381.38
     59.7700	 1221.00	 1163.36	-1712.86	  381.52
     59.8700	 1213.00	 1219.51	-1777.01	  381.66
     59.9700	 1409.00	 1303.30	-1664.80	  381.80
     60.0700	 1472.00	 1398.22	-1696.72	  381.94
     60.1700	 1636.00	 1475.93	-1610.43	  382.08
     60.2700	 1562.00	 1503.51	-1712.01	  382.23
     60.3700	 1530.00	 1460.61	-1701.11	  382.37
     60.4700	 1443.00	 1354.21	-1681.71	  382.52
     60.5700	 1315.00	 1211.48	-1666.98	  382.66
     60.6700	 1042.00	 1061.60	-1790.10	  382.81
     60.7700	  931.00	  925.80	-1765.30	  382.96
     60.8700	  781.00	  815.99	-1805.49	  383.11
     60.9700	  685.00	  736.22	-1821.72	  383.25
     61.0700	  682.00	  685.21	-1773.71	  383.40
     61.1700	  626.00	  659.56	-1804.06	  383.55
     61.2700	  605.00	  656.50	-1822.00	  383.70
     61.3700	  633.00	  675.62	-1813.12	  383.85
     61.4700	  716.00	  719.01	-1773.51	  384.01
     61.5700	  773.00	  790.01	-1787.51	  384.16
     61.6700	  866.00	  890.64	-1795.14	  384.31
     61.7700	  943.00	 1018.68	-1846.18	  384.47
     61.8700	 1143.00	 1164.76	-1792.26	  384.62
     61.9700	 1234.00	 1310.69	-1847.19	  384.77
     62.0700	 1361.00	 1429.53	-1839.03	  384.93
     62.1700	 1390.00	 1490.73	-1871.23	  385.08
     62.2700	 1331.00	 1474.34	-1913.84	  385.24
     62.3700	 1279.00	 1385.31	-1876.81	  385.40
     62.4700	 1142.00	 1249.73	-1878.23	  385.55
     62.5700	 1004.00	 1098.00	-1864.50	  385.71
     62.6700	  913.00	  953.89	-1811.39	  385.87
     62.7700	  744.00	  831.78	-1858.28	  386.03
     62.8700	  641.00	  737.57	-1867.07	  386.19
     62.9700	  616.00	  670.62	-1825.12	  386.35
     63.0700	  561.00	  626.35	-1835.85	  386.51
     63.1700	  571.00	  598.87	-1798.37	  386.67
     63.2700	  561.00	  582.79	-1792.29	  386.83
     63.3700	  569.00	  574.10	-1775.60	  386.99
     63.4700	  565.00	  570.45	-1775.95	  387.15
     63.5700	  582.00	  570.99	-1759.49	  387.31
     63.6700	  570.00	  576.10	-1776.60	  387.47
     63.7700	  614.00	  587.19	-1743.69	  387.64
     63.8700	  665.00	  606.34	-1711.84	  387.80
     63.9700	  630.00	  635.75	-1776.25	  387.96
     64.0700	  708.00	  676.99	-1739.49	  388.12
     64.1700	  690.00	  729.88	-1810.38	  388.29
     64.2700	  815.00	  791.66	-1747.16	  388.45
     64.3700	  916.00	  856.25	-1710.75	  388.61
     64.4700	  924.00	  914.27	-1760.77	  388.78
     64.5700	 1011.00	  954.07	-1713.57	  388.94
     64.6700	 1076.00	  967.78	-1662.28	  389.11
     64.7700	 1056.00	  952.98	-1667.48	  389.27
     64.8700	  975.00	  914.65	-1710.15	  389.44
     64.9700	  915.00	  861.98	-1717.48	  389.60
     65.0700	  876.00	  804.80	-1699.30	  389.77
     65.1700	  772.00	  750.96	-1749.46	  389.93
     65.2700	  731.00	  704.92	-1744.42	  390.10
     65.3700	  717.00	  667.80	-1721.30	  390.27
     65.4700	  654.00	  638.69	-1755.19	  390.43
     65.5700	  587.00	  616.05	-1799.55	  390.60
     65.6700	  549.00	  598.61	-1820.11	  390.76
     65.7700	  569.00	  585.40	-1786.90	  390.93
     65.8700	  613.00	  575.70	-1733.20	  391.10
     65.9700	  543.00	  568.97	-1796.47	  391.26
     66.0700	  586.00	  564.74	-1749.24	  391.43
     66.1700	  569.00	  562.63	-1764.13	  391.60
     66.2700	  575.00	  562.28	-1757.78	  391.76
     66.3700	  547.00	  563.39	-1786.89	  391.93
     66.4700	  554.00	  565.82	-1782.32	  392.10
     66.5700	  598.00	  569.62	-1742.12	  392.26
     66.6700	  586.00	  575.25	-1759.75	  392.43
     66.7700	  596.00	  583.38	-1757.88	  392.60
     66.8700	  634.00	  595.80	-1732.30	  392.76
     66.9700	  600.00	  615.46	-1785.96	  392.93
     67.0700	  630.00	  647.07	-1787.57	  393.09
     67.1700	  649.00	  697.36	-1818.86	  393.26
     67.2700	  729.00	  774.94	-1816.44	  393.43
     67.3700	  894.00	  889.13	-1765.63	  393.59
     67.4700	 1049.00	 1047.55	-1769.05	  393.76
     67.5700	 1242.00	 1253.45	-1781.95	  393.92
     67.6700	 1493.00	 1501.06	-1778.56	  394.09
     67.7700	 1796.00	 1773.87	-1748.37	  394.26
     67.8700	 2031.00	 2042.72	-1782.22	  394.42
     67.9700	 2331.00	 2266.72	-1706.22	  394.59
     68.0700	 2429.00	 2400.00	-1741.50	  394.75
     68.1700	 2441.00	 2408.49	-1737.99	  394.91
     68.2700	 2371.00	 2289.83	-1689.33	  395.08
     68.3700	 2105.00	 2075.00	-1740.50	  395.24
     68.4700	 1862.00	 1809.65	-1718.15	  395.41
     68.5700	 1479.00	 1535.96	-1827.46	  395.57
     68.6700	 1295.00	 1284.52	-1760.02	  395.73
     68.7700	 1033.00	 1073.54	-1811.04	  395.90
     68.8700	  882.00	  909.72	-1798.22	  396.06
     68.9700	  740.00	  790.93	-1821.43	  396.22
     69.0700	  675.00	  709.87	-1805.37	  396.39
     69.1700	  634.00	  657.26	-1793.76	  396.55
     69.2700	  685.00	  624.33	-1709.83	  396.71
     69.3700	  644.00	  604.05	-1730.55	  396.87
     69.4700	  602.00	  591.49	-1759.99	  397.03
     69.5700	  609.00	  583.48	-1744.98	  397.19
     69.6700	  556.00	  578.16	-1792.66	  397.35
     69.7700	  553.00	  574.53	-1792.03	  397.51
     69.8700	  592.00	  572.03	-1750.53	  397.67
     69.9700	  569.00	  570.40	-1771.90	  397.83
     70.0700	  623.00	  569.52	-1717.02	  397.99
     70.1700	  614.00	  569.32	-1725.82	  398.15
     70.2700	  526.00	  569.86	-1814.36	  398.30
     70.3700	  594.00	  571.19	-1747.69	  398.46
     70.4700	  556.00	  573.57	-1788.07	  398.62
     70.5700	  555.00	  577.46	-1792.96	  398.77
     70.6700	  609.00	  583.72	-1745.22	  398.93
     70.7700	  579.00	  593.85	-1785.35	  399.08
     70.8700	  567.00	  610.26	-1813.76	  399.24
     70.9700	  602.00	  636.54	-1805.04	  399.39
     71.0700	  668.00	  677.52	-1780.02	  399.55
     71.1700	  731.00	  739.04	-1778.54	  399.70
     71.2700	  809.00	  827.01	-1788.51	  399.85
     71.3700	  873.00	  946.04	-1843.54	  400.00
     71.4700	 1098.00	 1097.39	-1769.89	  400.16
     71.5700	 1201.00	 1277.83	-1847.33	  400.31
     71.6700	 1331.00	 1474.96	-1914.46	  400.46
     71.7700	 1667.00	 1671.17	-1774.67	  400.61
     71.8700	 1897.00	 1841.17	-1714.67	  400.75
     71.9700	 1944.00	 1955.87	-1782.37	  400.90
     72.0700	 1922.00	 1990.76	-1839.26	  401.05
     72.1700	 1863.00	 1937.53	-1845.03	  401.20
     72.2700	 1849.00	 1808.62	-1730.12	  401.34
     72.3700	 1681.00	 1631.56	-1721.06	  401.49
     72.4700	 1590.00	 1434.62	-1615.12	  401.63
     72.5700	 1386.00	 1241.50	-1626.00	  401.78
     72.6700	 1197.00	 1068.58	-1642.08	  401.92
     72.7700	 1084.00	  924.87	-1611.37	  402.06
     72.8700	  980.00	  812.84	-1603.34	  402.20
     72.9700	  814.00	  730.26	-1686.76	  402.35
     73.0700	  836.00	  672.20	-1606.70	  402.49
     73.1700	  801.00	  632.88	-1602.38	  402.62
     73.2700	  682.00	  606.90	-1695.40	  402.76
     73.3700	  692.00	  589.87	-1668.37	  402.90
     73.4700	  639.00	  578.65	-1710.15	  403.04
     73.5700	  597.00	  571.14	-1744.64	  403.17
     73.6700	  573.00	  566.06	-1763.56	  403.31
     73.7700	  573.00	  562.65	-1760.15	  403.44
     73.8700	  578.00	  560.51	-1753.01	  403.58
     73.9700	  598.00	  559.37	-1731.87	  403.71
     74.0700	  589.00	  559.05	-1740.55	  403.84
     74.1700	  632.00	  559.37	-1697.87	  403.97
     74.2700	  584.00	  560.12	-1746.62	  404.10
     74.3700	  603.00	  561.04	-1728.54	  404.23
     74.4700	  590.00	  561.82	-1742.32	  404.36
     74.5700	  612.00	  562.15	-1720.65	  404.49
     74.6700	  647.00	  561.77	-1685.27	  404.62
     74.7700	  654.00	  560.61	-1677.11	  404.74
     74.8700	  604.00	  558.82	-1725.32	  404.87
     74.9700	  579.00	  556.69	-1748.19	  404.99
     75.0700	  573.00	  554.58	-1752.08	  405.11
     75.1700	  610.00	  552.86	-1713.36	  405.23
     75.2700	  546.00	  551.78	-1776.28	  405.35
     75.3700	  569.00	  551.91	-1753.41	  405.47
     75.4700	  553.00	  553.58	-1771.08	  405.59
     75.5700	  551.00	  557.15	-1776.65	  405.71
     75.6700	  565.00	  563.30	-1768.80	  405.83
     75.7700	  561.00	  572.37	-1781.87	  405.94
     75.8700	  582.00	  584.66	-1773.16	  406.06
     75.9700	  611.00	  600.15	-1759.65	  406.17
     76.0700	  638.00	  618.39	-1750.89	  406.28
     76.1700	  657.00	  638.34	-1751.84	  406.39
     76.2700	  705.00	  658.39	-1723.89	  406.50
     76.3700	  687.00	  676.34	-1759.84	  406.61
     76.4700	  683.00	  689.66	-1777.16	  406.72
     76.5700	  713.00	  695.99	-1753.49	  406.83
     76.6700	  695.00	  694.02	-1769.52	  406.93
     76.7700	  647.00	  684.15	-1807.65	  407.04
     76.8700	  639.00	  668.26	-1799.76	  407.14
     76.9700	  638.00	  648.70	-1781.20	  407.24
     77.0700	  588.00	  628.23	-1810.73	  407.35
     77.1700	  604.00	  608.62	-1775.12	  407.44
     77.2700	  572.00	  591.19	-1789.69	  407.54
     77.3700	  553.00	  576.68	-1794.18	  407.64
     77.4700	  484.00	  565.28	-1851.78	  407.74
     77.5700	  533.00	  556.79	-1794.29	  407.83
     77.6700	  494.00	  550.76	-1827.26	  407.93
     77.7700	  502.00	  546.66	-1815.16	  408.02
     77.8700	  519.00	  543.97	-1795.47	  408.11
     77.9700	  582.00	  542.26	-1730.76	  408.20
     78.0700	  548.00	  541.19	-1763.69	  408.29
     78.1700	  541.00	  540.53	-1770.03	  408.38
     78.2700	  514.00	  540.13	-1796.63	  408.46
     78.3700	  493.00	  539.90	-1817.40	  408.55
     78.4700	  530.00	  539.79	-1780.29	  408.63
     78.5700	  517.00	  539.78	-1793.28	  408.71
     78.6700	  530.00	  539.86	-1780.36	  408.80
     78.7700	  512.00	  540.05	-1798.55	  408.88
     78.8700	  509.00	  540.35	-1801.85	  408.95
     78.9700	  559.00	  540.81	-1752.31	  409.03
     79.0700	  511.00	  541.45	-1800.95	  409.11
     79.1700	  491.00	  542.35	-1821.85	  409.18
     79.2700	  485.00	  543.36	-1828.86	  409.26
     79.3700	  473.00	  544.92	-1842.42	  409.33
     79.4700	  554.00	  546.91	-1763.41	  409.40
     79.5700	  495.00	  549.41	-1824.91	  409.47
     79.6700	  529.00	  552.51	-1794.01	  409.53
     79.7700	  511.00	  556.32	-1815.82	  409.60
     79.8700	  539.00	  561.00	-1792.50	  409.67
     79.9700	  540.00	  566.73	-1797.23	  409.73
     80.0700	  529.00	  573.75	-1815.25	  409.79
     80.1700	  580.00	  582.37	-1772.87	  409.85
     80.2700	  548.00	  592.90	-1815.40	  409.91
     80.3700	  611.00	  605.65	-1765.15	  409.97
     80.4700	  589.00	  620.71	-1802.21	  410.03
     80.5700	  636.00	  637.94	-1772.44	  410.08
     80.6700	  632.00	  656.80	-1795.30	  410.13
     80.7700	  638.00	  676.36	-1808.86	  410.19
     80.8700	  680.00	  695.31	-1785.81	  410.24
     80.9700	  684.00	  712.14	-1798.64	  410.29
     81.0700	  727.00	  725.45	-1768.95	  410.33
     81.1700	  775.00	  734.14	-1729.64	  410.38
     81.2700	  710.00	  737.51	-1798.01	  410.42
     81.3700	  775.00	  735.33	-1730.83	  410.47
     81.4700	  785.00	  727.90	-1713.40	  410.51
     81.5700	  812.00	  715.98	-1674.48	  410.55
     81.6700	  784.00	  700.61	-1687.11	  410.59
     81.7700	  728.00	  682.91	-1725.41	  410.62
     81.8700	  735.00	  664.01	-1699.51	  410.66
     81.9700	  728.00	  644.98	-1687.48	  410.69
     82.0700	  707.00	  626.93	-1690.43	  410.73
     82.1700	  660.00	  610.53	-1721.03	  410.76
     82.2700	  676.00	  596.25	-1690.75	  410.79
     82.3700	  633.00	  584.26	-1721.76	  410.82
     82.4700	  627.00	  574.58	-1718.08	  410.84
     82.5700	  632.00	  567.07	-1705.57	  410.87
     82.6700	  593.00	  561.61	-1739.11	  410.89
     82.7700	  576.00	  557.99	-1752.49	  410.91
     82.8700	  556.00	  556.03	-1770.53	  410.93
     82.9700	  629.00	  555.58	-1697.08	  410.95
     83.0700	  554.00	  556.54	-1773.04	  410.97
     83.1700	  546.00	  558.79	-1783.29	  410.98
     83.2700	  538.00	  562.24	-1794.74	  410.99
     83.3700	  534.00	  566.70	-1803.20	  411.01
     83.4700	  562.00	  571.96	-1780.46	  411.02
     83.5700	  552.00	  577.67	-1796.17	  411.03
     83.6700	  567.00	  583.41	-1786.91	  411.03
     83.7700	  534.00	  588.63	-1825.13	  411.04
     83.8700	  605.00	  592.74	-1758.24	  411.04
     83.9700	  606.00	  595.16	-1759.66	  411.04
     84.0700	  560.00	  595.49	-1805.99	  411.04
     84.1700	  544.00	  593.65	-1820.15	  411.04
     84.2700	  524.00	  589.90	-1836.40	  411.04
     84.3700	  571.00	  584.76	-1784.26	  411.04
     84.4700	  555.00	  578.80	-1794.30	  411.03
     84.5700	  560.00	  572.58	-1783.08	  411.02
     84.6700	  549.00	  566.54	-1788.04	  411.01
     84.7700	  533.00	  561.02	-1798.52	  411.00
     84.8700	  551.00	  556.23	-1775.73	  410.99
     84.9700	  505.00	  552.27	-1817.77	  410.98
     85.0700	  524.00	  549.17	-1795.67	  410.96
     85.1700	  533.00	  546.86	-1784.36	  410.94
     85.2700	  479.00	  545.27	-1836.77	  410.92
     85.3700	  530.00	  544.28	-1784.78	  410.90
     85.4700	  558.00	  543.80	-1756.30	  410.88
     85.5700	  565.00	  543.74	-1749.24	  410.85
     85.6700	  526.00	  544.04	-1788.54	  410.83
     85.7700	  522.00	  544.67	-1793.17	  410.80
     85.8700	  554.00	  545.62	-1762.12	  410.77
     85.9700	  514.00	  546.90	-1803.40	  410.74
     86.0700	  518.00	  548.57	-1801.07	  410.71
     86.1700	  537.00	  550.70	-1784.20	  410.67
     86.2700	  575.00	  553.39	-1748.89	  410.64
     86.3700	  543.00	  556.75	-1784.25	  410.60
     86.4700	  552.00	  560.91	-1779.41	  410.56
     86.5700	  549.00	  565.99	-1787.49	  410.52
     86.6700	  596.00	  572.06	-1746.56	  410.47
     86.7700	  600.00	  578.75	-1749.25	  410.43
     86.8700	  589.00	  586.55	-1768.05	  410.38
     86.9700	  578.00	  594.81	-1787.31	  410.33
     87.0700	  647.00	  603.06	-1726.56	  410.28
     87.1700	  619.00	  610.70	-1762.20	  410.23
     87.2700	  652.00	  617.00	-1735.50	  410.18
     87.3700	  641.00	  621.26	-1750.76	  410.12
     87.4700	  638.00	  622.92	-1755.42	  410.07
     87.5700	  646.00	  621.73	-1746.23	  410.01
     87.6700	  632.00	  617.89	-1756.39	  409.95
     87.7700	  631.00	  611.95	-1751.45	  409.89
     87.8700	  647.00	  604.69	-1728.19	  409.82
     87.9700	  634.00	  596.92	-1733.42	  409.76
     88.0700	  647.00	  589.39	-1712.89	  409.69
     88.1700	  615.00	  582.75	-1738.25	  409.62
     88.2700	  534.00	  577.51	-1814.01	  409.55
     88.3700	  560.00	  574.00	-1784.50	  409.48
     88.4700	  536.00	  572.40	-1806.90	  409.40
     88.5700	  632.00	  572.73	-1711.23	  409.33
     88.6700	  577.00	  574.85	-1768.35	  409.25
     88.7700	  610.00	  578.50	-1739.00	  409.17
     88.8700	  596.00	  583.29	-1757.79	  409.09
     88.9700	  583.00	  588.74	-1776.24	  409.01
     89.0700	  625.00	  594.30	-1739.80	  408.92
     89.1700	  622.00	  599.35	-1747.85	  408.84
     89.2700	  639.00	  603.29	-1734.79	  408.75
     89.3700	  633.00	  605.56	-1743.06	  408.66
     89.4700	  608.00	  605.81	-1768.31	  408.57
     89.5700	  600.00	  603.95	-1774.45	  408.47
     89.6700	  577.00	  600.20	-1793.70	  408.38
     89.7700	  557.00	  594.99	-1808.49	  408.28
     89.8700	  589.00	  588.84	-1770.34	  408.18
     89.9700	  597.00	  582.25	-1755.75	  408.08
     90.0700	  500.00	  575.67	-1846.17	  407.98
     90.1700	  550.00	  569.45	-1789.95	  407.88
     90.2700	  532.00	  563.85	-1802.35	  407.77
     90.3700	  494.00	  559.01	-1835.51	  407.67
     90.4700	  529.00	  555.02	-1796.52	  407.56
     90.5700	  504.00	  551.85	-1818.35	  407.45
     90.6700	  552.00	  549.46	-1767.96	  407.34
     90.7700	  541.00	  547.75	-1777.25	  407.22
     90.8700	  527.00	  546.62	-1790.12	  407.11
     90.9700	  514.00	  545.99	-1802.49	  406.99
     91.0700	  537.00	  545.77	-1779.27	  406.87
     91.1700	  494.00	  545.94	-1822.44	  406.75
     91.2700	  532.00	  546.47	-1784.97	  406.63
     91.3700	  521.00	  547.41	-1796.91	  406.51
     91.4700	  525.00	  548.82	-1794.32	  406.38
     91.5700	  506.00	  550.81	-1815.31	  406.25
     91.6700	  572.00	  553.53	-1752.03	  406.13
     91.7700	  500.00	  557.14	-1827.64	  406.00
     91.8700	  601.00	  561.62	-1731.12	  405.86
     91.9700	  527.00	  567.59	-1811.09	  405.73
     92.0700	  558.00	  575.01	-1787.51	  405.59
     92.1700	  594.00	  583.99	-1760.49	  405.46
     92.2700	  586.00	  594.58	-1779.08	  405.32
     92.3700	  577.00	  606.74	-1800.24	  405.18
     92.4700	  593.00	  620.31	-1797.81	  405.04
     92.5700	  608.00	  635.01	-1797.51	  404.89
     92.6700	  656.00	  650.44	-1764.94	  404.75
     92.7700	  673.00	  666.08	-1763.58	  404.60
     92.8700	  698.00	  681.34	-1753.84	  404.45
     92.9700	  709.00	  695.57	-1757.07	  404.30
     93.0700	  749.00	  708.28	-1729.78	  404.15
     93.1700	  778.00	  719.21	-1711.71	  404.00
     93.2700	  828.00	  728.45	-1670.95	  403.85
     93.3700	  782.00	  736.44	-1724.94	  403.69
     93.4700	  799.00	  743.81	-1715.31	  403.53
     93.5700	  810.00	  751.24	-1711.74	  403.37
     93.6700	  825.00	  759.36	-1704.86	  403.21
     93.7700	  806.00	  768.69	-1733.19	  403.05
     93.8700	  874.00	  779.68	-1676.18	  402.89
     93.9700	  875.00	  792.69	-1688.19	  402.72
     94.0700	  896.00	  807.98	-1682.48	  402.55
     94.1700	  831.00	  825.56	-1765.06	  402.38
     94.2700	  864.00	  845.09	-1751.59	  402.21
     94.3700	  865.00	  865.79	-1771.29	  402.04
     94.4700	  841.00	  886.41	-1815.91	  401.87
     94.5700	  905.00	  905.35	-1770.85	  401.70
     94.6700	  938.00	  920.68	-1753.18	  401.52
     94.7700	  918.00	  930.44	-1782.94	  401.34
     94.8700	  897.00	  932.97	-1806.47	  401.16
     94.9700	  897.00	  927.37	-1800.87	  400.98
     95.0700	  912.00	  913.74	-1772.24	  400.80
     95.1700	  846.00	  893.14	-1817.64	  400.62
     95.2700	  868.00	  867.35	-1769.85	  400.43
     95.3700	  807.00	  838.45	-1801.95	  400.25
     95.4700	  799.00	  808.58	-1780.08	  400.06
     95.5700	  754.00	  779.75	-1796.25	  399.87
     95.6700	  724.00	  753.80	-1800.30	  399.68
     95.7700	  680.00	  732.38	-1822.88	  399.49
     95.8700	  685.00	  716.94	-1802.44	  399.29
     95.9700	  686.00	  708.73	-1793.23	  399.10
     96.0700	  680.00	  708.82	-1799.32	  398.90
     96.1700	  707.00	  718.10	-1781.60	  398.71
     96.2700	  725.00	  737.26	-1782.76	  398.51
     96.3700	  773.00	  766.74	-1764.24	  398.31
     96.4700	  864.00	  806.64	-1713.14	  398.11
     96.5700	  900.00	  856.64	-1727.14	  397.91
     96.6700	  891.00	  915.92	-1795.42	  397.70
     96.7700	  988.00	  983.04	-1765.54	  397.50
     96.8700	 1046.00	 1055.88	-1780.38	  397.29
     96.9700	 1133.00	 1131.63	-1769.13	  397.08
     97.0700	 1216.00	 1206.81	-1761.31	  396.87
     97.1700	 1266.00	 1277.38	-1781.88	  396.66
     97.2700	 1282.00	 1338.91	-1827.41	  396.45
     97.3700	 1370.00	 1386.95	-1787.45	  396.24
     97.4700	 1448.00	 1417.61	-1740.11	  396.02
     97.5700	 1411.00	 1428.34	-1787.84	  395.81
     97.6700	 1450.00	 1418.44	-1738.94	  395.59
     97.7700	 1363.00	 1389.29	-1796.79	  395.38
     97.8700	 1378.00	 1343.85	-1736.35	  395.16
     97.9700	 1180.00	 1286.17	-1876.67	  394.94
     98.0700	 1192.00	 1220.59	-1799.09	  394.72
     98.1700	 1182.00	 1151.35	-1739.85	  394.50
     98.2700	 1102.00	 1082.34	-1750.84	  394.27
     98.3700	 1010.00	 1017.00	-1777.50	  394.05
     98.4700	  944.00	  958.17	-1784.67	  393.82
     98.5700	  864.00	  908.15	-1814.65	  393.60
     98.6700	  832.00	  868.71	-1807.21	  393.37
     98.7700	  846.00	  841.15	-1765.65	  393.14
     98.8700	  775.00	  826.43	-1821.93	  392.91
     98.9700	  801.00	  825.22	-1794.72	  392.68
     99.0700	  787.00	  837.92	-1821.42	  392.45
     99.1700	  878.00	  864.77	-1757.27	  392.22
     99.2700	  905.00	  905.78	-1771.28	  391.98
     99.3700	  888.00	  960.76	-1843.26	  391.75
     99.4700	 1048.00	 1029.20	-1751.70	  391.51
     99.5700	 1130.00	 1110.20	-1750.70	  391.28
     99.6700	 1184.00	 1202.43	-1788.93	  391.04
     99.7700	 1276.00	 1303.94	-1798.44	  390.80
     99.8700	 1407.00	 1412.14	-1775.64	  390.56
     99.9700	 1505.00	 1523.70	-1789.20	  390.32
    100.0700	 1602.00	 1634.65	-1803.15	  390.08
    100.1700	 1707.00	 1740.55	-1804.05	  389.84
    100.2700	 1871.00	 1836.90	-1736.40	  389.60
    100.3700	 1929.00	 1919.66	-1761.16	  389.36
    100.4700	 2084.00	 1985.57	-1672.07	  389.11
    100.5700	 2074.00	 2032.41	-1728.91	  388.87
    100.6700	 2136.00	 2058.75	-1693.25	  388.62
    100.7700	 2095.00	 2063.77	-1739.27	  388.38
    100.8700	 2149.00	 2047.20	-1668.70	  388.13
    100.9700	 2041.00	 2009.53	-1739.03	  387.88
    101.0700	 2020.00	 1952.40	-1702.90	  387.63
    101.1700	 1919.00	 1878.81	-1730.31	  387.38
    101.2700	 1856.00	 1792.98	-1707.48	  387.13
    101.3700	 1732.00	 1699.86	-1738.36	  386.88
    101.4700	 1661.00	 1604.52	-1714.02	  386.63
    101.5700	 1515.00	 1511.55	-1767.05	  386.38
    101.6700	 1474.00	 1424.76	-1721.26	  386.13
    101.7700	 1324.00	 1346.94	-1793.44	  385.88
    101.8700	 1304.00	 1279.82	-1746.32	  385.62
    101.9700	 1207.00	 1224.11	-1787.61	  385.37
    102.0700	 1137.00	 1179.48	-1812.98	  385.12
    102.1700	 1122.00	 1144.77	-1793.27	  384.86
    102.2700	 1008.00	 1118.04	-1880.54	  384.61
    102.3700	 1058.00	 1096.84	-1809.34	  384.35
    102.4700	 1067.00	 1078.51	-1782.01	  384.10
    102.5700	 1026.00	 1060.44	-1804.94	  383.84
    102.6700	 1014.00	 1040.44	-1796.94	  383.58
    102.7700	 1015.00	 1017.02	-1772.52	  383.33
    102.8700	  948.00	  989.50	-1812.00	  383.07
    102.9700	  964.00	  958.00	-1764.50	  382.81
    103.0700	  944.00	  923.20	-1749.70	  382.55
    103.1700	  901.00	  886.11	-1755.61	  382.29
    103.2700	  853.00	  847.91	-1765.41	  382.04
    103.3700	  838.00	  809.77	-1742.27	  381.78
    103.4700	  810.00	  772.76	-1733.26	  381.52
    103.5700	  735.00	  737.80	-1773.30	  381.26
    103.6700	  688.00	  705.62	-1788.12	  381.00
    103.7700	  683.00	  676.72	-1764.22	  380.74
    103.8700	  637.00	  651.41	-1784.91	  380.48
    103.9700	  637.00	  629.78	-1763.28	  380.22
    104.0700	  613.00	  611.74	-1769.24	  379.96
    104.1700	  560.00	  597.09	-1807.59	  379.70
    104.2700	  577.00	  585.53	-1779.03	  379.44
    104.3700	  572.00	  576.70	-1775.20	  379.18
    104.4700	  571.00	  570.24	-1769.74	  378.92
    104.5700	  508.00	  565.76	-1828.26	  378.66
    104.6700	  584.00	  562.92	-1749.42	  378.40
    104.7700	  543.00	  561.42	-1788.92	  378.14
    104.8700	  561.00	  560.97	-1770.47	  377.88
    104.9700	  510.00	  561.36	-1821.86	  377.62
    105.0700	  523.00	  562.40	-1809.90	  377.36
    105.1700	  556.00	  563.94	-1778.44	  377.10
    105.2700	  532.00	  565.88	-1804.38	  376.85
    105.3700	  539.00	  568.17	-1799.67	  376.59
    105.4700	  550.00	  570.77	-1791.27	  376.33
    105.5700	  572.00	  573.70	-1772.20	  376.07
    105.6700	  571.00	  577.02	-1776.52	  375.81
    105.7700	  554.00	  580.83	-1797.33	  375.55
    105.8700	  567.00	  585.26	-1788.76	  375.30
    105.9700	  542.00	  590.40	-1818.90	  375.04
    106.0700	  559.00	  596.37	-1807.87	  374.78
    106.1700	  589.00	  603.22	-1784.72	  374.53
    106.2700	  588.00	  610.93	-1793.43	  374.27
    106.3700	  549.00	  619.46	-1840.96	  374.02
    106.4700	  608.00	  628.64	-1791.14	  373.76
    106.5700	  566.00	  638.28	-1842.78	  373.51
    106.6700	  683.00	  648.09	-1735.59	  373.26
    106.7700	  625.00	  657.73	-1803.23	  373.00
    106.8700	  645.00	  666.83	-1792.33	  372.75
    106.9700	  699.00	  674.98	-1746.48	  372.50
    107.0700	  666.00	  681.82	-1786.32	  372.25
    107.1700	  685.00	  687.02	-1772.52	  372.00
    107.2700	  635.00	  690.41	-1825.91	  371.75
    107.3700	  672.00	  691.97	-1790.47	  371.50
    107.4700	  732.00	  691.86	-1730.36	  371.26
    107.5700	  681.00	  690.40	-1779.90	  371.01
    107.6700	  697.00	  688.00	-1761.50	  370.76
    107.7700	  657.00	  685.11	-1798.61	  370.52
    107.8700	  674.00	  682.16	-1778.66	  370.27
    107.9700	  708.00	  679.52	-1742.02	  370.03
    108.0700	  667.00	  677.46	-1780.96	  369.79
    108.1700	  675.00	  676.16	-1771.66	  369.55
    108.2700	  675.00	  675.66	-1771.16	  369.31
    108.3700	  678.00	  675.90	-1768.40	  369.07
    108.4700	  713.00	  676.70	-1734.20	  368.83
    108.5700	  684.00	  677.79	-1764.29	  368.59
    108.6700	  661.00	  678.80	-1788.30	  368.36
    108.7700	  656.00	  679.35	-1793.85	  368.12
    108.8700	  679.00	  679.03	-1770.53	  367.89
    108.9700	  665.00	  677.51	-1783.01	  367.66
    109.0700	  682.00	  674.54	-1763.04	  367.43
    109.1700	  670.00	  670.01	-1770.51	  367.20
    109.2700	  653.00	  663.94	-1781.44	  366.97
    109.3700	  667.00	  656.51	-1760.01	  366.74
    109.4700	  663.00	  647.95	-1755.45	  366.52
    109.5700	  666.00	  638.58	-1743.08	  366.29
    109.6700	  642.00	  628.71	-1757.21	  366.07
    109.7700	  640.00	  618.68	-1749.18	  365.85
    109.8700	  622.00	  608.78	-1757.28	  365.63
    109.9700	  603.00	  599.26	-1766.76	  365.41
    110.0700	  558.00	  590.35	-1802.85	  365.20
    110.1700	  581.00	  582.21	-1771.71	  364.98
    110.2700	  567.00	  574.97	-1778.47	  364.77
    110.3700	  563.00	  568.68	-1776.18	  364.56
    110.4700	  576.00	  563.37	-1757.87	  364.35
    110.5700	  536.00	  559.02	-1793.52	  364.14
    110.6700	  528.00	  555.60	-1798.10	  363.94
    110.7700	  588.00	  553.03	-1735.53	  363.74
    110.8700	  555.00	  551.23	-1766.73	  363.53
    110.9700	  545.00	  550.12	-1775.62	  363.33
    111.0700	  539.00	  549.60	-1781.10	  363.14
    111.1700	  565.00	  549.61	-1755.11	  362.94
    111.2700	  550.00	  550.06	-1770.56	  362.75
    111.3700	  554.00	  550.89	-1767.39	  362.56
    111.4700	  583.00	  552.05	-1739.55	  362.37
    111.5700	  541.00	  553.50	-1783.00	  362.18
    111.6700	  580.00	  555.20	-1745.70	  362.00
    111.7700	  528.00	  557.14	-1799.64	  361.81
    111.8700	  555.00	  559.30	-1774.80	  361.63
    111.9700	  540.00	  561.69	-1792.19	  361.45
    112.0700	  555.00	  564.29	-1779.79	  361.28
    112.1700	  560.00	  567.12	-1777.62	  361.11
    112.2700	  604.00	  570.21	-1736.71	  360.93
    112.3700	  573.00	  573.57	-1771.07	  360.77
    112.4700	  579.00	  577.25	-1768.75	  360.60
    112.5700	  617.00	  581.28	-1734.78	  360.44
    112.6700	  666.00	  585.73	-1690.23	  360.28
    112.7700	  613.00	  590.69	-1748.19	  360.12
    112.8700	  641.00	  596.26	-1725.76	  359.96
    112.9700	  641.00	  602.59	-1732.09	  359.81
    113.0700	  693.00	  609.84	-1687.34	  359.66
    113.1700	  750.00	  618.28	-1638.78	  359.51
    113.2700	  701.00	  628.22	-1697.72	  359.37
    113.3700	  777.00	  640.06	-1633.56	  359.23
    113.4700	  839.00	  654.29	-1585.79	  359.09
    113.5700	  850.00	  671.56	-1592.06	  358.95
    113.6700	  851.00	  692.66	-1612.16	  358.82
    113.7700	  943.00	  718.54	-1546.04	  358.69
    113.8700	  949.00	  750.37	-1571.87	  358.57
    113.9700	 1013.00	  789.51	-1547.01	  358.44
    114.0700	 1107.00	  837.53	-1501.03	  358.32
    114.1700	 1098.00	  896.27	-1568.77	  358.21
    114.2700	 1115.00	  967.71	-1623.21	  358.09
    114.3700	 1230.00	 1054.06	-1594.56	  357.98
    114.4700	 1319.00	 1157.60	-1609.10	  357.87
    114.5700	 1439.00	 1280.72	-1612.22	  357.77
    114.6700	 1618.00	 1425.75	-1578.25	  357.67
    114.7700	 1660.00	 1594.87	-1705.37	  357.57
    114.8700	 1991.00	 1789.94	-1569.44	  357.48
    114.9700	 2145.00	 2012.38	-1637.88	  357.39
    115.0700	 2397.00	 2263.03	-1636.53	  357.31
    115.1700	 2600.00	 2542.01	-1712.51	  357.22
    115.2700	 2721.00	 2848.45	-1897.95	  357.15
    115.3700	 3055.00	 3180.46	-1895.96	  357.07
    115.4700	 3350.00	 3534.96	-1955.46	  357.00
    115.5700	 3687.00	 3907.75	-1991.25	  356.93
    115.6700	 4059.00	 4293.39	-2004.89	  356.87
    115.7700	 4430.00	 4685.12	-2025.62	  356.81
    115.8700	 4799.00	 5074.99	-2046.49	  356.76
    115.9700	 5106.00	 5453.93	-2118.43	  356.71
    116.0700	 5590.00	 5812.07	-1992.57	  356.66
    116.1700	 5895.00	 6138.84	-2014.34	  356.62
    116.2700	 6305.00	 6423.32	-1888.82	  356.58
    116.3700	 6649.00	 6654.96	-1776.46	  356.54
    116.4700	 6933.00	 6824.35	-1661.85	  356.51
    116.5700	 7082.00	 6924.14	-1612.64	  356.49
    116.6700	 7038.00	 6949.84	-1682.34	  356.47
    116.7700	 6943.00	 6900.40	-1727.90	  356.45
    116.8700	 6903.00	 6778.39	-1645.89	  356.44
    116.9700	 6725.00	 6589.69	-1635.19	  356.43
    117.0700	 6357.00	 6342.64	-1756.14	  356.43
    117.1700	 6082.00	 6047.16	-1735.66	  356.43
    117.2700	 5657.00	 5713.98	-1827.48	  356.43
    117.3700	 5443.00	 5353.87	-1681.37	  356.44
    117.4700	 4936.00	 4977.15	-1811.65	  356.46
    117.5700	 4556.00	 4593.23	-1807.73	  356.48
    117.6700	 4341.00	 4210.47	-1639.97	  356.50
    117.7700	 4023.00	 3836.21	-1583.71	  356.54
    117.8700	 3681.00	 3476.48	-1565.98	  356.57
    117.9700	 3208.00	 3136.12	-1698.62	  356.61
    118.0700	 2985.00	 2818.63	-1604.13	  356.66
    118.1700	 2596.00	 2526.37	-1700.87	  356.71
    118.2700	 2300.00	 2260.74	-1731.24	  356.76
    118.3700	 2021.00	 2022.14	-1771.64	  356.82
    118.4700	 1742.00	 1810.23	-1838.73	  356.89
    118.5700	 1562.00	 1623.95	-1832.45	  356.96
    118.6700	 1293.00	 1461.77	-1939.27	  357.04
    118.7700	 1209.00	 1321.87	-1883.37	  357.12
    118.8700	 1072.00	 1202.18	-1900.68	  357.21
    118.9700	  973.00	 1100.53	-1898.03	  357.30
    119.0700	  926.00	 1014.75	-1859.25	  357.40
    119.1700	  872.00	  942.74	-1841.24	  357.51
    119.2700	  784.00	  882.54	-1869.04	  357.62
    119.3700	  747.00	  832.39	-1855.89	  357.73
    119.4700	  736.00	  790.69	-1825.19	  357.86
    119.5700	  716.00	  756.05	-1810.55	  357.99
    119.6700	  678.00	  727.27	-1819.77	  358.12
    119.7700	  643.00	  703.34	-1830.84	  358.26
    119.8700	  665.00	  683.43	-1788.93	  358.41
    119.9700	  608.00	  666.82	-1829.32	  358.56
    120.0700	  547.00	  652.96	-1876.46	  358.72
    120.1700	  561.00	  641.37	-1850.87	  358.88
    120.2700	  605.00	  631.68	-1797.18	  359.05
    120.3700	  567.00	  623.60	-1827.10	  359.23
    120.4700	  567.00	  616.89	-1820.39	  359.42
    120.5700	  556.00	  611.36	-1825.86	  359.61
    120.6700	  580.00	  606.86	-1797.36	  359.80
    120.7700	  554.00	  603.29	-1819.79	  360.01
    120.8700	  576.00	  600.54	-1795.04	  360.22
    120.9700	  586.00	  598.55	-1783.05	  360.44
    121.0700	  568.00	  597.27	-1799.77	  360.66
    121.1700	  552.00	  596.64	-1815.14	  360.89
    121.2700	  600.00	  596.62	-1767.12	  361.13
    121.3700	  595.00	  597.18	-1772.68	  361.37
    121.4700	  559.00	  598.26	-1809.76	  361.63
    121.5700	  575.00	  599.82	-1795.32	  361.88
    121.6700	  583.00	  601.80	-1789.30	  362.15
    121.7700	  581.00	  604.14	-1793.64	  362.42
    121.8700	  578.00	  606.80	-1799.30	  362.70
    121.9700	  614.00	  609.68	-1766.18	  362.99
    122.0700	  620.00	  612.70	-1763.20	  363.29
    122.1700	  653.00	  615.77	-1733.27	  363.59
    122.2700	  639.00	  618.80	-1750.30	  363.90
    122.3700	  657.00	  621.67	-1735.17	  364.22
    122.4700	  619.00	  624.30	-1775.80	  364.54
    122.5700	  615.00	  626.59	-1782.09	  364.88
    122.6700	  643.00	  628.44	-1755.94	  365.22
    122.7700	  665.00	  629.79	-1735.29	  365.57
    122.8700	  634.00	  630.58	-1767.08	  365.93
    122.9700	  676.00	  630.78	-1725.28	  366.29
    123.0700	  655.00	  630.39	-1745.89	  366.66
    123.1700	  673.00	  629.43	-1726.93	  367.04
    123.2700	  618.00	  627.93	-1780.43	  367.43
    123.3700	  596.00	  625.96	-1800.46	  367.83
    123.4700	  662.00	  623.58	-1732.08	  368.24
    123.5700	  621.00	  620.86	-1770.36	  368.65
    123.6700	  596.00	  617.87	-1792.37	  369.07
    123.7700	  604.00	  614.69	-1781.19	  369.51
    123.8700	  619.00	  611.37	-1762.87	  369.95
    123.9700	  664.00	  608.00	-1714.50	  370.39
    124.0700	  613.00	  604.61	-1762.11	  370.85
    124.1700	  656.00	  601.28	-1715.78	  371.32
    124.2700	  605.00	  598.03	-1763.53	  371.79
    124.3700	  636.00	  594.91	-1729.41	  372.28
    124.4700	  637.00	  591.94	-1725.44	  372.77
    124.5700	  568.00	  589.15	-1791.65	  373.27
    124.6700	  607.00	  586.55	-1750.05	  373.78
    124.7700	  614.00	  584.15	-1740.65	  374.30
    124.8700	  587.00	  581.97	-1765.47	  374.83
    124.9700	  569.00	  494.18	-1695.68	  375.37
    125.0700	  587.00	  494.73	-1770.50	  375.92
    125.1700	  567.00	  495.28	-1770.50	  376.48
    125.2700	  568.00	  495.85	-1770.50	  377.04
    125.3700	  550.00	  496.43	-1770.50	  377.62
    125.4700	  548.00	  497.02	-1770.50	  378.21
    125.5700	  570.00	  497.61	-1770.50	  378.80
    125.6700	  566.00	  498.22	-1770.50	  379.41
    125.7700	  561.00	  498.84	-1770.50	  380.03
    125.8700	  575.00	  499.46	-1770.50	  380.65
    125.9700	  601.00	  500.10	-1770.50	  381.29
    126.0700	  592.00	  500.74	-1770.50	  381.94
    126.1700	  591.00	  501.40	-1770.50	  382.59
    126.2700	  587.00	  502.07	-1770.50	  383.26
    126.3700	  543.00	  502.75	-1770.50	  383.94
    126.4700	  572.00	  503.43	-1770.50	  384.62
    126.5700	  561.00	  504.13	-1770.50	  385.32
    126.6700	  637.00	  504.84	-1770.50	  386.03
    126.7700	  640.00	  505.56	-1770.50	  386.75
    126.8700	  614.00	  506.29	-1770.50	  387.48
    126.9700	  662.00	  507.03	-1770.50	  388.22
    127.0700	  624.00	  507.78	-1770.50	  388.98
    127.1700	  653.00	  508.55	-1770.50	  389.74
    127.2700	  563.00	  509.32	-1770.50	  390.51
    127.3700	  678.00	  510.11	-1770.50	  391.30
    127.4700	  633.00	  510.90	-1770.50	  392.09
    127.5700	  626.00	  511.71	-1770.50	  392.90
    127.6700	  679.00	  512.53	-1770.50	  393.72
    127.7700	  714.00	  513.36	-1770.50	  394.55
    127.8700	  708.00	  514.20	-1770.50	  395.39
    127.9700	  726.00	  515.06	-1770.50	  396.25
    128.0700	  703.00	  515.92	-1770.50	  397.11
    128.1700	  798.00	  516.80	-1770.50	  397.99
    128.2700	  807.00	  517.69	-1770.50	  398.88
    128.3700	  790.00	  518.59	-1770.50	  399.78
    128.4700	  810.00	  519.50	-1770.50	  400.69
    128.5700	    0.00	  520.43	-1770.50	  401.62
    128.6700	    0.00	  521.36	-1770.50	  402.56
     12.3040	        	        	        	        	       0	(  0  0  2)	  0  1
     24.8881	        	        	        	        	       0	(  0  0  4)	  0  1
     28.3281	        	        	        	        	       0	(  1  0  0)	  0  1
     29.0254	        	        	        	        	       0	(  1  0  1)	  0  1
     31.0319	        	        	        	        	       0	(  1  0  2)	  0  1
     34.1406	        	        	        	        	       0	(  1  0  3)	  0  1
     37.7882	        	        	        	        	       0	(  0  0  6)	  0  1
     38.1181	        	        	        	        	       0	(  1  0  4)	  0  1
     42.7687	        	        	        	        	       0	(  1  0  5)	  0  1
     47.9532	        	        	        	        	       0	(  1  0  6)	  0  1
     50.2651	        	        	        	        	       0	(  1  1  0)	  0  1
     51.2106	        	        	        	        	       0	(  0  0  8)	  0  1
     51.9883	        	        	        	        	       0	(  1  1  2)	  0  1
     53.5841	        	        	        	        	       0	(  1  0  7)	  0  1
     56.9368	        	        	        	        	       0	(  1  1  4)	  0  1
     58.7621	        	        	        	        	       0	(  2  0  0)	  0  1
     59.1537	        	        	        	        	       0	(  2  0  1)	  0  1
     59.6149	        	        	        	        	       0	(  1  0  8)	  0  1
     60.3193	        	        	        	        	       0	(  2  0  2)	  0  1
     62.2327	        	        	        	        	       0	(  2  0  3)	  0  1
     64.6323	        	        	        	        	       0	(  1  1  6)	  0  1
     64.8571	        	        	        	        	       0	(  2  0  4)	  0  1
     65.4405	        	        	        	        	       0	(  0  0 10)	  0  1
     66.0317	        	        	        	        	       0	(  1  0  9)	  0  1
     68.1517	        	        	        	        	       0	(  2  0  5)	  0  1
     72.0796	        	        	        	        	       0	(  2  0  6)	  0  1
     72.8483	        	        	        	        	       0	(  1  0 10)	  0  1
     74.6710	        	        	        	        	       0	(  1  1  8)	  0  1
     76.6142	        	        	        	        	       0	(  2  0  7)	  0  1
     80.1064	        	        	        	        	       0	(  1  0 11)	  0  1
     80.9217	        	        	        	        	       0	(  0  0 12)	  0  1
     81.0034	        	        	        	        	       0	(  2  1  0)	  0  1
     81.3433	        	        	        	        	       0	(  2  1  1)	  0  1
     81.7449	        	        	        	        	       0	(  2  0  8)	  0  1
     82.3612	        	        	        	        	       0	(  2  1  2)	  0  1
     84.0527	        	        	        	        	       0	(  2  1  3)	  0  1
     86.4127	        	        	        	        	       0	(  2  1  4)	  0  1
     86.9434	        	        	        	        	       0	(  1  1 10)	  0  1
     87.4835	        	        	        	        	       0	(  2  0  9)	  0  1
     87.8812	        	        	        	        	       0	(  1  0 12)	  0  1
     89.4388	        	        	        	        	       0	(  2  1  5)	  0  1
     93.1366	        	        	        	        	       0	(  2  1  6)	  0  1
     93.8715	        	        	        	        	       0	(  2  0 10)	  0  1
     94.8923	        	        	        	        	       0	(  3  0  0)	  0  1
     95.2297	        	        	        	        	       0	(  3  0  1)	  0  1
     96.2430	        	        	        	        	       0	(  3  0  2)	  0  1
     96.2952	        	        	        	        	       0	(  1  0 13)	  0  1
     97.5256	        	        	        	        	       0	(  2  1  7)	  0  1
     97.9365	        	        	        	        	       0	(  3  0  3)	  0  1
     98.4624	        	        	        	        	       0	(  0  0 14)	  0  1
    100.3198	        	        	        	        	       0	(  3  0  4)	  0  1
    100.9941	        	        	        	        	       0	(  2  0 11)	  0  1
    101.8152	        	        	        	        	       0	(  1  1 12)	  0  1
    102.6486	        	        	        	        	       0	(  2  1  8)	  0  1
    103.4117	        	        	        	        	       0	(  3  0  5)	  0  1
    105.5488	        	        	        	        	       0	(  1  0 14)	  0  1
    107.2472	        	        	        	        	       0	(  3  0  6)	  0  1
    108.5860	        	        	        	        	       0	(  2  1  9)	  0  1
    109.0062	        	        	        	        	       0	(  2  0 12)	  0  1
    111.8880	        	        	        	        	       0	(  3  0  7)	  0  1
    115.4837	        	        	        	        	       0	(  2  1 10)	  0  1
    115.9937	        	        	        	        	       0	(  1  0 15)	  0  1
    116.6177	        	        	        	        	       0	(  2  2  0)	  0  1
    117.4420	        	        	        	        	       0	(  3  0  8)	  0  1
    118.1330	        	        	        	        	       0	(  2  2  2)	  0  1
    118.1919	        	        	        	        	       0	(  2  0 13)	  0  1
    119.9538	        	        	        	        	       0	(  0  0 16)	  0  1
    120.6620	        	        	        	        	       0	(  1  1 14)	  0  1
    122.8190	        	        	        	        	       0	(  2  2  4)	  0  1
    123.6120	        	        	        	        	       0	(  2  1 11)	  0  1
    124.1029	        	        	        	        	       0	(  3  0  9)	  0  1
    124.6831	        	        	        	        	       0	(  3  1  0)	  0  1
    125.0934	        	        	        	        	       0	(  3  1  1)	  0  1
    126.3370	        	        	        	        	       0	(  3  1  2)	  0  1
    128.3402	        	        	        	        	       0	(  1  0 16)	  0  1
    128.4555	        	        	        	        	       0	(  3  1  3)	  0  1
    129.1243	        	        	        	        	       0	(  2  0 14)	  0  1
    131.2600	        	        	        	        	       0	(  2  2  6)	  0  1
    131.5318	        	        	        	        	       0	(  3  1  4)	  0  1
    132.2451	        	        	        	        	       0	(  3  0 10)	  0  1
    133.5266	        	        	        	        	       0	(  2  1 12)	  0  1
    135.7195	        	        	        	        	       0	(  3  1  5)	  0  1
    141.3160	        	        	        	        	       0	(  3  1  6)	  0  1
    142.7273	        	        	        	        	       0	(  3  0 11)	  0  1
    143.2713	        	        	        	        	       0	(  2  0 15)	  0  1
    144.5200	        	        	        	        	       0	(  1  0 17)	  0  1
    145.4975	        	        	        	        	       0	(  2  2  8)	  0  1
    146.6890	        	        	        	        	       0	(  2  1 13)	  0  1
    148.9916	        	        	        	        	       0	(  3  1  7)	  0  1
    149.6146	        	        	        	        	       0	(  1  1 16)	  0  1
    154.0343	        	        	        	        	       0	(  0  0 18)	  0  1
    158.6215	        	        	        	        	       0	(  3  0 12)	  0  1
    158.8451	        	        	        	        	       0	(  4  0  0)	  0  1
    159.8025	        	        	        	        	       0	(  4  0  1)	  0  1
    160.9949	        	        	        	        	       0	(  3  1  8)	  0  1
    162.9836	        	        	        	        	       0	(  4  0  2)	  0  1
    169.8118	        	        	        	        	       0	(  2  0 16)	  0  1
    170.3423	        	        	        	        	       0	(  4  0  3)	  0  1
    174.3057	        	        	        	        	       0	(  2  1 14)	  0  1
