MSG Master    CELL:    5.87881   5.87881  23.08977   90.0000   90.0000  120.0000   SPGR: P 63/m m c             TEMP:    498.65
  2   1280     2.52000     0.00000    -0.08644     0.00000     0.00000    0
    95    95     0     0     2
       0.00000      10.00000
     125.00000     130.00000
 2Theta	Yobs	Ycal	Yobs-Ycal	Backg	Posr	(hkl)	K
      0.7700	    0.00	  950.77	-2174.00	  813.93
      0.8700	    0.00	  947.68	-2174.00	  810.84
      0.9700	   54.00	  944.61	-2174.00	  807.77
      1.0700	   39.00	  941.56	-2174.00	  804.72
      1.1700	   39.00	  938.52	-2174.00	  801.68
      1.2700	   42.00	  935.50	-2174.00	  798.67
      1.3700	   39.00	  932.51	-2174.00	  795.67
      1.4700	  103.00	  929.53	-2174.00	  792.69
      1.5700	  297.00	  926.57	-2174.00	  789.73
      1.6700	  478.00	  923.62	-2174.00	  786.78
      1.7700	  591.00	  920.70	-2174.00	  783.86
      1.8700	  664.00	  917.79	-2174.00	  780.95
      1.9700	  736.00	  914.90	-2174.00	  778.06
      2.0700	  777.00	  912.03	-2174.00	  775.19
      2.1700	  778.00	  909.18	-2174.00	  772.34
      2.2700	  738.00	  906.34	-2174.00	  769.50
      2.3700	  718.00	  903.52	-2174.00	  766.69
      2.4700	  687.00	  900.72	-2174.00	  763.89
      2.5700	  675.00	  897.94	-2174.00	  761.10
      2.6700	  661.00	  895.18	-2174.00	  758.34
      2.7700	  680.00	  892.43	-2174.00	  755.59
      2.8700	  624.00	  889.70	-2174.00	  752.86
      2.9700	  634.00	  886.98	-2174.00	  750.15
      3.0700	  636.00	  884.29	-2174.00	  747.45
      3.1700	  612.00	  881.61	-2174.00	  744.77
      3.2700	  715.00	  878.95	-2174.00	  742.11
      3.3700	  910.00	  876.30	-2174.00	  739.47
      3.4700	 1043.00	  873.68	-2174.00	  736.84
      3.5700	 1129.00	  871.06	-2174.00	  734.23
      3.6700	 1352.00	  868.47	-2174.00	  731.63
      3.7700	 1413.00	  865.89	-2174.00	  729.05
      3.8700	 1616.00	  863.33	-2174.00	  726.49
      3.9700	 1578.00	  860.79	-2174.00	  723.95
      4.0700	 1629.00	  858.26	-2174.00	  721.42
      4.1700	 1733.00	  855.75	-2174.00	  718.91
      4.2700	 1644.00	  853.25	-2174.00	  716.41
      4.3700	 1657.00	  850.77	-2174.00	  713.94
      4.4700	 1561.00	  848.31	-2174.00	  711.47
      4.5700	 1598.00	  845.86	-2174.00	  709.03
      4.6700	 1576.00	  843.43	-2174.00	  706.60
      4.7700	 1398.00	  841.02	-2174.00	  704.18
      4.8700	 1408.00	  838.62	-2174.00	  701.78
      4.9700	 1384.00	  836.24	-2174.00	  699.40
      5.0700	 1386.00	  833.87	-2174.00	  697.03
      5.1700	 1303.00	  831.52	-2174.00	  694.68
      5.2700	 1213.00	  829.18	-2174.00	  692.35
      5.3700	 1159.00	  826.86	-2174.00	  690.03
      5.4700	 1186.00	  824.56	-2174.00	  687.72
      5.5700	 1211.00	  822.27	-2174.00	  685.43
      5.6700	 1196.00	  820.00	-2174.00	  683.16
      5.7700	 1224.00	  817.74	-2174.00	  680.90
      5.8700	 1135.00	  815.50	-2174.00	  678.66
      5.9700	 1114.00	  813.27	-2174.00	  676.43
      6.0700	 1043.00	  811.06	-2174.00	  674.22
      6.1700	 1101.00	  808.86	-2174.00	  672.02
      6.2700	 1002.00	  806.68	-2174.00	  669.84
      6.3700	 1014.00	  804.51	-2174.00	  667.67
      6.4700	 1019.00	  802.36	-2174.00	  665.52
      6.5700	  959.00	  800.22	-2174.00	  663.38
      6.6700	  944.00	  798.09	-2174.00	  661.26
      6.7700	  946.00	  795.99	-2174.00	  659.15
      6.8700	  931.00	  793.89	-2174.00	  657.05
      6.9700	  901.00	  791.81	-2174.00	  654.97
      7.0700	  928.00	  789.75	-2174.00	  652.91
      7.1700	  928.00	  787.70	-2174.00	  650.86
      7.2700	  855.00	  785.66	-2174.00	  648.82
      7.3700	  882.00	  783.64	-2174.00	  646.80
      7.4700	  853.00	  781.63	-2174.00	  644.79
      7.5700	  835.00	  779.64	-2174.00	  642.80
      7.6700	  851.00	  777.66	-2174.00	  640.82
      7.7700	  833.00	  775.69	-2174.00	  638.85
      7.8700	  815.00	  773.74	-2174.00	  636.90
      7.9700	  878.00	  771.80	-2174.00	  634.96
      8.0700	  865.00	  769.88	-2174.00	  633.04
      8.1700	  761.00	  767.97	-2174.00	  631.13
      8.2700	  800.00	  766.07	-2174.00	  629.23
      8.3700	  796.00	  764.19	-2174.00	  627.35
      8.4700	  844.00	  762.32	-2174.00	  625.48
      8.5700	  740.00	  760.47	-2174.00	  623.63
      8.6700	  760.00	  758.62	-2174.00	  621.78
      8.7700	  799.00	  756.79	-2174.00	  619.96
      8.8700	  743.00	  754.98	-2174.00	  618.14
      8.9700	  782.00	  753.18	-2174.00	  616.34
      9.0700	  734.00	  751.39	-2174.00	  614.55
      9.1700	  766.00	  749.61	-2174.00	  612.77
      9.2700	  752.00	  747.85	-2174.00	  611.01
      9.3700	  754.00	  746.10	-2174.00	  609.26
      9.4700	  752.00	  744.36	-2174.00	  607.52
      9.5700	  731.00	  742.64	-2174.00	  605.80
      9.6700	  687.00	  740.93	-2174.00	  604.09
      9.7700	  779.00	  739.23	-2174.00	  602.39
      9.8700	  738.00	  737.54	-2174.00	  600.71
      9.9700	  776.00	  735.87	-2174.00	  599.03
     10.0700	  767.00	  736.30	-2143.30	  597.37
     10.1700	  748.00	  734.88	-2160.88	  595.73
     10.2700	  726.00	  733.52	-2181.52	  594.09
     10.3700	  748.00	  732.23	-2158.23	  592.47
     10.4700	  728.00	  731.04	-2177.04	  590.86
     10.5700	  709.00	  729.98	-2194.98	  589.26
     10.6700	  741.00	  729.12	-2162.12	  587.67
     10.7700	  768.00	  728.52	-2134.52	  586.10
     10.8700	  754.00	  728.29	-2148.29	  584.54
     10.9700	  752.00	  728.52	-2150.52	  582.99
     11.0700	  711.00	  729.25	-2192.25	  581.45
     11.1700	  725.00	  730.51	-2179.51	  579.93
     11.2700	  690.00	  732.31	-2216.31	  578.41
     11.3700	  773.00	  734.71	-2135.71	  576.91
     11.4700	  757.00	  737.79	-2154.79	  575.42
     11.5700	  749.00	  741.69	-2166.69	  573.94
     11.6700	  691.00	  746.63	-2229.63	  572.48
     11.7700	  811.00	  752.88	-2115.88	  571.02
     11.8700	  798.00	  760.73	-2136.73	  569.58
     11.9700	  791.00	  770.22	-2153.22	  568.15
     12.0700	  805.00	  780.86	-2149.86	  566.73
     12.1700	  832.00	  791.06	-2133.06	  565.32
     12.2700	  868.00	  797.62	-2103.62	  563.92
     12.3700	  839.00	  795.92	-2130.92	  562.53
     12.4700	  784.00	  783.17	-2173.17	  561.16
     12.5700	  757.00	  763.23	-2180.23	  559.79
     12.6700	  750.00	  743.30	-2167.30	  558.44
     12.7700	  727.00	  727.26	-2174.26	  557.10
     12.8700	  661.00	  715.65	-2228.65	  555.77
     12.9700	  681.00	  707.65	-2200.65	  554.45
     13.0700	  657.00	  702.13	-2219.13	  553.14
     13.1700	  748.00	  698.14	-2124.14	  551.84
     13.2700	  693.00	  695.05	-2176.05	  550.55
     13.3700	  662.00	  692.48	-2204.48	  549.28
     13.4700	  672.00	  690.24	-2192.24	  548.01
     13.5700	  681.00	  688.23	-2181.23	  546.75
     13.6700	  662.00	  686.38	-2198.38	  545.51
     13.7700	  653.00	  684.66	-2205.66	  544.28
     13.8700	  679.00	  683.03	-2178.03	  543.05
     13.9700	  755.00	  681.48	-2100.48	  541.84
     14.0700	  700.00	  679.99	-2153.99	  540.63
     14.1700	  641.00	  678.56	-2211.56	  539.44
     14.2700	  684.00	  677.17	-2167.17	  538.26
     14.3700	  633.00	  675.82	-2216.82	  537.09
     14.4700	  659.00	  674.50	-2189.50	  535.92
     14.5700	  683.00	  673.22	-2164.22	  534.77
     14.6700	  631.00	  671.96	-2214.96	  533.63
     14.7700	  683.00	  670.72	-2161.72	  532.50
     14.8700	  628.00	  669.50	-2215.50	  531.37
     14.9700	  602.00	  668.31	-2240.31	  530.26
     15.0700	  621.00	  667.13	-2220.13	  529.16
     15.1700	  671.00	  665.97	-2168.97	  528.07
     15.2700	  695.00	  664.83	-2143.83	  526.98
     15.3700	  637.00	  663.70	-2200.70	  525.91
     15.4700	  667.00	  662.59	-2169.59	  524.84
     15.5700	  672.00	  661.49	-2163.49	  523.79
     15.6700	  621.00	  660.40	-2213.40	  522.75
     15.7700	  714.00	  659.33	-2119.33	  521.71
     15.8700	  596.00	  658.27	-2236.27	  520.68
     15.9700	  640.00	  657.22	-2191.22	  519.67
     16.0700	  705.00	  656.18	-2125.18	  518.66
     16.1700	  653.00	  655.16	-2176.16	  517.66
     16.2700	  679.00	  654.15	-2149.15	  516.67
     16.3700	  653.00	  653.14	-2174.14	  515.69
     16.4700	  646.00	  652.15	-2180.15	  514.72
     16.5700	  683.00	  651.17	-2142.17	  513.76
     16.6700	  608.00	  650.20	-2216.20	  512.81
     16.7700	  610.00	  649.24	-2213.24	  511.86
     16.8700	  705.00	  648.29	-2117.29	  510.93
     16.9700	  597.00	  647.35	-2224.35	  510.00
     17.0700	  662.00	  646.42	-2158.42	  509.08
     17.1700	  639.00	  645.50	-2180.50	  508.18
     17.2700	  659.00	  644.59	-2159.59	  507.28
     17.3700	  671.00	  643.69	-2146.69	  506.39
     17.4700	  639.00	  642.79	-2177.79	  505.50
     17.5700	  632.00	  641.91	-2183.91	  504.63
     17.6700	  630.00	  641.04	-2185.04	  503.76
     17.7700	  635.00	  640.17	-2179.17	  502.91
     17.8700	  669.00	  639.32	-2144.32	  502.06
     17.9700	  642.00	  638.47	-2170.47	  501.22
     18.0700	  643.00	  637.63	-2168.63	  500.39
     18.1700	  654.00	  636.80	-2156.80	  499.56
     18.2700	  597.00	  635.98	-2212.98	  498.75
     18.3700	  675.00	  635.17	-2134.17	  497.94
     18.4700	  634.00	  634.37	-2174.37	  497.14
     18.5700	  612.00	  633.57	-2195.57	  496.35
     18.6700	  628.00	  632.79	-2178.79	  495.57
     18.7700	  603.00	  632.01	-2203.01	  494.79
     18.8700	  636.00	  631.24	-2169.24	  494.02
     18.9700	  670.00	  630.48	-2134.48	  493.26
     19.0700	  630.00	  630.91	-2174.91	  492.51
     19.1700	  629.00	  632.20	-2177.20	  491.77
     19.2700	  621.00	  631.53	-2184.53	  491.03
     19.3700	  643.00	  630.88	-2161.88	  490.31
     19.4700	  644.00	  630.23	-2160.23	  489.59
     19.5700	  689.00	  629.59	-2114.59	  488.87
     19.6700	  630.00	  628.97	-2172.97	  488.17
     19.7700	  628.00	  628.35	-2174.35	  487.47
     19.8700	  635.00	  627.75	-2166.75	  486.78
     19.9700	  613.00	  627.16	-2188.16	  486.10
     20.0700	  625.00	  626.57	-2175.57	  485.42
     20.1700	  643.00	  626.00	-2157.00	  484.75
     20.2700	  626.00	  625.50	-2173.50	  484.09
     20.3700	  624.00	  624.95	-2174.95	  483.44
     20.4700	  616.00	  624.42	-2182.42	  482.79
     20.5700	  637.00	  623.89	-2160.89	  482.15
     20.6700	  645.00	  623.38	-2152.38	  481.52
     20.7700	  664.00	  622.88	-2132.88	  480.90
     20.8700	  620.00	  622.39	-2176.39	  480.28
     20.9700	  609.00	  621.92	-2186.92	  479.67
     21.0700	  608.00	  621.45	-2187.45	  479.06
     21.1700	  622.00	  621.01	-2173.01	  478.47
     21.2700	  671.00	  620.57	-2123.57	  477.88
     21.3700	  610.00	  620.15	-2184.15	  477.29
     21.4700	  605.00	  619.74	-2188.74	  476.72
     21.5700	  594.00	  619.35	-2199.35	  476.15
     21.6700	  597.00	  618.97	-2195.97	  475.59
     21.7700	  634.00	  618.61	-2158.61	  475.03
     21.8700	  612.00	  618.27	-2180.27	  474.48
     21.9700	  636.00	  617.94	-2155.94	  473.94
     22.0700	  591.00	  617.64	-2200.64	  473.40
     22.1700	  659.00	  617.35	-2132.35	  472.87
     22.2700	  622.00	  617.08	-2169.08	  472.35
     22.3700	  656.00	  617.04	-2135.04	  471.83
     22.4700	  637.00	  616.82	-2153.82	  471.32
     22.5700	  594.00	  616.63	-2196.63	  470.81
     22.6700	  611.00	  616.46	-2179.46	  470.31
     22.7700	  604.00	  616.32	-2186.31	  469.82
     22.8700	  625.00	  616.21	-2165.21	  469.34
     22.9700	  657.00	  616.13	-2133.13	  468.86
     23.0700	  609.00	  616.09	-2181.09	  468.38
     23.1700	  585.00	  616.10	-2205.10	  467.92
     23.2700	  650.00	  616.15	-2140.15	  467.45
     23.3700	  607.00	  616.26	-2183.26	  467.00
     23.4700	  609.00	  616.43	-2181.43	  466.55
     23.5700	  661.00	  616.67	-2129.67	  466.10
     23.6700	  614.00	  617.01	-2177.01	  465.67
     23.7700	  659.00	  617.47	-2132.47	  465.24
     23.8700	  591.00	  618.10	-2201.10	  464.81
     23.9700	  611.00	  618.93	-2181.93	  464.39
     24.0700	  595.00	  620.10	-2199.10	  463.97
     24.1700	  589.00	  621.77	-2206.77	  463.56
     24.2700	  613.00	  624.20	-2185.20	  463.16
     24.3700	  627.00	  627.76	-2174.76	  462.76
     24.4700	  683.00	  632.85	-2123.85	  462.37
     24.5700	  621.00	  639.74	-2192.74	  461.98
     24.6700	  659.00	  648.56	-2163.56	  461.60
     24.7700	  659.00	  658.77	-2173.77	  461.23
     24.8700	  690.00	  669.05	-2153.05	  460.86
     24.9700	  721.00	  676.91	-2129.91	  460.49
     25.0700	  703.00	  679.06	-2150.06	  460.13
     25.1700	  722.00	  673.78	-2125.78	  459.78
     25.2700	  708.00	  663.78	-2129.78	  459.43
     25.3700	  722.00	  653.65	-2105.65	  459.09
     25.4700	  644.00	  645.75	-2175.75	  458.75
     25.5700	  632.00	  640.67	-2182.67	  458.41
     25.6700	  680.00	  638.02	-2132.02	  458.08
     25.7700	  702.00	  637.20	-2109.20	  457.76
     25.8700	  621.00	  637.65	-2190.65	  457.44
     25.9700	  652.00	  639.00	-2161.00	  457.13
     26.0700	  589.00	  641.04	-2226.04	  456.82
     26.1700	  681.00	  643.68	-2136.68	  456.52
     26.2700	  605.00	  646.94	-2215.94	  456.22
     26.3700	  638.00	  650.85	-2186.85	  455.93
     26.4700	  664.00	  655.49	-2165.49	  455.64
     26.5700	  673.00	  660.98	-2161.98	  455.35
     26.6700	  667.00	  667.48	-2174.48	  455.07
     26.7700	  659.00	  675.21	-2190.21	  454.80
     26.8700	  672.00	  684.44	-2186.44	  454.53
     26.9700	  654.00	  695.56	-2215.56	  454.26
     27.0700	  690.00	  709.09	-2193.09	  454.00
     27.1700	  701.00	  725.76	-2198.76	  453.75
     27.2700	  684.00	  746.62	-2236.62	  453.49
     27.3700	  677.00	  773.35	-2270.35	  453.25
     27.4700	  705.00	  808.99	-2277.99	  453.00
     27.5700	  838.00	  860.08	-2196.08	  452.77
     27.6700	  837.00	  941.07	-2278.07	  452.53
     27.7700	  877.00	 1081.91	-2378.91	  452.30
     27.8700	 1075.00	 1337.18	-2436.18	  452.08
     27.9700	 1326.00	 1791.44	-2639.44	  451.86
     28.0700	 1918.00	 2547.96	-2803.96	  451.64
     28.1700	 3324.00	 3683.14	-2533.14	  451.43
     28.2700	 5398.00	 5152.91	-1928.91	  451.22
     28.3700	 7318.00	 6662.79	-1518.79	  451.01
     28.4700	 8696.00	 7614.47	-1092.47	  450.81
     28.5700	 8016.00	 7373.71	-1531.71	  450.62
     28.6700	 6116.00	 6082.63	-2140.63	  450.43
     28.7700	 4370.00	 4712.54	-2516.54	  450.24
     28.8700	 3724.00	 3942.30	-2392.30	  450.06
     28.9700	 3815.00	 3856.04	-2215.04	  449.88
     29.0700	 4448.00	 4159.52	-1885.52	  449.70
     29.1700	 4683.00	 4394.42	-1885.42	  449.53
     29.2700	 4378.00	 4148.94	-1944.94	  449.36
     29.3700	 3470.00	 3397.24	-2101.24	  449.19
     29.4700	 2371.00	 2515.78	-2318.78	  449.03
     29.5700	 1594.00	 1803.24	-2383.24	  448.88
     29.6700	 1287.00	 1336.68	-2223.68	  448.72
     29.7700	 1100.00	 1071.25	-2145.25	  448.57
     29.8700	  931.00	  929.79	-2172.79	  448.43
     29.9700	  857.00	  851.62	-2168.62	  448.29
     30.0700	  789.00	  803.19	-2188.19	  448.15
     30.1700	  775.00	  769.63	-2168.63	  448.01
     30.2700	  776.00	  744.95	-2142.95	  447.88
     30.3700	  705.00	  726.65	-2195.65	  447.75
     30.4700	  726.00	  713.81	-2161.81	  447.63
     30.5700	  742.00	  706.55	-2138.55	  447.51
     30.6700	  726.00	  705.92	-2153.92	  447.39
     30.7700	  719.00	  713.47	-2168.47	  447.28
     30.8700	  749.00	  730.13	-2155.13	  447.17
     30.9700	  819.00	  754.38	-2109.38	  447.06
     31.0700	  782.00	  780.60	-2172.60	  446.95
     31.1700	  819.00	  798.30	-2153.30	  446.85
     31.2700	  779.00	  794.86	-2189.86	  446.76
     31.3700	  757.00	  766.94	-2183.94	  446.66
     31.4700	  722.00	  727.62	-2179.62	  446.57
     31.5700	  741.00	  691.51	-2124.51	  446.48
     31.6700	  712.00	  664.66	-2126.66	  446.40
     31.7700	  674.00	  647.13	-2147.13	  446.31
     31.8700	  675.00	  636.46	-2135.46	  446.23
     31.9700	  644.00	  629.98	-2159.98	  446.16
     32.0700	  680.00	  625.79	-2119.79	  446.09
     32.1700	  639.00	  622.83	-2157.83	  446.02
     32.2700	  637.00	  620.61	-2157.61	  445.95
     32.3700	  667.00	  618.94	-2125.94	  445.88
     32.4700	  641.00	  617.69	-2150.69	  445.82
     32.5700	  615.00	  616.84	-2175.84	  445.76
     32.6700	  621.00	  616.36	-2169.36	  445.71
     32.7700	  614.00	  616.29	-2176.29	  445.66
     32.8700	  649.00	  616.60	-2141.60	  445.61
     32.9700	  616.00	  617.37	-2175.37	  445.56
     33.0700	  646.00	  618.70	-2146.70	  445.51
     33.1700	  650.00	  620.73	-2144.73	  445.47
     33.2700	  617.00	  623.73	-2180.73	  445.43
     33.3700	  645.00	  628.19	-2157.19	  445.40
     33.4700	  708.00	  635.11	-2101.11	  445.36
     33.5700	  683.00	  646.37	-2137.37	  445.33
     33.6700	  659.00	  665.37	-2180.37	  445.30
     33.7700	  721.00	  697.37	-2150.37	  445.28
     33.8700	  755.00	  748.96	-2167.96	  445.25
     33.9700	  824.00	  825.47	-2175.47	  445.23
     34.0700	  923.00	  925.82	-2176.82	  445.21
     34.1700	 1129.00	 1036.87	-2081.87	  445.19
     34.2700	 1220.00	 1130.16	-2084.16	  445.18
     34.3700	 1282.00	 1166.12	-2058.12	  445.17
     34.4700	 1242.00	 1119.24	-2051.24	  445.16
     34.5700	 1094.00	 1011.90	-2091.90	  445.15
     34.6700	  929.00	  892.70	-2137.70	  445.15
     34.7700	  793.00	  793.01	-2174.01	  445.14
     34.8700	  716.00	  722.00	-2180.00	  445.14
     34.9700	  729.00	  676.75	-2121.75	  445.15
     35.0700	  711.00	  649.88	-2112.88	  445.15
     35.1700	  675.00	  634.17	-2133.17	  445.16
     35.2700	  660.00	  624.56	-2138.56	  445.16
     35.3700	  640.00	  618.16	-2152.16	  445.17
     35.4700	  637.00	  613.54	-2150.54	  445.19
     35.5700	  623.00	  610.02	-2161.02	  445.20
     35.6700	  607.00	  607.25	-2174.25	  445.22
     35.7700	  605.00	  605.04	-2174.04	  445.24
     35.8700	  638.00	  603.25	-2139.25	  445.26
     35.9700	  627.00	  601.80	-2148.80	  445.28
     36.0700	  627.00	  600.62	-2147.62	  445.30
     36.1700	  600.00	  599.67	-2173.67	  445.33
     36.2700	  609.00	  598.91	-2163.91	  445.36
     36.3700	  620.00	  598.38	-2152.38	  445.39
     36.4700	  635.00	  597.96	-2136.96	  445.42
     36.5700	  613.00	  597.68	-2158.68	  445.45
     36.6700	  635.00	  597.55	-2136.55	  445.49
     36.7700	  594.00	  597.58	-2177.58	  445.52
     36.8700	  620.00	  597.78	-2151.78	  445.56
     36.9700	  561.00	  598.37	-2211.37	  445.60
     37.0700	  638.00	  599.02	-2135.02	  445.65
     37.1700	  608.00	  600.00	-2166.00	  445.69
     37.2700	  523.00	  601.96	-2252.96	  445.74
     37.3700	  604.00	  604.15	-2174.15	  445.78
     37.4700	  593.00	  607.49	-2188.49	  445.83
     37.5700	  639.00	  612.70	-2147.70	  445.88
     37.6700	  592.00	  620.87	-2202.87	  445.93
     37.7700	  691.00	  633.46	-2116.46	  445.99
     37.8700	  589.00	  652.05	-2237.05	  446.04
     37.9700	  656.00	  677.53	-2195.53	  446.10
     38.0700	  712.00	  707.08	-2169.08	  446.16
     38.1700	  733.00	  740.65	-2181.65	  446.22
     38.2700	  747.00	  768.87	-2195.87	  446.28
     38.3700	  733.00	  781.40	-2222.40	  446.34
     38.4700	  769.00	  770.49	-2175.49	  446.40
     38.5700	  712.00	  740.02	-2202.02	  446.47
     38.6700	  667.00	  702.78	-2209.78	  446.53
     38.7700	  646.00	  669.01	-2197.01	  446.60
     38.8700	  604.00	  642.95	-2212.95	  446.67
     38.9700	  580.00	  624.94	-2218.94	  446.74
     39.0700	  561.00	  613.46	-2226.46	  446.81
     39.1700	  591.00	  606.46	-2189.46	  446.88
     39.2700	  582.00	  602.19	-2194.19	  446.96
     39.3700	  634.00	  599.46	-2139.46	  447.03
     39.4700	  620.00	  597.60	-2151.60	  447.11
     39.5700	  620.00	  595.13	-2149.13	  447.18
     39.6700	  628.00	  594.11	-2140.11	  447.26
     39.7700	  624.00	  593.32	-2143.32	  447.34
     39.8700	  587.00	  592.70	-2179.70	  447.42
     39.9700	  632.00	  592.22	-2134.22	  447.50
     40.0700	  590.00	  591.85	-2175.85	  447.59
     40.1700	  606.00	  591.56	-2159.56	  447.67
     40.2700	  625.00	  591.34	-2140.34	  447.76
     40.3700	  580.00	  591.19	-2185.19	  447.84
     40.4700	  589.00	  591.09	-2176.09	  447.93
     40.5700	  610.00	  591.04	-2155.04	  448.01
     40.6700	  657.00	  591.03	-2108.03	  448.10
     40.7700	  623.00	  591.60	-2142.60	  448.19
     40.8700	  614.00	  591.67	-2151.68	  448.28
     40.9700	  575.00	  591.79	-2190.79	  448.37
     41.0700	  619.00	  591.96	-2146.96	  448.47
     41.1700	  544.00	  592.16	-2222.16	  448.56
     41.2700	  609.00	  592.47	-2157.47	  448.65
     41.3700	  584.00	  592.78	-2182.78	  448.75
     41.4700	  619.00	  593.15	-2148.15	  448.84
     41.5700	  547.00	  593.60	-2220.60	  448.94
     41.6700	  606.00	  594.13	-2162.13	  449.03
     41.7700	  587.00	  594.79	-2181.79	  449.13
     41.8700	  627.00	  595.61	-2142.61	  449.23
     41.9700	  603.00	  596.67	-2167.67	  449.33
     42.0700	  631.00	  598.10	-2141.10	  449.43
     42.1700	  563.00	  600.18	-2211.18	  449.53
     42.2700	  566.00	  603.35	-2211.35	  449.63
     42.3700	  628.00	  608.33	-2154.33	  449.73
     42.4700	  592.00	  615.97	-2197.97	  449.83
     42.5700	  663.00	  627.38	-2138.38	  449.93
     42.6700	  622.00	  643.09	-2195.09	  450.04
     42.7700	  643.00	  662.68	-2193.68	  450.14
     42.8700	  708.00	  683.94	-2149.94	  450.24
     42.9700	  652.00	  702.25	-2224.25	  450.35
     43.0700	  687.00	  711.29	-2198.29	  450.45
     43.1700	  657.00	  706.68	-2223.68	  450.56
     43.2700	  648.00	  690.43	-2216.43	  450.66
     43.3700	  683.00	  669.23	-2160.23	  450.77
     43.4700	  643.00	  648.85	-2179.85	  450.88
     43.5700	  660.00	  632.26	-2146.26	  450.98
     43.6700	  647.00	  620.09	-2147.09	  451.09
     43.7700	  660.00	  611.84	-2125.84	  451.20
     43.8700	  604.00	  606.63	-2176.63	  451.31
     43.9700	  606.00	  603.43	-2171.43	  451.42
     44.0700	  595.00	  601.67	-2180.67	  451.52
     44.1700	  584.00	  600.43	-2190.43	  451.63
     44.2700	  641.00	  599.61	-2132.61	  451.74
     44.3700	  637.00	  599.05	-2136.05	  451.85
     44.4700	  616.00	  598.66	-2156.66	  451.96
     44.5700	  631.00	  598.39	-2141.39	  452.07
     44.6700	  565.00	  598.22	-2207.22	  452.18
     44.7700	  601.00	  598.12	-2171.12	  452.29
     44.8700	  597.00	  598.09	-2175.09	  452.40
     44.9700	  611.00	  598.13	-2161.13	  452.52
     45.0700	  645.00	  598.45	-2127.45	  452.63
     45.1700	  651.00	  598.56	-2121.56	  452.74
     45.2700	  642.00	  598.71	-2130.71	  452.85
     45.3700	  650.00	  598.89	-2122.89	  452.96
     45.4700	  549.00	  599.11	-2224.11	  453.07
     45.5700	  613.00	  599.35	-2160.35	  453.18
     45.6700	  606.00	  599.62	-2167.62	  453.30
     45.7700	  536.00	  600.02	-2238.02	  453.41
     45.8700	  582.00	  600.35	-2192.35	  453.52
     45.9700	  603.00	  600.72	-2171.72	  453.63
     46.0700	  614.00	  601.12	-2161.12	  453.74
     46.1700	  589.00	  601.56	-2186.56	  453.86
     46.2700	  617.00	  602.04	-2159.04	  453.97
     46.3700	  609.00	  602.56	-2167.56	  454.08
     46.4700	  587.00	  603.14	-2190.14	  454.19
     46.5700	  624.00	  603.57	-2153.57	  454.30
     46.6700	  620.00	  604.42	-2158.42	  454.42
     46.7700	  600.00	  605.20	-2179.20	  454.53
     46.8700	  564.00	  606.10	-2216.10	  454.64
     46.9700	  592.00	  607.10	-2189.10	  454.75
     47.0700	  587.00	  608.26	-2195.26	  454.86
     47.1700	  620.00	  609.65	-2163.65	  454.97
     47.2700	  631.00	  611.40	-2154.40	  455.09
     47.3700	  589.00	  613.71	-2198.71	  455.20
     47.4700	  596.00	  616.93	-2194.94	  455.31
     47.5700	  638.00	  621.57	-2157.57	  455.42
     47.6700	  605.00	  628.24	-2197.24	  455.53
     47.7700	  661.00	  637.56	-2150.56	  455.64
     47.8700	  643.00	  649.91	-2180.91	  455.75
     47.9700	  646.00	  665.10	-2193.10	  455.86
     48.0700	  694.00	  681.95	-2161.95	  455.97
     48.1700	  656.00	  697.85	-2215.85	  456.08
     48.2700	  706.00	  708.84	-2176.84	  456.19
     48.3700	  692.00	  711.25	-2193.25	  456.30
     48.4700	  698.00	  704.67	-2180.67	  456.40
     48.5700	  639.00	  692.51	-2227.51	  456.51
     48.6700	  697.00	  679.54	-2156.54	  456.62
     48.7700	  616.00	  667.86	-2225.86	  456.73
     48.8700	  610.00	  659.32	-2223.32	  456.83
     48.9700	  605.00	  654.30	-2223.30	  456.94
     49.0700	  651.00	  652.60	-2175.60	  457.05
     49.1700	  622.00	  653.77	-2205.77	  457.15
     49.2700	  671.00	  657.44	-2160.44	  457.26
     49.3700	  629.00	  663.48	-2208.48	  457.36
     49.4700	  656.00	  672.23	-2190.23	  457.47
     49.5700	  677.00	  685.00	-2182.00	  457.57
     49.6700	  703.00	  705.07	-2176.07	  457.68
     49.7700	  718.00	  739.68	-2195.68	  457.78
     49.8700	  843.00	  802.83	-2133.83	  457.89
     49.9700	 1002.00	  917.51	-2089.51	  457.99
     50.0700	 1171.00	 1114.06	-2117.06	  458.09
     50.1700	 1492.00	 1420.52	-2102.52	  458.19
     50.2700	 1955.00	 1844.48	-2063.48	  458.29
     50.3700	 2480.00	 2350.61	-2044.61	  458.39
     50.4700	 2935.00	 2845.31	-2084.31	  458.49
     50.5700	 3171.00	 3183.23	-2186.23	  458.59
     50.6700	 3099.00	 3225.76	-2300.76	  458.69
     50.7700	 2913.00	 2949.87	-2210.87	  458.79
     50.8700	 2407.00	 2476.60	-2243.60	  458.89
     50.9700	 1813.00	 1963.95	-2324.95	  458.99
     51.0700	 1397.00	 1520.51	-2297.51	  459.09
     51.1700	 1125.00	 1194.17	-2243.17	  459.18
     51.2700	  950.00	  984.47	-2208.47	  459.28
     51.3700	  843.00	  864.86	-2195.86	  459.37
     51.4700	  779.00	  802.50	-2197.50	  459.47
     51.5700	  786.00	  770.29	-2158.29	  459.56
     51.6700	  760.00	  750.62	-2164.62	  459.65
     51.7700	  736.00	  734.97	-2172.97	  459.75
     51.8700	  743.00	  720.81	-2151.81	  459.84
     51.9700	  700.00	  708.41	-2182.41	  459.93
     52.0700	  688.00	  698.41	-2184.41	  460.02
     52.1700	  736.00	  690.89	-2128.89	  460.11
     52.2700	  721.00	  685.42	-2138.42	  460.20
     52.3700	  729.00	  681.22	-2126.22	  460.29
     52.4700	  697.00	  677.67	-2154.67	  460.38
     52.5700	  709.00	  674.83	-2139.83	  460.47
     52.6700	  727.00	  673.23	-2120.23	  460.55
     52.7700	  638.00	  673.55	-2209.55	  460.64
     52.8700	  653.00	  676.61	-2197.61	  460.72
     52.9700	  679.00	  683.53	-2178.53	  460.81
     53.0700	  658.00	  695.96	-2211.96	  460.89
     53.1700	  697.00	  716.30	-2193.30	  460.97
     53.2700	  767.00	  747.57	-2154.57	  461.06
     53.3700	  779.00	  793.01	-2188.01	  461.14
     53.4700	  797.00	  855.12	-2232.12	  461.22
     53.5700	  946.00	  934.34	-2162.34	  461.30
     53.6700	  975.00	 1027.45	-2226.45	  461.38
     53.7700	 1169.00	 1125.33	-2130.33	  461.46
     53.8700	 1190.00	 1211.77	-2195.77	  461.53
     53.9700	 1224.00	 1264.59	-2214.59	  461.61
     54.0700	 1308.00	 1265.55	-2131.55	  461.69
     54.1700	 1190.00	 1214.12	-2198.12	  461.76
     54.2700	 1162.00	 1128.32	-2140.32	  461.84
     54.3700	 1006.00	 1030.88	-2198.88	  461.91
     54.4700	  913.00	  938.38	-2199.38	  461.98
     54.5700	  829.00	  859.78	-2204.78	  462.05
     54.6700	  764.00	  798.34	-2208.34	  462.12
     54.7700	  767.00	  753.59	-2160.59	  462.19
     54.8700	  706.00	  722.94	-2190.94	  462.26
     54.9700	  685.00	  703.04	-2192.04	  462.33
     55.0700	  647.00	  690.71	-2217.71	  462.40
     55.1700	  672.00	  683.44	-2185.44	  462.47
     55.2700	  650.00	  679.48	-2203.48	  462.53
     55.3700	  708.00	  677.76	-2143.76	  462.60
     55.4700	  707.00	  677.69	-2144.69	  462.66
     55.5700	  662.00	  678.99	-2190.99	  462.72
     55.6700	  667.00	  681.56	-2188.56	  462.78
     55.7700	  678.00	  685.45	-2181.45	  462.85
     55.8700	  672.00	  690.84	-2192.84	  462.91
     55.9700	  667.00	  698.10	-2205.10	  462.96
     56.0700	  671.00	  707.97	-2210.97	  463.02
     56.1700	  772.00	  721.84	-2123.84	  463.08
     56.2700	  738.00	  742.32	-2178.32	  463.14
     56.3700	  761.00	  774.00	-2187.00	  463.19
     56.4700	  813.00	  824.25	-2185.25	  463.25
     56.5700	  873.00	  903.64	-2204.64	  463.30
     56.6700	  980.00	 1025.07	-2219.07	  463.35
     56.7700	 1164.00	 1201.34	-2211.34	  463.40
     56.8700	 1438.00	 1440.33	-2176.33	  463.45
     56.9700	 1794.00	 1739.17	-2119.17	  463.50
     57.0700	 2274.00	 2077.64	-1977.64	  463.55
     57.1700	 2432.00	 2412.91	-2154.91	  463.60
     57.2700	 2707.00	 2677.81	-2144.81	  463.64
     57.3700	 2854.00	 2795.92	-2115.92	  463.69
     57.4700	 2616.00	 2724.46	-2282.46	  463.73
     57.5700	 2353.00	 2489.82	-2310.82	  463.78
     57.6700	 2159.00	 2165.68	-2180.68	  463.82
     57.7700	 1783.00	 1824.81	-2215.81	  463.86
     57.8700	 1441.00	 1516.36	-2249.36	  463.90
     57.9700	 1156.00	 1265.38	-2283.38	  463.94
     58.0700	 1034.00	 1078.61	-2218.61	  463.98
     58.1700	  881.00	  950.65	-2243.65	  464.02
     58.2700	  821.00	  870.40	-2223.40	  464.05
     58.3700	  813.00	  826.41	-2187.41	  464.09
     58.4700	  736.00	  810.19	-2248.19	  464.12
     58.5700	  819.00	  817.17	-2172.17	  464.15
     58.6700	  863.00	  845.85	-2156.85	  464.19
     58.7700	  876.00	  896.17	-2194.17	  464.22
     58.8700	  956.00	  967.01	-2185.01	  464.25
     58.9700	 1063.00	 1054.12	-2165.12	  464.27
     59.0700	 1092.00	 1148.72	-2230.72	  464.30
     59.1700	 1232.00	 1237.73	-2179.73	  464.33
     59.2700	 1258.00	 1308.34	-2224.34	  464.35
     59.3700	 1312.00	 1354.29	-2216.29	  464.38
     59.4700	 1359.00	 1375.21	-2190.21	  464.40
     59.5700	 1363.00	 1370.59	-2181.59	  464.42
     59.6700	 1316.00	 1340.78	-2198.78	  464.45
     59.7700	 1369.00	 1293.80	-2098.80	  464.47
     59.8700	 1285.00	 1244.98	-2133.98	  464.48
     59.9700	 1250.00	 1209.09	-2133.09	  464.50
     60.0700	 1280.00	 1195.90	-2089.90	  464.52
     60.1700	 1320.00	 1211.05	-2065.05	  464.53
     60.2700	 1392.00	 1257.82	-2039.82	  464.55
     60.3700	 1458.00	 1335.98	-2051.98	  464.56
     60.4700	 1480.00	 1437.92	-2131.92	  464.57
     60.5700	 1664.00	 1545.79	-2055.79	  464.58
     60.6700	 1637.00	 1631.53	-2168.53	  464.59
     60.7700	 1676.00	 1663.46	-2161.46	  464.60
     60.8700	 1561.00	 1622.27	-2235.27	  464.61
     60.9700	 1508.00	 1515.28	-2181.28	  464.62
     61.0700	 1295.00	 1370.11	-2249.11	  464.62
     61.1700	 1180.00	 1216.54	-2210.54	  464.63
     61.2700	 1047.00	 1076.56	-2203.56	  464.63
     61.3700	  964.00	  962.76	-2172.76	  464.63
     61.4700	  865.00	  879.93	-2188.93	  464.63
     61.5700	  867.00	  827.53	-2134.53	  464.63
     61.6700	  901.00	  802.84	-2075.84	  464.63
     61.7700	  814.00	  803.67	-2163.67	  464.63
     61.8700	  863.00	  830.07	-2141.07	  464.63
     61.9700	  876.00	  884.55	-2182.55	  464.62
     62.0700	 1042.00	  970.78	-2102.78	  464.62
     62.1700	 1124.00	 1091.18	-2141.18	  464.61
     62.2700	 1268.00	 1243.78	-2149.78	  464.60
     62.3700	 1475.00	 1419.37	-2118.37	  464.59
     62.4700	 1626.00	 1599.30	-2147.30	  464.58
     62.5700	 1740.00	 1754.49	-2188.49	  464.57
     62.6700	 1782.00	 1849.36	-2241.36	  464.56
     62.7700	 1850.00	 1855.52	-2179.52	  464.54
     62.8700	 1740.00	 1770.47	-2204.47	  464.53
     62.9700	 1543.00	 1619.77	-2250.77	  464.51
     63.0700	 1463.00	 1439.33	-2150.33	  464.49
     63.1700	 1220.00	 1259.47	-2213.47	  464.47
     63.2700	 1062.00	 1100.20	-2212.20	  464.45
     63.3700	  876.00	  971.57	-2269.57	  464.43
     63.4700	  853.00	  875.72	-2196.72	  464.41
     63.5700	  813.00	  809.41	-2170.41	  464.39
     63.6700	  863.00	  766.66	-2077.66	  464.36
     63.7700	  739.00	  741.21	-2176.21	  464.34
     63.8700	  743.00	  727.91	-2158.91	  464.31
     63.9700	  794.00	  723.36	-2103.36	  464.28
     64.0700	  693.00	  726.03	-2207.03	  464.25
     64.1700	  715.00	  735.68	-2194.68	  464.22
     64.2700	  741.00	  754.93	-2187.93	  464.19
     64.3700	  765.00	  786.10	-2195.10	  464.16
     64.4700	  827.00	  832.75	-2179.75	  464.13
     64.5700	  881.00	  898.47	-2191.47	  464.09
     64.6700	 1013.00	  985.82	-2146.82	  464.06
     64.7700	 1148.00	 1094.97	-2120.97	  464.02
     64.8700	 1175.00	 1222.22	-2221.22	  463.98
     64.9700	 1351.00	 1358.42	-2181.42	  463.94
     65.0700	 1490.00	 1488.52	-2172.52	  463.90
     65.1700	 1561.00	 1593.01	-2206.01	  463.86
     65.2700	 1631.00	 1652.69	-2195.69	  463.82
     65.3700	 1639.00	 1654.90	-2189.90	  463.77
     65.4700	 1560.00	 1598.57	-2212.57	  463.73
     65.5700	 1427.00	 1496.90	-2243.90	  463.68
     65.6700	 1356.00	 1371.03	-2189.03	  463.63
     65.7700	 1201.00	 1240.42	-2213.42	  463.58
     65.8700	 1075.00	 1119.25	-2218.25	  463.53
     65.9700	  930.00	 1014.93	-2258.93	  463.48
     66.0700	  912.00	  930.02	-2192.02	  463.43
     66.1700	  869.00	  863.86	-2168.86	  463.38
     66.2700	  779.00	  814.21	-2209.21	  463.32
     66.3700	  755.00	  778.00	-2197.00	  463.27
     66.4700	  706.00	  752.22	-2220.22	  463.21
     66.5700	  699.00	  734.20	-2209.20	  463.15
     66.6700	  703.00	  721.88	-2192.88	  463.09
     66.7700	  697.00	  713.81	-2190.81	  463.03
     66.8700	  701.00	  709.09	-2182.09	  462.97
     66.9700	  689.00	  707.22	-2192.22	  462.91
     67.0700	  676.00	  708.01	-2206.01	  462.85
     67.1700	  715.00	  711.72	-2170.72	  462.78
     67.2700	  723.00	  718.80	-2169.80	  462.72
     67.3700	  701.00	  730.63	-2203.63	  462.65
     67.4700	  760.00	  749.55	-2163.55	  462.58
     67.5700	  835.00	  778.89	-2117.89	  462.51
     67.6700	  851.00	  823.74	-2146.74	  462.44
     67.7700	  951.00	  890.46	-2113.46	  462.37
     67.8700	 1007.00	  986.17	-2153.17	  462.30
     67.9700	 1099.00	 1117.54	-2192.54	  462.23
     68.0700	 1345.00	 1288.73	-2117.73	  462.15
     68.1700	 1534.00	 1499.44	-2139.44	  462.07
     68.2700	 1806.00	 1742.36	-2110.36	  462.00
     68.3700	 2052.00	 2001.39	-2123.39	  461.92
     68.4700	 2253.00	 2250.16	-2171.16	  461.84
     68.5700	 2466.00	 2452.43	-2160.43	  461.76
     68.6700	 2449.00	 2567.99	-2292.99	  461.68
     68.7700	 2620.00	 2568.14	-2122.14	  461.60
     68.8700	 2384.00	 2452.74	-2242.74	  461.51
     68.9700	 2221.00	 2250.32	-2203.32	  461.43
     69.0700	 2034.00	 2001.16	-2141.16	  461.34
     69.1700	 1725.00	 1741.59	-2190.59	  461.26
     69.2700	 1480.00	 1498.03	-2192.03	  461.17
     69.3700	 1345.00	 1286.64	-2115.64	  461.08
     69.4700	 1119.00	 1114.70	-2169.70	  460.99
     69.5700	 1035.00	  982.60	-2121.60	  460.90
     69.6700	  953.00	  886.09	-2107.09	  460.81
     69.7700	  855.00	  818.53	-2137.53	  460.71
     69.8700	  809.00	  772.74	-2137.74	  460.62
     69.9700	  814.00	  742.32	-2102.32	  460.52
     70.0700	  796.00	  722.19	-2100.19	  460.43
     70.1700	  761.00	  708.73	-2121.73	  460.33
     70.2700	  737.00	  699.55	-2136.55	  460.23
     70.3700	  729.00	  693.16	-2138.16	  460.13
     70.4700	  737.00	  688.70	-2125.70	  460.03
     70.5700	  699.00	  685.71	-2160.71	  459.93
     70.6700	  724.00	  683.91	-2133.91	  459.83
     70.7700	  745.00	  683.23	-2112.23	  459.72
     70.8700	  732.00	  683.69	-2125.69	  459.62
     70.9700	  696.00	  685.44	-2163.44	  459.51
     71.0700	  699.00	  688.83	-2163.83	  459.41
     71.1700	  736.00	  694.44	-2132.44	  459.30
     71.2700	  687.00	  703.10	-2190.10	  459.19
     71.3700	  687.00	  716.75	-2203.75	  459.08
     71.4700	  727.00	  737.46	-2184.46	  458.97
     71.5700	  778.00	  768.31	-2164.31	  458.86
     71.6700	  828.00	  813.07	-2159.07	  458.75
     71.7700	  857.00	  875.91	-2192.91	  458.63
     71.8700	 1028.00	  960.82	-2106.82	  458.52
     71.9700	 1091.00	 1070.62	-2153.62	  458.40
     72.0700	 1268.00	 1205.83	-2111.83	  458.29
     72.1700	 1387.00	 1363.53	-2150.53	  458.17
     72.2700	 1527.00	 1536.41	-2183.41	  458.05
     72.3700	 1683.00	 1711.86	-2202.86	  457.93
     72.4700	 1866.00	 1871.52	-2179.52	  457.81
     72.5700	 1934.00	 1992.38	-2232.38	  457.69
     72.6700	 1980.00	 2051.63	-2245.63	  457.57
     72.7700	 1908.00	 2036.00	-2302.00	  457.44
     72.8700	 1902.00	 1949.06	-2221.06	  457.32
     72.9700	 1859.00	 1809.19	-2124.19	  457.19
     73.0700	 1598.00	 1640.91	-2216.91	  457.07
     73.1700	 1392.00	 1464.25	-2246.25	  456.94
     73.2700	 1251.00	 1295.85	-2218.85	  456.81
     73.3700	 1117.00	 1146.00	-2203.00	  456.68
     73.4700	 1011.00	 1020.08	-2183.08	  456.55
     73.5700	  896.00	  919.40	-2197.40	  456.42
     73.6700	  839.00	  842.38	-2177.38	  456.29
     73.7700	  796.00	  785.65	-2163.65	  456.16
     73.8700	  748.00	  745.16	-2171.16	  456.02
     73.9700	  768.00	  716.92	-2122.92	  455.89
     74.0700	  763.00	  697.53	-2108.53	  455.75
     74.1700	  683.00	  683.82	-2174.81	  455.62
     74.2700	  672.00	  674.94	-2176.94	  455.48
     74.3700	  653.00	  669.13	-2190.13	  455.34
     74.4700	  665.00	  665.60	-2174.60	  455.21
     74.5700	  705.00	  663.88	-2132.88	  455.07
     74.6700	  635.00	  663.62	-2202.62	  454.93
     74.7700	  656.00	  664.56	-2182.56	  454.78
     74.8700	  741.00	  666.42	-2099.42	  454.64
     74.9700	  640.00	  668.79	-2202.79	  454.50
     75.0700	  688.00	  671.34	-2157.34	  454.36
     75.1700	  727.00	  673.50	-2120.50	  454.21
     75.2700	  691.00	  674.72	-2157.72	  454.07
     75.3700	  734.00	  674.63	-2114.63	  453.92
     75.4700	  676.00	  673.20	-2171.20	  453.77
     75.5700	  684.00	  670.85	-2160.85	  453.63
     75.6700	  691.00	  668.26	-2151.26	  453.48
     75.7700	  709.00	  666.24	-2131.24	  453.33
     75.8700	  660.00	  665.60	-2179.60	  453.18
     75.9700	  744.00	  667.39	-2097.39	  453.03
     76.0700	  679.00	  672.53	-2167.53	  452.88
     76.1700	  676.00	  682.07	-2180.07	  452.72
     76.2700	  680.00	  697.06	-2191.06	  452.57
     76.3700	  694.00	  718.47	-2198.47	  452.42
     76.4700	  719.00	  747.00	-2202.00	  452.26
     76.5700	  812.00	  782.86	-2144.86	  452.11
     76.6700	  827.00	  825.57	-2172.57	  451.95
     76.7700	  862.00	  873.67	-2185.67	  451.79
     76.8700	  954.00	  924.66	-2144.66	  451.64
     76.9700	  952.00	  974.72	-2196.72	  451.48
     77.0700	 1032.00	 1018.80	-2160.80	  451.32
     77.1700	 1045.00	 1050.99	-2179.99	  451.16
     77.2700	 1090.00	 1065.78	-2149.78	  451.00
     77.3700	  985.00	 1060.23	-2249.23	  450.84
     77.4700	 1019.00	 1035.35	-2190.35	  450.68
     77.5700	  932.00	  995.59	-2237.58	  450.51
     77.6700	  925.00	  946.66	-2195.66	  450.35
     77.7700	  894.00	  894.53	-2174.53	  450.19
     77.8700	  847.00	  843.39	-2170.39	  450.02
     77.9700	  796.00	  796.34	-2174.34	  449.86
     78.0700	  789.00	  755.27	-2140.27	  449.69
     78.1700	  736.00	  721.03	-2159.03	  449.53
     78.2700	  702.00	  693.65	-2165.65	  449.36
     78.3700	  652.00	  672.55	-2194.55	  449.19
     78.4700	  624.00	  656.83	-2206.83	  449.02
     78.5700	  702.00	  645.42	-2117.42	  448.86
     78.6700	  660.00	  637.33	-2151.33	  448.69
     78.7700	  595.00	  631.67	-2210.67	  448.52
     78.8700	  664.00	  627.73	-2137.73	  448.35
     78.9700	  606.00	  625.01	-2193.01	  448.18
     79.0700	  635.00	  623.14	-2162.14	  448.00
     79.1700	  605.00	  621.82	-2190.82	  447.83
     79.2700	  655.00	  621.03	-2140.03	  447.66
     79.3700	  628.00	  620.64	-2166.64	  447.49
     79.4700	  595.00	  620.61	-2199.61	  447.31
     79.5700	  628.00	  620.94	-2166.94	  447.14
     79.6700	  636.00	  621.67	-2159.67	  446.96
     79.7700	  633.00	  622.86	-2163.86	  446.79
     79.8700	  608.00	  624.62	-2190.62	  446.61
     79.9700	  628.00	  627.10	-2173.10	  446.44
     80.0700	  638.00	  630.57	-2166.57	  446.26
     80.1700	  607.00	  635.41	-2202.41	  446.08
     80.2700	  686.00	  642.21	-2130.21	  445.90
     80.3700	  671.00	  651.85	-2154.85	  445.73
     80.4700	  674.00	  665.26	-2165.26	  445.55
     80.5700	  685.00	  684.47	-2173.47	  445.37
     80.6700	  747.00	  711.05	-2138.05	  445.19
     80.7700	  779.00	  746.97	-2141.97	  445.01
     80.8700	  774.00	  794.16	-2194.16	  444.83
     80.9700	  897.00	  854.06	-2131.06	  444.65
     81.0700	 1036.00	  927.28	-2065.28	  444.47
     81.1700	 1080.00	 1013.07	-2107.07	  444.28
     81.2700	 1177.00	 1108.88	-2105.88	  444.10
     81.3700	 1316.00	 1210.10	-2068.10	  443.92
     81.4700	 1397.00	 1310.01	-2087.01	  443.74
     81.5700	 1461.00	 1400.28	-2113.28	  443.55
     81.6700	 1471.00	 1472.15	-2175.15	  443.37
     81.7700	 1564.00	 1518.50	-2128.50	  443.19
     81.8700	 1527.00	 1535.48	-2182.48	  443.00
     81.9700	 1466.00	 1522.97	-2230.97	  442.82
     82.0700	 1404.00	 1483.76	-2253.76	  442.63
     82.1700	 1371.00	 1422.99	-2225.99	  442.45
     82.2700	 1272.00	 1347.36	-2249.36	  442.26
     82.3700	 1202.00	 1263.93	-2235.93	  442.08
     82.4700	 1180.00	 1178.89	-2172.89	  441.89
     82.5700	 1089.00	 1097.03	-2182.03	  441.70
     82.6700	 1024.00	 1021.69	-2171.69	  441.52
     82.7700	  873.00	  954.87	-2255.87	  441.33
     82.8700	  901.00	  897.32	-2170.32	  441.14
     82.9700	  789.00	  848.66	-2233.66	  440.95
     83.0700	  759.00	  807.80	-2222.80	  440.77
     83.1700	  736.00	  773.43	-2211.43	  440.58
     83.2700	  764.00	  744.45	-2154.45	  440.39
     83.3700	  695.00	  720.12	-2199.12	  440.20
     83.4700	  654.00	  699.98	-2219.98	  440.01
     83.5700	  683.00	  683.76	-2174.76	  439.82
     83.6700	  619.00	  671.32	-2226.32	  439.63
     83.7700	  627.00	  662.52	-2209.52	  439.45
     83.8700	  702.00	  657.24	-2129.24	  439.26
     83.9700	  618.00	  655.27	-2211.27	  439.07
     84.0700	  607.00	  656.28	-2223.28	  438.88
     84.1700	  619.00	  659.82	-2214.82	  438.69
     84.2700	  633.00	  665.13	-2206.13	  438.50
     84.3700	  666.00	  671.73	-2179.73	  438.31
     84.4700	  707.00	  678.59	-2145.59	  438.12
     84.5700	  623.00	  684.67	-2235.67	  437.92
     84.6700	  641.00	  688.87	-2221.87	  437.73
     84.7700	  667.00	  690.47	-2197.47	  437.54
     84.8700	  700.00	  688.90	-2162.90	  437.35
     84.9700	  598.00	  684.20	-2260.20	  437.16
     85.0700	  681.00	  676.94	-2169.94	  436.97
     85.1700	  652.00	  667.95	-2189.95	  436.78
     85.2700	  633.00	  658.12	-2199.12	  436.59
     85.3700	  667.00	  648.26	-2155.26	  436.40
     85.4700	  629.00	  639.02	-2184.02	  436.21
     85.5700	  617.00	  630.89	-2187.89	  436.01
     85.6700	  642.00	  624.23	-2156.23	  435.82
     85.7700	  636.00	  619.24	-2157.24	  435.63
     85.8700	  636.00	  616.04	-2154.04	  435.44
     85.9700	  628.00	  614.67	-2160.67	  435.25
     86.0700	  607.00	  615.13	-2182.13	  435.06
     86.1700	  614.00	  617.40	-2177.40	  434.87
     86.2700	  635.00	  621.42	-2160.42	  434.68
     86.3700	  588.00	  627.13	-2213.13	  434.48
     86.4700	  648.00	  634.41	-2160.41	  434.29
     86.5700	  639.00	  643.09	-2178.09	  434.10
     86.6700	  573.00	  652.90	-2253.90	  433.91
     86.7700	  644.00	  663.50	-2193.50	  433.72
     86.8700	  684.00	  674.45	-2164.45	  433.53
     86.9700	  644.00	  685.24	-2215.24	  433.34
     87.0700	  666.00	  695.31	-2203.31	  433.15
     87.1700	  731.00	  704.19	-2147.19	  432.96
     87.2700	  717.00	  711.65	-2168.65	  432.77
     87.3700	  695.00	  717.84	-2196.84	  432.58
     87.4700	  697.00	  723.17	-2200.17	  432.39
     87.5700	  712.00	  728.16	-2190.16	  432.20
     87.6700	  737.00	  733.24	-2170.24	  432.01
     87.7700	  808.00	  738.65	-2104.65	  431.82
     87.8700	  727.00	  744.30	-2191.30	  431.63
     87.9700	  779.00	  749.79	-2144.79	  431.44
     88.0700	  728.00	  754.44	-2200.44	  431.25
     88.1700	  659.00	  757.36	-2272.36	  431.06
     88.2700	  770.00	  757.63	-2161.63	  430.87
     88.3700	  784.00	  754.59	-2144.59	  430.68
     88.4700	  750.00	  748.07	-2172.07	  430.50
     88.5700	  719.00	  738.47	-2193.47	  430.31
     88.6700	  767.00	  726.56	-2133.56	  430.12
     88.7700	  712.00	  713.28	-2175.28	  429.93
     88.8700	  681.00	  699.55	-2192.55	  429.75
     88.9700	  684.00	  685.79	-2175.79	  429.56
     89.0700	  730.00	  673.56	-2117.56	  429.37
     89.1700	  686.00	  662.97	-2150.97	  429.19
     89.2700	  683.00	  654.39	-2145.39	  429.00
     89.3700	  640.00	  648.01	-2182.01	  428.82
     89.4700	  647.00	  643.85	-2170.85	  428.63
     89.5700	  636.00	  641.76	-2179.76	  428.45
     89.6700	  678.00	  641.47	-2137.47	  428.26
     89.7700	  671.00	  642.56	-2145.56	  428.08
     89.8700	  694.00	  644.54	-2124.54	  427.89
     89.9700	  717.00	  646.84	-2103.84	  427.71
     90.0700	  702.00	  648.86	-2120.86	  427.53
     90.1700	  690.00	  650.04	-2134.04	  427.35
     90.2700	  640.00	  649.93	-2183.93	  427.16
     90.3700	  727.00	  648.29	-2095.29	  426.98
     90.4700	  667.00	  645.13	-2152.13	  426.80
     90.5700	  672.00	  640.72	-2142.72	  426.62
     90.6700	  622.00	  635.41	-2187.41	  426.44
     90.7700	  678.00	  629.61	-2125.61	  426.26
     90.8700	  645.00	  623.70	-2152.70	  426.08
     90.9700	  572.00	  617.97	-2219.97	  425.90
     91.0700	  632.00	  612.68	-2154.68	  425.72
     91.1700	  640.00	  607.98	-2141.98	  425.54
     91.2700	  689.00	  603.97	-2088.97	  425.37
     91.3700	  574.00	  600.70	-2200.70	  425.19
     91.4700	  565.00	  598.15	-2207.15	  425.01
     91.5700	  605.00	  596.28	-2165.28	  424.84
     91.6700	  568.00	  595.04	-2201.04	  424.66
     91.7700	  597.00	  594.37	-2171.37	  424.49
     91.8700	  593.00	  594.22	-2175.22	  424.32
     91.9700	  658.00	  594.59	-2110.59	  424.14
     92.0700	  620.00	  595.47	-2149.47	  423.97
     92.1700	  562.00	  596.91	-2208.91	  423.80
     92.2700	  609.00	  599.02	-2164.02	  423.63
     92.3700	  628.00	  601.92	-2147.92	  423.45
     92.4700	  620.00	  605.78	-2159.78	  423.28
     92.5700	  660.00	  610.81	-2124.81	  423.11
     92.6700	  623.00	  617.25	-2168.25	  422.95
     92.7700	  618.00	  625.32	-2181.31	  422.78
     92.8700	  632.00	  635.23	-2177.23	  422.61
     92.9700	  662.00	  647.17	-2159.17	  422.44
     93.0700	  699.00	  661.24	-2136.24	  422.28
     93.1700	  711.00	  677.44	-2140.44	  422.11
     93.2700	  664.00	  695.67	-2205.67	  421.95
     93.3700	  639.00	  715.68	-2250.68	  421.78
     93.4700	  702.00	  737.07	-2209.07	  421.62
     93.5700	  718.00	  759.27	-2215.27	  421.46
     93.6700	  795.00	  781.59	-2160.59	  421.29
     93.7700	  770.00	  803.19	-2207.19	  421.13
     93.8700	  763.00	  823.24	-2234.24	  420.97
     93.9700	  783.00	  841.09	-2232.09	  420.81
     94.0700	  805.00	  856.42	-2225.42	  420.66
     94.1700	  814.00	  869.44	-2229.44	  420.50
     94.2700	  858.00	  880.77	-2196.77	  420.34
     94.3700	  884.00	  891.25	-2181.25	  420.18
     94.4700	  956.00	  901.73	-2119.73	  420.03
     94.5700	  913.00	  912.58	-2173.58	  419.87
     94.6700	  943.00	  924.89	-2155.89	  419.72
     94.7700	  909.00	  938.58	-2203.58	  419.57
     94.8700	  953.00	  953.79	-2174.79	  419.42
     94.9700	  966.00	  970.55	-2178.55	  419.27
     95.0700	 1015.00	  988.83	-2147.83	  419.12
     95.1700	 1029.00	 1008.33	-2153.33	  418.97
     95.2700	 1051.00	 1028.36	-2151.36	  418.82
     95.3700	 1030.00	 1047.78	-2191.78	  418.67
     95.4700	 1070.00	 1064.96	-2168.96	  418.52
     95.5700	 1063.00	 1077.97	-2188.97	  418.38
     95.6700	 1058.00	 1084.79	-2200.79	  418.24
     95.7700	 1059.00	 1083.73	-2198.73	  418.09
     95.8700	 1071.00	 1073.85	-2176.85	  417.95
     95.9700	 1045.00	 1055.26	-2184.26	  417.81
     96.0700	 1006.00	 1029.12	-2197.12	  417.67
     96.1700	  969.00	  997.37	-2202.37	  417.53
     96.2700	  914.00	  962.36	-2222.36	  417.39
     96.3700	  934.00	  926.54	-2166.54	  417.25
     96.4700	  982.00	  892.29	-2084.29	  417.12
     96.5700	  854.00	  861.74	-2181.74	  416.98
     96.6700	  874.00	  836.78	-2136.78	  416.85
     96.7700	  853.00	  819.00	-2140.00	  416.72
     96.8700	  846.00	  809.69	-2137.69	  416.58
     96.9700	  858.00	  809.86	-2125.85	  416.45
     97.0700	  831.00	  820.24	-2163.24	  416.32
     97.1700	  875.00	  841.32	-2140.32	  416.20
     97.2700	  972.00	  873.34	-2075.34	  416.07
     97.3700	  941.00	  916.27	-2149.27	  415.94
     97.4700	  990.00	  969.74	-2153.74	  415.82
     97.5700	 1019.00	 1032.99	-2187.99	  415.69
     97.6700	 1117.00	 1104.78	-2161.78	  415.57
     97.7700	 1198.00	 1183.37	-2159.37	  415.45
     97.8700	 1307.00	 1266.39	-2133.39	  415.33
     97.9700	 1558.00	 1350.85	-1966.85	  415.21
     98.0700	 1510.00	 1433.09	-2097.09	  415.09
     98.1700	 1432.00	 1508.90	-2250.90	  414.98
     98.2700	 1560.00	 1573.69	-2187.69	  414.86
     98.3700	 1624.00	 1622.96	-2172.96	  414.75
     98.4700	 1679.00	 1652.89	-2147.89	  414.63
     98.5700	 1544.00	 1661.17	-2291.17	  414.52
     98.6700	 1598.00	 1647.53	-2223.53	  414.41
     98.7700	 1594.00	 1613.75	-2193.75	  414.30
     98.8700	 1548.00	 1563.20	-2189.20	  414.19
     98.9700	 1462.00	 1500.12	-2212.12	  414.09
     99.0700	 1413.00	 1429.01	-2190.01	  413.98
     99.1700	 1302.00	 1354.20	-2226.20	  413.88
     99.2700	 1328.00	 1279.60	-2125.60	  413.78
     99.3700	 1232.00	 1208.62	-2150.62	  413.68
     99.4700	 1122.00	 1144.13	-2196.13	  413.58
     99.5700	 1110.00	 1088.50	-2152.50	  413.48
     99.6700	 1051.00	 1043.64	-2166.64	  413.38
     99.7700	 1035.00	 1011.01	-2150.01	  413.29
     99.8700	  981.00	  991.71	-2184.71	  413.19
     99.9700	 1021.00	  986.52	-2139.52	  413.10
    100.0700	 1044.00	  995.87	-2125.87	  413.01
    100.1700	 1011.00	 1019.93	-2182.93	  412.92
    100.2700	 1106.00	 1058.52	-2126.52	  412.83
    100.3700	 1144.00	 1111.14	-2141.14	  412.75
    100.4700	 1175.00	 1176.91	-2175.91	  412.66
    100.5700	 1278.00	 1254.60	-2150.60	  412.58
    100.6700	 1364.00	 1342.48	-2152.48	  412.49
    100.7700	 1465.00	 1438.34	-2147.34	  412.41
    100.8700	 1525.00	 1539.46	-2188.46	  412.33
    100.9700	 1651.00	 1642.55	-2165.55	  412.26
    101.0700	 1755.00	 1743.87	-2162.87	  412.18
    101.1700	 1765.00	 1839.71	-2248.71	  412.11
    101.2700	 1865.00	 1926.27	-2235.27	  412.03
    101.3700	 2002.00	 2000.45	-2172.45	  411.96
    101.4700	 2024.00	 2060.03	-2210.03	  411.89
    101.5700	 2079.00	 2103.80	-2198.80	  411.82
    101.6700	 2132.00	 2131.19	-2173.19	  411.76
    101.7700	 2158.00	 2142.03	-2158.03	  411.69
    101.8700	 2146.00	 2136.30	-2164.30	  411.63
    101.9700	 2103.00	 2114.13	-2185.13	  411.57
    102.0700	 2118.00	 2076.18	-2132.18	  411.51
    102.1700	 2024.00	 2024.00	-2174.00	  411.45
    102.2700	 2053.00	 1960.17	-2081.17	  411.39
    102.3700	 1968.00	 1888.16	-2094.16	  411.34
    102.4700	 1847.00	 1811.88	-2138.88	  411.28
    102.5700	 1791.00	 1735.13	-2118.13	  411.23
    102.6700	 1649.00	 1661.22	-2186.22	  411.18
    102.7700	 1709.00	 1592.70	-2057.70	  411.13
    102.8700	 1602.00	 1531.27	-2103.27	  411.09
    102.9700	 1559.00	 1477.81	-2092.81	  411.04
    103.0700	 1376.00	 1432.46	-2230.46	  411.00
    103.1700	 1448.00	 1394.63	-2120.63	  410.96
    103.2700	 1317.00	 1363.15	-2220.15	  410.92
    103.3700	 1303.00	 1336.34	-2207.34	  410.88
    103.4700	 1326.00	 1312.18	-2160.18	  410.84
    103.5700	 1266.00	 1288.51	-2196.51	  410.81
    103.6700	 1321.00	 1263.33	-2116.33	  410.78
    103.7700	 1200.00	 1235.06	-2209.06	  410.75
    103.8700	 1176.00	 1202.80	-2200.80	  410.72
    103.9700	 1201.00	 1166.41	-2139.41	  410.69
    104.0700	 1086.00	 1126.36	-2214.36	  410.67
    104.1700	 1034.00	 1083.57	-2223.57	  410.64
    104.2700	 1097.00	 1039.14	-2116.14	  410.62
    104.3700	 1001.00	  994.22	-2167.22	  410.60
    104.4700	  986.00	  949.87	-2137.87	  410.59
    104.5700	  943.00	  907.04	-2138.04	  410.57
    104.6700	  850.00	  866.52	-2190.52	  410.56
    104.7700	  808.00	  828.91	-2194.91	  410.54
    104.8700	  839.00	  794.64	-2129.64	  410.53
    104.9700	  794.00	  763.92	-2143.92	  410.53
    105.0700	  790.00	  736.97	-2120.97	  410.52
    105.1700	  769.00	  713.69	-2118.69	  410.52
    105.2700	  736.00	  693.92	-2131.92	  410.51
    105.3700	  707.00	  677.41	-2144.41	  410.51
    105.4700	  673.00	  663.87	-2164.87	  410.52
    105.5700	  689.00	  652.95	-2137.95	  410.52
    105.6700	  694.00	  644.34	-2124.34	  410.53
    105.7700	  645.00	  637.67	-2166.67	  410.53
    105.8700	  615.00	  632.75	-2191.75	  410.54
    105.9700	  611.00	  629.30	-2192.30	  410.56
    106.0700	  659.00	  627.12	-2142.12	  410.57
    106.1700	  605.00	  626.07	-2195.07	  410.59
    106.2700	  621.00	  626.06	-2179.06	  410.61
    106.3700	  658.00	  627.03	-2143.03	  410.63
    106.4700	  636.00	  628.97	-2166.97	  410.65
    106.5700	  608.00	  631.90	-2197.90	  410.67
    106.6700	  562.00	  635.85	-2247.85	  410.70
    106.7700	  646.00	  640.89	-2168.89	  410.73
    106.8700	  644.00	  647.08	-2177.08	  410.76
    106.9700	  646.00	  654.47	-2182.47	  410.79
    107.0700	  676.00	  663.12	-2161.12	  410.83
    107.1700	  716.00	  673.03	-2131.03	  410.86
    107.2700	  668.00	  684.18	-2190.18	  410.90
    107.3700	  696.00	  696.48	-2174.48	  410.95
    107.4700	  660.00	  709.78	-2223.78	  410.99
    107.5700	  638.00	  723.88	-2259.88	  411.04
    107.6700	  703.00	  738.49	-2209.49	  411.08
    107.7700	  752.00	  753.28	-2175.27	  411.13
    107.8700	  774.00	  767.82	-2167.82	  411.19
    107.9700	  782.00	  781.68	-2173.68	  411.24
    108.0700	  728.00	  794.35	-2240.35	  411.30
    108.1700	  755.00	  805.38	-2224.38	  411.36
    108.2700	  800.00	  814.33	-2188.33	  411.42
    108.3700	  802.00	  820.92	-2192.92	  411.49
    108.4700	  785.00	  824.98	-2213.98	  411.55
    108.5700	  786.00	  826.68	-2214.68	  411.62
    108.6700	  783.00	  826.27	-2217.27	  411.69
    108.7700	  790.00	  824.19	-2208.19	  411.77
    108.8700	  778.00	  820.98	-2216.98	  411.84
    108.9700	  755.00	  817.18	-2236.18	  411.92
    109.0700	  741.00	  813.28	-2246.28	  412.00
    109.1700	  757.00	  809.70	-2226.70	  412.08
    109.2700	  770.00	  806.76	-2210.76	  412.17
    109.3700	  738.00	  804.67	-2240.67	  412.25
    109.4700	  746.00	  803.51	-2231.51	  412.34
    109.5700	  767.00	  803.24	-2210.24	  412.44
    109.6700	  757.00	  803.71	-2220.71	  412.53
    109.7700	  790.00	  804.64	-2188.64	  412.63
    109.8700	  750.00	  805.67	-2229.67	  412.73
    109.9700	  790.00	  806.37	-2190.37	  412.83
    110.0700	  771.00	  806.30	-2209.30	  412.93
    110.1700	  770.00	  805.01	-2209.01	  413.04
    110.2700	  784.00	  802.19	-2192.19	  413.15
    110.3700	  799.00	  797.63	-2172.63	  413.26
    110.4700	  769.00	  791.29	-2196.29	  413.38
    110.5700	  785.00	  783.28	-2172.28	  413.49
    110.6700	  748.00	  773.84	-2199.84	  413.61
    110.7700	  758.00	  763.26	-2179.26	  413.73
    110.8700	  762.00	  751.90	-2163.90	  413.86
    110.9700	  710.00	  740.11	-2204.11	  413.98
    111.0700	  736.00	  728.20	-2166.20	  414.11
    111.1700	  702.00	  716.47	-2188.47	  414.24
    111.2700	  708.00	  705.17	-2171.17	  414.38
    111.3700	  669.00	  694.51	-2199.51	  414.52
    111.4700	  658.00	  684.65	-2200.65	  414.66
    111.5700	  703.00	  675.73	-2146.73	  414.80
    111.6700	  634.00	  667.82	-2207.82	  414.94
    111.7700	  672.00	  660.97	-2162.97	  415.09
    111.8700	  626.00	  655.18	-2203.18	  415.24
    111.9700	  644.00	  650.45	-2180.45	  415.39
    112.0700	  614.00	  646.71	-2206.71	  415.55
    112.1700	  619.00	  643.90	-2198.90	  415.70
    112.2700	  621.00	  641.95	-2194.95	  415.86
    112.3700	  609.00	  640.76	-2205.76	  416.03
    112.4700	  614.00	  640.23	-2200.23	  416.19
    112.5700	  637.00	  640.27	-2177.27	  416.36
    112.6700	  587.00	  640.78	-2227.78	  416.53
    112.7700	  598.00	  641.66	-2217.66	  416.71
    112.8700	  659.00	  642.85	-2157.85	  416.88
    112.9700	  624.00	  644.27	-2194.27	  417.06
    113.0700	  571.00	  645.85	-2248.85	  417.24
    113.1700	  619.00	  647.56	-2202.56	  417.43
    113.2700	  586.00	  649.38	-2237.38	  417.61
    113.3700	  589.00	  651.29	-2236.29	  417.80
    113.4700	  600.00	  653.31	-2227.31	  418.00
    113.5700	  616.00	  655.46	-2213.46	  418.19
    113.6700	  619.00	  657.78	-2212.78	  418.39
    113.7700	  631.00	  660.34	-2203.34	  418.59
    113.8700	  623.00	  663.18	-2214.18	  418.79
    113.9700	  677.00	  666.37	-2163.37	  419.00
    114.0700	  604.00	  670.05	-2240.05	  419.21
    114.1700	  736.00	  674.30	-2112.30	  419.42
    114.2700	  675.00	  679.30	-2178.30	  419.64
    114.3700	  657.00	  685.22	-2202.22	  419.85
    114.4700	  706.00	  692.32	-2160.32	  420.07
    114.5700	  686.00	  700.93	-2188.93	  420.30
    114.6700	  709.00	  711.46	-2176.46	  420.52
    114.7700	  715.00	  724.44	-2183.44	  420.75
    114.8700	  702.00	  740.54	-2212.54	  420.99
    114.9700	  807.00	  760.60	-2127.60	  421.22
    115.0700	  842.00	  785.66	-2117.66	  421.46
    115.1700	  909.00	  816.98	-2081.98	  421.70
    115.2700	  889.00	  856.07	-2141.07	  421.94
    115.3700	  973.00	  904.70	-2105.70	  422.19
    115.4700	  980.00	  964.89	-2158.89	  422.44
    115.5700	 1124.00	 1038.96	-2088.96	  422.69
    115.6700	 1285.00	 1129.44	-2018.44	  422.94
    115.7700	 1333.00	 1239.04	-2080.04	  423.20
    115.8700	 1581.00	 1370.57	-1963.57	  423.46
    115.9700	 1713.00	 1526.81	-1987.81	  423.73
    116.0700	 1984.00	 1710.47	-1900.47	  423.99
    116.1700	 2198.00	 1923.96	-1899.96	  424.26
    116.2700	 2417.00	 2169.16	-1926.16	  424.54
    116.3700	 2777.00	 2447.33	-1844.33	  424.81
    116.4700	 3087.00	 2758.81	-1845.81	  425.09
    116.5700	 3380.00	 3102.96	-1896.96	  425.37
    116.6700	 3606.00	 3477.96	-2045.96	  425.66
    116.7700	 3998.00	 3880.54	-2056.54	  425.94
    116.8700	 4301.00	 4306.02	-2179.02	  426.23
    116.9700	 4575.00	 4748.20	-2347.20	  426.53
    117.0700	 5079.00	 5199.53	-2294.53	  426.82
    117.1700	 5599.00	 5651.20	-2226.20	  427.12
    117.2700	 5864.00	 6092.92	-2402.92	  427.43
    117.3700	 6327.00	 6513.53	-2360.53	  427.73
    117.4700	 6728.00	 6901.12	-2347.12	  428.04
    117.5700	 6967.00	 7243.65	-2450.65	  428.35
    117.6700	 7320.00	 7529.40	-2383.40	  428.67
    117.7700	 7664.00	 7747.64	-2257.64	  428.99
    117.8700	 7604.00	 7889.70	-2459.70	  429.31
    117.9700	 7625.00	 7949.76	-2498.76	  429.63
    118.0700	 7698.00	 7925.54	-2401.54	  429.96
    118.1700	 7524.00	 7818.55	-2468.55	  430.29
    118.2700	 7420.00	 7633.90	-2387.90	  430.62
    118.3700	 7099.00	 7379.72	-2454.72	  430.96
    118.4700	 6829.00	 7066.30	-2411.30	  431.30
    118.5700	 6415.00	 6705.13	-2464.13	  431.64
    118.6700	 6067.00	 6308.06	-2415.06	  431.99
    118.7700	 5822.00	 5886.97	-2238.97	  432.34
    118.8700	 5389.00	 5453.00	-2238.00	  432.69
    118.9700	 5071.00	 5016.40	-2119.40	  433.04
    119.0700	 4762.00	 4586.08	-1998.08	  433.40
    119.1700	 4428.00	 4169.60	-1915.60	  433.76
    119.2700	 4065.00	 3773.22	-1882.22	  434.13
    119.3700	 3657.00	 3401.66	-1918.66	  434.50
    119.4700	 3345.00	 3058.26	-1887.26	  434.87
    119.5700	 3085.00	 2744.95	-1833.95	  435.24
    119.6700	 2761.00	 2462.49	-1875.49	  435.62
    119.7700	 2498.00	 2210.73	-1886.73	  436.00
    119.8700	 2252.00	 1988.66	-1910.66	  436.39
    119.9700	 2058.00	 1794.68	-1910.68	  436.77
    120.0700	 1911.00	 1626.68	-1889.68	  437.16
    120.1700	 1606.00	 1482.30	-2050.30	  437.56
    120.2700	 1570.00	 1359.08	-1963.08	  437.96
    120.3700	 1437.00	 1254.52	-1991.52	  438.36
    120.4700	 1339.00	 1166.19	-2001.19	  438.76
    120.5700	 1226.00	 1091.81	-2039.81	  439.17
    120.6700	 1194.00	 1029.29	-2009.29	  439.58
    120.7700	 1087.00	  976.78	-2063.78	  439.99
    120.8700	 1039.00	  932.66	-2067.66	  440.41
    120.9700	  990.00	  895.55	-2079.55	  440.83
    121.0700	  929.00	  864.28	-2109.28	  441.25
    121.1700	  887.00	  837.88	-2124.88	  441.68
    121.2700	  872.00	  815.56	-2117.56	  442.11
    121.3700	  791.00	  796.69	-2179.69	  442.54
    121.4700	  818.00	  780.76	-2136.76	  442.98
    121.5700	  769.00	  767.35	-2172.35	  443.41
    121.6700	  792.00	  756.14	-2138.14	  443.86
    121.7700	  806.00	  746.88	-2114.88	  444.30
    121.8700	  782.00	  739.35	-2131.35	  444.75
    121.9700	  687.00	  733.40	-2220.40	  445.21
    122.0700	  731.00	  728.90	-2171.90	  445.66
    122.1700	  687.00	  725.72	-2212.72	  446.12
    122.2700	  710.00	  723.80	-2187.80	  446.59
    122.3700	  667.00	  723.04	-2230.04	  447.05
    122.4700	  744.00	  723.40	-2153.40	  447.52
    122.5700	  739.00	  724.80	-2159.80	  448.00
    122.6700	  724.00	  727.20	-2177.20	  448.47
    122.7700	  705.00	  730.53	-2199.53	  448.95
    122.8700	  665.00	  734.75	-2243.75	  449.44
    122.9700	  727.00	  739.78	-2186.78	  449.92
    123.0700	  676.00	  745.57	-2243.57	  450.41
    123.1700	  725.00	  752.03	-2201.03	  450.91
    123.2700	  742.00	  759.07	-2191.07	  451.40
    123.3700	  717.00	  766.62	-2223.62	  451.90
    123.4700	  748.00	  774.55	-2200.55	  452.41
    123.5700	  734.00	  782.77	-2222.77	  452.91
    123.6700	  777.00	  791.14	-2188.14	  453.42
    123.7700	  743.00	  799.54	-2230.54	  453.94
    123.8700	  785.00	  807.85	-2196.85	  454.46
    123.9700	  768.00	  815.93	-2221.93	  454.98
    124.0700	  741.00	  823.65	-2256.65	  455.50
    124.1700	  754.00	  830.90	-2250.90	  456.03
    124.2700	  802.00	  837.59	-2209.59	  456.56
    124.3700	  823.00	  843.65	-2194.65	  457.09
    124.4700	  754.00	  849.04	-2269.04	  457.63
    124.5700	  830.00	  853.73	-2197.73	  458.17
    124.6700	  830.00	  857.81	-2201.81	  458.72
    124.7700	  794.00	  861.28	-2241.28	  459.27
    124.8700	  810.00	  864.20	-2228.20	  459.82
    124.9700	  835.00	  597.21	-1936.21	  460.38
    125.0700	  849.00	  597.77	-2174.00	  460.93
    125.1700	  802.00	  598.33	-2174.00	  461.50
    125.2700	  804.00	  598.90	-2174.00	  462.06
    125.3700	  829.00	  599.47	-2174.00	  462.63
    125.4700	  800.00	  600.04	-2174.00	  463.20
    125.5700	  785.00	  600.62	-2174.00	  463.78
    125.6700	  843.00	  601.20	-2174.00	  464.36
    125.7700	  799.00	  601.78	-2174.00	  464.94
    125.8700	  784.00	  602.37	-2174.00	  465.53
    125.9700	  784.00	  602.96	-2174.00	  466.12
    126.0700	  807.00	  603.55	-2174.00	  466.72
    126.1700	  886.00	  604.15	-2174.00	  467.31
    126.2700	  754.00	  604.75	-2174.00	  467.91
    126.3700	  792.00	  605.36	-2174.00	  468.52
    126.4700	  751.00	  605.97	-2174.00	  469.13
    126.5700	  795.00	  606.58	-2174.00	  469.74
    126.6700	  766.00	  607.19	-2174.00	  470.35
    126.7700	  764.00	  607.81	-2174.00	  470.97
    126.8700	  719.00	  608.43	-2174.00	  471.60
    126.9700	  747.00	  609.06	-2174.00	  472.22
    127.0700	  730.00	  609.69	-2174.00	  472.85
    127.1700	  711.00	  610.32	-2174.00	  473.48
    127.2700	  711.00	  610.96	-2174.00	  474.12
    127.3700	  656.00	  611.60	-2174.00	  474.76
    127.4700	  748.00	  612.24	-2174.00	  475.40
    127.5700	  671.00	  612.89	-2174.00	  476.05
    127.6700	  645.00	  613.54	-2174.00	  476.70
    127.7700	  625.00	  614.19	-2174.00	  477.36
    127.8700	  684.00	  614.85	-2174.00	  478.01
    127.9700	  661.00	  615.51	-2174.00	  478.68
    128.0700	  674.00	  616.18	-2174.00	  479.34
    128.1700	  672.00	  616.85	-2174.00	  480.01
    128.2700	  684.00	  617.52	-2174.00	  480.68
    128.3700	  672.00	  618.20	-2174.00	  481.36
    128.4700	  682.00	  618.87	-2174.00	  482.04
    128.5700	    0.00	  619.56	-2174.00	  482.72
    128.6700	    0.00	  620.24	-2174.00	  483.41
     12.4450	        	        	        	        	       0	(  0  0  2)	  0  1
     12.4450	        	        	        	        	    -543	(  0  0  2)	  0  1
     25.1294	        	        	        	        	       0	(  0  0  4)	  0  1
     25.1294	        	        	        	        	    -543	(  0  0  4)	  0  1
     28.5712	        	        	        	        	       0	(  1  0  0)	  0  1
     28.5712	        	        	        	        	    -543	(  1  0  0)	  0  1
     29.2748	        	        	        	        	       0	(  1  0  1)	  0  1
     29.2748	        	        	        	        	    -543	(  1  0  1)	  0  1
     31.2995	        	        	        	        	       0	(  1  0  2)	  0  1
     31.2995	        	        	        	        	    -543	(  1  0  2)	  0  1
     34.4364	        	        	        	        	       0	(  1  0  3)	  0  1
     34.4364	        	        	        	        	    -543	(  1  0  3)	  0  1
     38.1378	        	        	        	        	       0	(  0  0  6)	  0  1
     38.1378	        	        	        	        	    -543	(  0  0  6)	  0  1
     38.4502	        	        	        	        	       0	(  1  0  4)	  0  1
     38.4502	        	        	        	        	    -543	(  1  0  4)	  0  1
     43.1437	        	        	        	        	       0	(  1  0  5)	  0  1
     43.1437	        	        	        	        	    -543	(  1  0  5)	  0  1
     48.3771	        	        	        	        	       0	(  1  0  6)	  0  1
     48.3771	        	        	        	        	    -543	(  1  0  6)	  0  1
     50.6785	        	        	        	        	       0	(  1  1  0)	  0  1
     50.6785	        	        	        	        	    -543	(  1  1  0)	  0  1
     51.6824	        	        	        	        	       0	(  0  0  8)	  0  1
     51.6824	        	        	        	        	    -543	(  0  0  8)	  0  1
     52.4194	        	        	        	        	       0	(  1  1  2)	  0  1
     52.4194	        	        	        	        	    -543	(  1  1  2)	  0  1
     54.0630	        	        	        	        	       0	(  1  0  7)	  0  1
     54.0630	        	        	        	        	    -543	(  1  0  7)	  0  1
     57.4195	        	        	        	        	       0	(  1  1  4)	  0  1
     57.4195	        	        	        	        	    -543	(  1  1  4)	  0  1
     59.2494	        	        	        	        	       0	(  2  0  0)	  0  1
     59.2494	        	        	        	        	    -543	(  2  0  0)	  0  1
     59.6453	        	        	        	        	       0	(  2  0  1)	  0  1
     59.6453	        	        	        	        	    -543	(  2  0  1)	  0  1
     60.1556	        	        	        	        	       0	(  1  0  8)	  0  1
     60.1556	        	        	        	        	    -543	(  1  0  8)	  0  1
     60.8236	        	        	        	        	       0	(  2  0  2)	  0  1
     60.8236	        	        	        	        	    -543	(  2  0  2)	  0  1
     62.7583	        	        	        	        	       0	(  2  0  3)	  0  1
     62.7583	        	        	        	        	    -543	(  2  0  3)	  0  1
     65.1990	        	        	        	        	       0	(  1  1  6)	  0  1
     65.1990	        	        	        	        	    -543	(  1  1  6)	  0  1
     65.4123	        	        	        	        	       0	(  2  0  4)	  0  1
     65.4123	        	        	        	        	    -543	(  2  0  4)	  0  1
     66.0581	        	        	        	        	       0	(  0  0 10)	  0  1
     66.0581	        	        	        	        	    -543	(  0  0 10)	  0  1
     66.6420	        	        	        	        	       0	(  1  0  9)	  0  1
     66.6420	        	        	        	        	    -543	(  1  0  9)	  0  1
     68.7450	        	        	        	        	       0	(  2  0  5)	  0  1
     68.7450	        	        	        	        	    -543	(  2  0  5)	  0  1
     72.7201	        	        	        	        	       0	(  2  0  6)	  0  1
     72.7201	        	        	        	        	    -543	(  2  0  6)	  0  1
     73.5380	        	        	        	        	       0	(  1  0 10)	  0  1
     73.5380	        	        	        	        	    -543	(  1  0 10)	  0  1
     75.3568	        	        	        	        	       0	(  1  1  8)	  0  1
     75.3568	        	        	        	        	    -543	(  1  1  8)	  0  1
     77.3117	        	        	        	        	       0	(  2  0  7)	  0  1
     77.3117	        	        	        	        	    -543	(  2  0  7)	  0  1
     80.8887	        	        	        	        	       0	(  1  0 11)	  0  1
     80.8887	        	        	        	        	    -543	(  1  0 11)	  0  1
     81.7206	        	        	        	        	       0	(  2  1  0)	  0  1
     81.7206	        	        	        	        	    -543	(  2  1  0)	  0  1
     81.7279	        	        	        	        	       0	(  0  0 12)	  0  1
     81.7279	        	        	        	        	    -543	(  0  0 12)	  0  1
     82.0652	        	        	        	        	       0	(  2  1  1)	  0  1
     82.0652	        	        	        	        	    -543	(  2  1  1)	  0  1
     82.5110	        	        	        	        	       0	(  2  0  8)	  0  1
     82.5110	        	        	        	        	    -543	(  2  0  8)	  0  1
     83.0973	        	        	        	        	       0	(  2  1  2)	  0  1
     83.0973	        	        	        	        	    -543	(  2  1  2)	  0  1
     84.8128	        	        	        	        	       0	(  2  1  3)	  0  1
     84.8128	        	        	        	        	    -543	(  2  1  3)	  0  1
     87.2072	        	        	        	        	       0	(  2  1  4)	  0  1
     87.2072	        	        	        	        	    -543	(  2  1  4)	  0  1
     87.7969	        	        	        	        	       0	(  1  1 10)	  0  1
     87.7969	        	        	        	        	    -543	(  1  1 10)	  0  1
     88.3324	        	        	        	        	       0	(  2  0  9)	  0  1
     88.3324	        	        	        	        	    -543	(  2  0  9)	  0  1
     88.7743	        	        	        	        	       0	(  1  0 12)	  0  1
     88.7743	        	        	        	        	    -543	(  1  0 12)	  0  1
     90.2794	        	        	        	        	       0	(  2  1  5)	  0  1
     90.2794	        	        	        	        	    -543	(  2  1  5)	  0  1
     94.0365	        	        	        	        	       0	(  2  1  6)	  0  1
     94.0365	        	        	        	        	    -543	(  2  1  6)	  0  1
     94.8220	        	        	        	        	       0	(  2  0 10)	  0  1
     94.8220	        	        	        	        	    -543	(  2  0 10)	  0  1
     95.7961	        	        	        	        	       0	(  3  0  0)	  0  1
     95.7961	        	        	        	        	    -543	(  3  0  0)	  0  1
     96.1393	        	        	        	        	       0	(  3  0  1)	  0  1
     96.1393	        	        	        	        	    -543	(  3  0  1)	  0  1
     97.1701	        	        	        	        	       0	(  3  0  2)	  0  1
     97.1701	        	        	        	        	    -543	(  3  0  2)	  0  1
     97.3260	        	        	        	        	       0	(  1  0 13)	  0  1
     97.3260	        	        	        	        	    -543	(  1  0 13)	  0  1
     98.5011	        	        	        	        	       0	(  2  1  7)	  0  1
     98.5011	        	        	        	        	    -543	(  2  1  7)	  0  1
     98.8936	        	        	        	        	       0	(  3  0  3)	  0  1
     98.8936	        	        	        	        	    -543	(  3  0  3)	  0  1
     99.5453	        	        	        	        	       0	(  0  0 14)	  0  1
     99.5453	        	        	        	        	    -543	(  0  0 14)	  0  1
    101.3208	        	        	        	        	       0	(  3  0  4)	  0  1
    101.3208	        	        	        	        	    -543	(  3  0  4)	  0  1
    102.0731	        	        	        	        	       0	(  2  0 11)	  0  1
    102.0731	        	        	        	        	    -543	(  2  0 11)	  0  1
    102.9232	        	        	        	        	       0	(  1  1 12)	  0  1
    102.9232	        	        	        	        	    -543	(  1  1 12)	  0  1
    103.7208	        	        	        	        	       0	(  2  1  8)	  0  1
    103.7208	        	        	        	        	    -543	(  2  1  8)	  0  1
    104.4729	        	        	        	        	       0	(  3  0  5)	  0  1
    104.4729	        	        	        	        	    -543	(  3  0  5)	  0  1
    106.7604	        	        	        	        	       0	(  1  0 14)	  0  1
    106.7604	        	        	        	        	    -543	(  1  0 14)	  0  1
    108.3888	        	        	        	        	       0	(  3  0  6)	  0  1
    108.3888	        	        	        	        	    -543	(  3  0  6)	  0  1
    109.7845	        	        	        	        	       0	(  2  1  9)	  0  1
    109.7845	        	        	        	        	    -543	(  2  1  9)	  0  1
    110.2550	        	        	        	        	       0	(  2  0 12)	  0  1
    110.2550	        	        	        	        	    -543	(  2  0 12)	  0  1
    113.1370	        	        	        	        	       0	(  3  0  7)	  0  1
    113.1370	        	        	        	        	    -543	(  3  0  7)	  0  1
    116.8538	        	        	        	        	       0	(  2  1 10)	  0  1
    116.8538	        	        	        	        	    -543	(  2  1 10)	  0  1
    117.4640	        	        	        	        	       0	(  1  0 15)	  0  1
    117.4640	        	        	        	        	    -543	(  1  0 15)	  0  1
    117.9470	        	        	        	        	       0	(  2  2  0)	  0  1
    117.9470	        	        	        	        	    -543	(  2  2  0)	  0  1
    118.8379	        	        	        	        	       0	(  3  0  8)	  0  1
    118.8379	        	        	        	        	    -543	(  3  0  8)	  0  1
    119.5048	        	        	        	        	       0	(  2  2  2)	  0  1
    119.5048	        	        	        	        	    -543	(  2  2  2)	  0  1
    119.6827	        	        	        	        	       0	(  2  0 13)	  0  1
    119.6827	        	        	        	        	    -543	(  2  0 13)	  0  1
    121.5587	        	        	        	        	       0	(  0  0 16)	  0  1
    121.5587	        	        	        	        	    -543	(  0  0 16)	  0  1
    122.2447	        	        	        	        	       0	(  1  1 14)	  0  1
    122.2447	        	        	        	        	    -543	(  1  1 14)	  0  1
    124.3351	        	        	        	        	       0	(  2  2  4)	  0  1
    124.3351	        	        	        	        	    -543	(  2  2  4)	  0  1
    125.2327	        	        	        	        	       0	(  2  1 11)	  0  1
    125.2327	        	        	        	        	    -543	(  2  1 11)	  0  1
    125.7095	        	        	        	        	       0	(  3  0  9)	  0  1
    125.7095	        	        	        	        	    -543	(  3  0  9)	  0  1
    126.2471	        	        	        	        	       0	(  3  1  0)	  0  1
    126.2471	        	        	        	        	    -543	(  3  1  0)	  0  1
    126.6719	        	        	        	        	       0	(  3  1  1)	  0  1
    126.6719	        	        	        	        	    -543	(  3  1  1)	  0  1
    127.9606	        	        	        	        	       0	(  3  1  2)	  0  1
    127.9606	        	        	        	        	    -543	(  3  1  2)	  0  1
    130.1607	        	        	        	        	       0	(  3  1  3)	  0  1
    130.1607	        	        	        	        	    -543	(  3  1  3)	  0  1
    130.2410	        	        	        	        	       0	(  1  0 16)	  0  1
    130.2410	        	        	        	        	    -543	(  1  0 16)	  0  1
    131.0086	        	        	        	        	       0	(  2  0 14)	  0  1
    131.0086	        	        	        	        	    -543	(  2  0 14)	  0  1
    133.1013	        	        	        	        	       0	(  2  2  6)	  0  1
    133.1013	        	        	        	        	    -543	(  2  2  6)	  0  1
    133.3679	        	        	        	        	       0	(  3  1  4)	  0  1
    133.3679	        	        	        	        	    -543	(  3  1  4)	  0  1
    134.1850	        	        	        	        	       0	(  3  0 10)	  0  1
    134.1850	        	        	        	        	    -543	(  3  0 10)	  0  1
    135.5659	        	        	        	        	       0	(  2  1 12)	  0  1
    135.5659	        	        	        	        	    -543	(  2  1 12)	  0  1
    137.7624	        	        	        	        	       0	(  3  1  5)	  0  1
    137.7624	        	        	        	        	    -543	(  3  1  5)	  0  1
    143.7067	        	        	        	        	       0	(  3  1  6)	  0  1
    143.7067	        	        	        	        	    -543	(  3  1  6)	  0  1
    145.3127	        	        	        	        	       0	(  3  0 11)	  0  1
    145.3127	        	        	        	        	    -543	(  3  0 11)	  0  1
    146.0149	        	        	        	        	       0	(  2  0 15)	  0  1
    146.0149	        	        	        	        	    -543	(  2  0 15)	  0  1
    147.4457	        	        	        	        	       0	(  1  0 17)	  0  1
    147.4457	        	        	        	        	    -543	(  1  0 17)	  0  1
    148.2506	        	        	        	        	       0	(  2  2  8)	  0  1
    148.2506	        	        	        	        	    -543	(  2  2  8)	  0  1
    149.6826	        	        	        	        	       0	(  2  1 13)	  0  1
    149.6826	        	        	        	        	    -543	(  2  1 13)	  0  1
    152.0808	        	        	        	        	       0	(  3  1  7)	  0  1
    152.0808	        	        	        	        	    -543	(  3  1  7)	  0  1
    153.0585	        	        	        	        	       0	(  1  1 16)	  0  1
    153.0585	        	        	        	        	    -543	(  1  1 16)	  0  1
    158.2928	        	        	        	        	       0	(  0  0 18)	  0  1
    158.2928	        	        	        	        	    -543	(  0  0 18)	  0  1
    163.6497	        	        	        	        	       0	(  4  0  0)	  0  1
    163.6497	        	        	        	        	    -543	(  4  0  0)	  0  1
    163.6757	        	        	        	        	       0	(  3  0 12)	  0  1
    163.6757	        	        	        	        	    -543	(  3  0 12)	  0  1
    164.9162	        	        	        	        	       0	(  4  0  1)	  0  1
    164.9162	        	        	        	        	    -543	(  4  0  1)	  0  1
    166.7312	        	        	        	        	       0	(  3  1  8)	  0  1
    166.7312	        	        	        	        	    -543	(  3  1  8)	  0  1
