MSG Master    CELL:    5.90141   5.90141  23.17577   90.0000   90.0000  120.0000   SPGR: P 63/m m c             TEMP:    796.35
  1   1280     2.52000     0.00000    -0.12603     0.00000     0.00000    0
    97     0     2
       0.00000      10.00000
     125.00000     130.00000
 2Theta	Yobs	Ycal	Yobs-Ycal	Backg	Posr	(hkl)	K
      0.7700	    0.00	  444.97	-1756.05	  336.28
      0.8700	    0.00	  447.25	-1756.05	  338.55
      0.9700	   30.00	  449.51	-1756.05	  340.81
      1.0700	   45.00	  451.74	-1756.05	  343.04
      1.1700	   39.00	  453.95	-1756.05	  345.25
      1.2700	   38.00	  456.14	-1756.05	  347.44
      1.3700	   45.00	  458.30	-1756.05	  349.60
      1.4700	   95.00	  460.44	-1756.05	  351.74
      1.5700	  301.00	  462.56	-1756.05	  353.86
      1.6700	  468.00	  464.66	-1756.05	  355.96
      1.7700	  567.00	  466.74	-1756.05	  358.04
      1.8700	  621.00	  468.79	-1756.05	  360.09
      1.9700	  711.00	  470.82	-1756.05	  362.13
      2.0700	  746.00	  472.84	-1756.05	  364.14
      2.1700	  761.00	  474.83	-1756.05	  366.13
      2.2700	  748.00	  476.80	-1756.05	  368.10
      2.3700	  721.00	  478.74	-1756.05	  370.04
      2.4700	  718.00	  480.67	-1756.05	  371.97
      2.5700	  703.00	  482.58	-1756.05	  373.88
      2.6700	  662.00	  484.46	-1756.05	  375.76
      2.7700	  665.00	  486.33	-1756.05	  377.63
      2.8700	  624.00	  488.17	-1756.05	  379.47
      2.9700	  623.00	  490.00	-1756.05	  381.30
      3.0700	  542.00	  491.80	-1756.05	  383.10
      3.1700	  643.00	  493.58	-1756.05	  384.88
      3.2700	  688.00	  495.35	-1756.05	  386.65
      3.3700	  790.00	  497.09	-1756.05	  388.39
      3.4700	 1013.00	  498.82	-1756.05	  390.12
      3.5700	 1101.00	  500.52	-1756.05	  391.82
      3.6700	 1153.00	  502.20	-1756.05	  393.51
      3.7700	 1267.00	  503.87	-1756.05	  395.17
      3.8700	 1295.00	  505.52	-1756.05	  396.82
      3.9700	 1380.00	  507.14	-1756.05	  398.45
      4.0700	 1460.00	  508.75	-1756.05	  400.05
      4.1700	 1472.00	  510.34	-1756.05	  401.64
      4.2700	 1429.00	  511.91	-1756.05	  403.21
      4.3700	 1386.00	  513.46	-1756.05	  404.77
      4.4700	 1372.00	  515.00	-1756.05	  406.30
      4.5700	 1364.00	  516.51	-1756.05	  407.81
      4.6700	 1307.00	  518.01	-1756.05	  409.31
      4.7700	 1277.00	  519.49	-1756.05	  410.79
      4.8700	 1185.00	  520.95	-1756.05	  412.25
      4.9700	 1159.00	  522.39	-1756.05	  413.69
      5.0700	 1165.00	  523.82	-1756.05	  415.12
      5.1700	 1156.00	  525.22	-1756.05	  416.52
      5.2700	 1094.00	  526.61	-1756.05	  417.91
      5.3700	 1056.00	  527.98	-1756.05	  419.28
      5.4700	 1050.00	  529.34	-1756.05	  420.64
      5.5700	 1060.00	  530.67	-1756.05	  421.97
      5.6700	  972.00	  531.99	-1756.05	  423.29
      5.7700	  961.00	  533.30	-1756.05	  424.60
      5.8700	  906.00	  534.58	-1756.05	  425.88
      5.9700	  929.00	  535.85	-1756.05	  427.15
      6.0700	  907.00	  537.10	-1756.05	  428.40
      6.1700	  890.00	  538.34	-1756.05	  429.64
      6.2700	  833.00	  539.56	-1756.05	  430.86
      6.3700	  909.00	  540.76	-1756.05	  432.06
      6.4700	  868.00	  541.95	-1756.05	  433.25
      6.5700	  850.00	  543.12	-1756.05	  434.42
      6.6700	  832.00	  544.27	-1756.05	  435.57
      6.7700	  844.00	  545.41	-1756.05	  436.71
      6.8700	  807.00	  546.53	-1756.05	  437.83
      6.9700	  794.00	  547.64	-1756.05	  438.94
      7.0700	  740.00	  548.73	-1756.05	  440.03
      7.1700	  754.00	  549.80	-1756.05	  441.10
      7.2700	  740.00	  550.86	-1756.05	  442.16
      7.3700	  728.00	  551.91	-1756.05	  443.21
      7.4700	  758.00	  552.94	-1756.05	  444.24
      7.5700	  745.00	  553.95	-1756.05	  445.25
      7.6700	  724.00	  554.95	-1756.05	  446.25
      7.7700	  686.00	  555.93	-1756.05	  447.23
      7.8700	  661.00	  556.90	-1756.05	  448.20
      7.9700	  726.00	  557.86	-1756.05	  449.16
      8.0700	  643.00	  558.80	-1756.05	  450.10
      8.1700	  709.00	  559.72	-1756.05	  451.02
      8.2700	  655.00	  560.63	-1756.05	  451.93
      8.3700	  657.00	  561.53	-1756.05	  452.83
      8.4700	  642.00	  562.41	-1756.05	  453.71
      8.5700	  651.00	  563.28	-1756.05	  454.58
      8.6700	  670.00	  564.13	-1756.05	  455.44
      8.7700	  682.00	  564.97	-1756.05	  456.28
      8.8700	  661.00	  565.80	-1756.05	  457.10
      8.9700	  673.00	  566.61	-1756.05	  457.91
      9.0700	  691.00	  567.41	-1756.05	  458.71
      9.1700	  692.00	  568.20	-1756.05	  459.50
      9.2700	  650.00	  568.97	-1756.05	  460.27
      9.3700	  693.00	  569.73	-1756.05	  461.03
      9.4700	  656.00	  570.48	-1756.05	  461.78
      9.5700	  664.00	  571.21	-1756.05	  462.51
      9.6700	  644.00	  571.93	-1756.05	  463.23
      9.7700	  626.00	  572.63	-1756.05	  463.94
      9.8700	  625.00	  573.33	-1756.05	  464.63
      9.9700	  659.00	  574.01	-1756.05	  465.31
     10.0700	  601.00	  577.01	-1732.06	  465.98
     10.1700	  594.00	  577.86	-1739.91	  466.64
     10.2700	  644.00	  578.75	-1690.80	  467.28
     10.3700	  598.00	  579.68	-1737.73	  467.91
     10.4700	  619.00	  580.70	-1717.75	  468.53
     10.5700	  626.00	  581.85	-1711.89	  469.13
     10.6700	  573.00	  583.20	-1766.25	  469.73
     10.7700	  610.00	  584.86	-1730.90	  470.31
     10.8700	  598.00	  586.90	-1744.95	  470.88
     10.9700	  577.00	  589.38	-1768.43	  471.44
     11.0700	  638.00	  592.31	-1710.36	  471.99
     11.1700	  618.00	  595.69	-1733.73	  472.52
     11.2700	  603.00	  599.55	-1752.60	  473.05
     11.3700	  630.00	  603.96	-1730.01	  473.56
     11.4700	  591.00	  609.05	-1774.10	  474.06
     11.5700	  595.00	  615.02	-1776.07	  474.55
     11.6700	  648.00	  622.16	-1730.20	  475.03
     11.7700	  655.00	  630.85	-1731.90	  475.50
     11.8700	  632.00	  641.41	-1765.46	  475.95
     11.9700	  663.00	  653.73	-1746.78	  476.40
     12.0700	  682.00	  666.53	-1740.58	  476.83
     12.1700	  743.00	  676.69	-1689.74	  477.26
     12.2700	  717.00	  679.01	-1718.06	  477.67
     12.3700	  681.00	  669.17	-1744.22	  478.07
     12.4700	  668.00	  650.46	-1738.51	  478.47
     12.5700	  671.00	  631.45	-1716.50	  478.85
     12.6700	  628.00	  616.96	-1745.01	  479.22
     12.7700	  591.00	  607.53	-1772.58	  479.58
     12.8700	  609.00	  601.97	-1749.02	  479.93
     12.9700	  557.00	  598.86	-1797.91	  480.27
     13.0700	  565.00	  597.09	-1788.14	  480.60
     13.1700	  628.00	  596.04	-1724.09	  480.92
     13.2700	  580.00	  595.37	-1771.42	  481.24
     13.3700	  551.00	  594.93	-1799.98	  481.54
     13.4700	  580.00	  594.65	-1770.70	  481.83
     13.5700	  570.00	  594.47	-1780.52	  482.11
     13.6700	  554.00	  594.41	-1796.46	  482.38
     13.7700	  605.00	  594.37	-1745.42	  482.65
     13.8700	  564.00	  594.37	-1786.42	  482.90
     13.9700	  604.00	  594.40	-1746.45	  483.15
     14.0700	  591.00	  594.46	-1759.51	  483.38
     14.1700	  569.00	  594.54	-1781.58	  483.61
     14.2700	  590.00	  594.62	-1760.67	  483.83
     14.3700	  588.00	  594.72	-1762.77	  484.04
     14.4700	  568.00	  594.82	-1782.87	  484.24
     14.5700	  573.00	  594.92	-1777.97	  484.43
     14.6700	  557.00	  595.03	-1794.08	  484.61
     14.7700	  615.00	  595.14	-1736.18	  484.78
     14.8700	  585.00	  595.24	-1766.29	  484.95
     14.9700	  619.00	  595.34	-1732.39	  485.11
     15.0700	  641.00	  595.44	-1710.49	  485.25
     15.1700	  594.00	  595.54	-1757.59	  485.39
     15.2700	  576.00	  595.64	-1775.68	  485.53
     15.3700	  535.00	  595.72	-1816.77	  485.65
     15.4700	  621.00	  595.81	-1730.86	  485.77
     15.5700	  645.00	  595.89	-1706.94	  485.87
     15.6700	  625.00	  595.96	-1727.01	  485.97
     15.7700	  532.00	  596.03	-1820.08	  486.07
     15.8700	  573.00	  596.09	-1779.14	  486.15
     15.9700	  547.00	  596.15	-1805.20	  486.23
     16.0700	  618.00	  596.20	-1734.25	  486.29
     16.1700	  610.00	  596.24	-1742.29	  486.36
     16.2700	  584.00	  596.28	-1768.33	  486.41
     16.3700	  569.00	  596.31	-1783.36	  486.46
     16.4700	  591.00	  596.34	-1761.39	  486.49
     16.5700	  578.00	  596.36	-1774.41	  486.53
     16.6700	  608.00	  596.37	-1744.42	  486.55
     16.7700	  566.00	  596.38	-1786.43	  486.57
     16.8700	  581.00	  596.38	-1771.43	  486.58
     16.9700	  576.00	  596.38	-1776.43	  486.58
     17.0700	  602.00	  596.37	-1750.41	  486.58
     17.1700	  617.00	  596.35	-1735.40	  486.57
     17.2700	  567.00	  596.32	-1785.37	  486.55
     17.3700	  593.00	  596.41	-1759.46	  486.53
     17.4700	  587.00	  596.38	-1765.43	  486.50
     17.5700	  576.00	  596.34	-1776.39	  486.46
     17.6700	  585.00	  596.29	-1767.34	  486.42
     17.7700	  526.00	  596.24	-1826.29	  486.37
     17.8700	  572.00	  596.31	-1780.36	  486.31
     17.9700	  569.00	  596.25	-1783.30	  486.25
     18.0700	  633.00	  596.18	-1719.23	  486.18
     18.1700	  557.00	  596.11	-1795.16	  486.10
     18.2700	  549.00	  596.03	-1803.08	  486.02
     18.3700	  589.00	  595.95	-1763.00	  485.93
     18.4700	  634.00	  595.86	-1717.91	  485.84
     18.5700	  534.00	  595.77	-1817.82	  485.74
     18.6700	  591.00	  595.67	-1760.72	  485.64
     18.7700	  601.00	  595.56	-1750.61	  485.53
     18.8700	  609.00	  595.46	-1742.50	  485.41
     18.9700	  601.00	  595.34	-1750.39	  485.29
     19.0700	  584.00	  595.22	-1767.27	  485.16
     19.1700	  575.00	  595.10	-1776.15	  485.03
     19.2700	  572.00	  594.97	-1779.02	  484.89
     19.3700	  595.00	  594.83	-1755.88	  484.74
     19.4700	  562.00	  594.74	-1788.79	  484.59
     19.5700	  544.00	  594.59	-1806.64	  484.44
     19.6700	  620.00	  594.45	-1730.50	  484.28
     19.7700	  603.00	  594.29	-1747.34	  484.11
     19.8700	  581.00	  594.14	-1769.19	  483.94
     19.9700	  559.00	  593.98	-1791.03	  483.77
     20.0700	  532.00	  593.81	-1817.86	  483.59
     20.1700	  515.00	  593.65	-1834.69	  483.40
     20.2700	  567.00	  593.47	-1782.52	  483.21
     20.3700	  591.00	  593.30	-1758.35	  483.02
     20.4700	  553.00	  593.12	-1796.17	  482.82
     20.5700	  574.00	  592.93	-1774.98	  482.62
     20.6700	  560.00	  592.75	-1788.80	  482.41
     20.7700	  578.00	  592.56	-1770.61	  482.19
     20.8700	  598.00	  592.36	-1750.41	  481.98
     20.9700	  577.00	  592.17	-1771.22	  481.75
     21.0700	  596.00	  591.97	-1752.02	  481.53
     21.1700	  583.00	  591.77	-1764.82	  481.30
     21.2700	  551.00	  591.57	-1796.61	  481.06
     21.3700	  570.00	  591.36	-1777.41	  480.82
     21.4700	  599.00	  591.15	-1748.20	  480.58
     21.5700	  567.00	  590.94	-1779.99	  480.33
     21.6700	  586.00	  590.73	-1760.78	  480.08
     21.7700	  537.00	  590.52	-1809.57	  479.82
     21.8700	  613.00	  590.31	-1733.36	  479.56
     21.9700	  553.00	  590.10	-1793.15	  479.30
     22.0700	  587.00	  590.05	-1759.10	  479.03
     22.1700	  605.00	  589.84	-1740.89	  478.76
     22.2700	  585.00	  589.63	-1760.68	  478.49
     22.3700	  605.00	  589.43	-1740.48	  478.21
     22.4700	  586.00	  589.23	-1759.28	  477.93
     22.5700	  548.00	  589.04	-1797.09	  477.64
     22.6700	  576.00	  588.86	-1768.91	  477.35
     22.7700	  588.00	  588.68	-1756.73	  477.06
     22.8700	  579.00	  588.51	-1765.56	  476.76
     22.9700	  534.00	  588.36	-1810.41	  476.46
     23.0700	  573.00	  588.22	-1771.27	  476.16
     23.1700	  591.00	  588.11	-1753.16	  475.86
     23.2700	  549.00	  587.97	-1795.02	  475.55
     23.3700	  608.00	  587.92	-1735.97	  475.23
     23.4700	  559.00	  587.92	-1784.97	  474.92
     23.5700	  546.00	  587.98	-1798.03	  474.60
     23.6700	  592.00	  588.13	-1752.18	  474.28
     23.7700	  579.00	  588.41	-1765.46	  473.96
     23.8700	  596.00	  588.90	-1748.95	  473.63
     23.9700	  590.00	  589.73	-1755.78	  473.30
     24.0700	  640.00	  591.13	-1707.18	  472.97
     24.1700	  591.00	  593.45	-1758.50	  472.63
     24.2700	  585.00	  597.20	-1768.25	  472.29
     24.3700	  605.00	  602.95	-1754.00	  471.95
     24.4700	  601.00	  611.17	-1766.22	  471.61
     24.5700	  639.00	  621.89	-1738.94	  471.26
     24.6700	  691.00	  634.35	-1699.40	  470.91
     24.7700	  705.00	  646.34	-1697.39	  470.56
     24.8700	  625.00	  653.84	-1784.89	  470.21
     24.9700	  691.00	  652.02	-1717.07	  469.85
     25.0700	  686.00	  640.24	-1710.29	  469.49
     25.1700	  662.00	  624.41	-1718.46	  469.13
     25.2700	  649.00	  610.34	-1717.39	  468.77
     25.3700	  609.00	  600.10	-1747.15	  468.41
     25.4700	  653.00	  593.47	-1696.52	  468.04
     25.5700	  642.00	  589.45	-1703.50	  467.67
     25.6700	  603.00	  587.05	-1740.10	  467.30
     25.7700	  589.00	  585.54	-1752.59	  466.93
     25.8700	  583.00	  584.52	-1757.57	  466.55
     25.9700	  638.00	  583.80	-1701.85	  466.17
     26.0700	  652.00	  583.27	-1687.32	  465.80
     26.1700	  614.00	  582.90	-1724.95	  465.41
     26.2700	  610.00	  582.66	-1728.71	  465.03
     26.3700	  629.00	  582.54	-1709.59	  464.65
     26.4700	  627.00	  582.54	-1711.59	  464.26
     26.5700	  616.00	  582.67	-1722.72	  463.87
     26.6700	  629.00	  582.95	-1710.00	  463.48
     26.7700	  673.00	  583.39	-1666.43	  463.09
     26.8700	  667.00	  584.02	-1673.07	  462.70
     26.9700	  664.00	  584.90	-1676.94	  462.31
     27.0700	  603.00	  586.09	-1739.14	  461.91
     27.1700	  587.00	  587.70	-1756.75	  461.51
     27.2700	  638.00	  589.93	-1707.98	  461.12
     27.3700	  620.00	  593.11	-1729.16	  460.72
     27.4700	  671.00	  597.90	-1682.95	  460.31
     27.5700	  662.00	  605.46	-1699.51	  459.91
     27.6700	  684.00	  617.75	-1689.80	  459.51
     27.7700	  681.00	  637.60	-1712.65	  459.10
     27.8700	  661.00	  668.22	-1763.27	  458.70
     27.9700	  688.00	  711.73	-1779.78	  458.29
     28.0700	  721.00	  766.86	-1801.91	  457.88
     28.1700	  838.00	  826.56	-1744.61	  457.47
     28.2700	  950.00	  876.30	-1682.34	  457.06
     28.3700	  955.00	  896.54	-1697.59	  456.65
     28.4700	  972.00	  879.91	-1663.96	  456.24
     28.5700	  921.00	  849.14	-1684.19	  455.83
     28.6700	  811.00	  833.99	-1779.04	  455.41
     28.7700	  842.00	  845.53	-1759.58	  455.00
     28.8700	  840.00	  876.33	-1792.38	  454.58
     28.9700	  839.00	  905.42	-1822.47	  454.17
     29.0700	  880.00	  904.98	-1781.03	  453.75
     29.1700	  926.00	  860.10	-1690.15	  453.33
     29.2700	  803.00	  788.90	-1741.95	  452.92
     29.3700	  748.00	  720.01	-1728.06	  452.50
     29.4700	  732.00	  667.41	-1691.45	  452.08
     29.5700	  708.00	  632.55	-1680.60	  451.66
     29.6700	  623.00	  611.50	-1744.55	  451.24
     29.7700	  636.00	  599.29	-1719.33	  450.82
     29.8700	  662.00	  592.07	-1686.12	  450.39
     29.9700	  654.00	  587.60	-1689.65	  449.97
     30.0700	  630.00	  584.80	-1710.85	  449.55
     30.1700	  636.00	  583.34	-1703.39	  449.13
     30.2700	  652.00	  583.32	-1687.37	  448.70
     30.3700	  672.00	  585.25	-1669.30	  448.28
     30.4700	  627.00	  590.02	-1719.07	  447.86
     30.5700	  638.00	  598.81	-1716.86	  447.43
     30.6700	  652.00	  612.50	-1716.55	  447.01
     30.7700	  639.00	  630.75	-1747.80	  446.59
     30.8700	  676.00	  650.98	-1731.03	  446.16
     30.9700	  664.00	  667.77	-1759.82	  445.74
     31.0700	  664.00	  673.37	-1765.42	  445.31
     31.1700	  664.00	  662.65	-1754.70	  444.89
     31.2700	  700.00	  640.38	-1696.43	  444.46
     31.3700	  573.00	  616.56	-1799.61	  444.04
     31.4700	  651.00	  597.19	-1702.24	  443.62
     31.5700	  645.00	  583.69	-1694.74	  443.19
     31.6700	  588.00	  575.18	-1743.23	  442.77
     31.7700	  571.00	  570.10	-1755.15	  442.34
     31.8700	  609.00	  567.05	-1714.10	  441.92
     31.9700	  547.00	  565.11	-1774.16	  441.50
     32.0700	  560.00	  563.80	-1759.85	  441.07
     32.1700	  564.00	  562.88	-1754.93	  440.65
     32.2700	  571.00	  562.25	-1747.30	  440.23
     32.3700	  543.00	  561.87	-1774.92	  439.80
     32.4700	  627.00	  561.72	-1690.77	  439.38
     32.5700	  588.00	  561.80	-1729.85	  438.96
     32.6700	  559.00	  562.14	-1759.19	  438.54
     32.7700	  561.00	  562.78	-1757.83	  438.12
     32.8700	  594.00	  563.79	-1725.84	  437.70
     32.9700	  595.00	  565.25	-1726.30	  437.28
     33.0700	  542.00	  567.36	-1781.41	  436.86
     33.1700	  590.00	  570.47	-1736.52	  436.44
     33.2700	  568.00	  575.14	-1763.19	  436.02
     33.3700	  558.00	  582.62	-1780.67	  435.60
     33.4700	  597.00	  595.08	-1754.13	  435.18
     33.5700	  632.00	  615.95	-1740.00	  434.77
     33.6700	  666.00	  649.73	-1739.77	  434.35
     33.7700	  699.00	  700.50	-1757.55	  433.93
     33.8700	  793.00	  768.82	-1731.87	  433.52
     33.9700	  871.00	  847.62	-1732.67	  433.10
     34.0700	  930.00	  919.45	-1745.50	  432.69
     34.1700	 1035.00	  957.51	-1678.55	  432.28
     34.2700	  975.00	  938.67	-1719.71	  431.87
     34.3700	  925.00	  869.60	-1700.65	  431.46
     34.4700	  803.00	  783.46	-1736.51	  431.04
     34.5700	  721.00	  706.92	-1741.96	  430.64
     34.6700	  659.00	  649.91	-1746.96	  430.23
     34.7700	  578.00	  612.14	-1790.19	  429.82
     34.8700	  574.00	  588.98	-1771.03	  429.41
     34.9700	  589.00	  575.17	-1742.22	  429.01
     35.0700	  559.00	  566.66	-1763.71	  428.60
     35.1700	  544.00	  560.99	-1773.04	  428.20
     35.2700	  515.00	  556.87	-1797.92	  427.79
     35.3700	  557.00	  554.15	-1753.20	  427.39
     35.4700	  575.00	  551.57	-1732.62	  426.99
     35.5700	  545.00	  549.43	-1760.48	  426.59
     35.6700	  540.00	  547.62	-1763.67	  426.19
     35.7700	  521.00	  546.06	-1781.11	  425.79
     35.8700	  547.00	  544.69	-1753.74	  425.40
     35.9700	  524.00	  543.49	-1775.54	  425.00
     36.0700	  525.00	  542.42	-1773.47	  424.61
     36.1700	  567.00	  541.46	-1730.51	  424.21
     36.2700	  575.00	  540.59	-1721.64	  423.82
     36.3700	  514.00	  539.80	-1781.85	  423.43
     36.4700	  508.00	  539.04	-1787.09	  423.04
     36.5700	  574.00	  538.39	-1720.44	  422.65
     36.6700	  537.00	  537.79	-1756.84	  422.26
     36.7700	  541.00	  537.27	-1752.32	  421.88
     36.8700	  485.00	  536.81	-1807.86	  421.49
     36.9700	  522.00	  536.46	-1770.51	  421.11
     37.0700	  481.00	  536.27	-1811.32	  420.73
     37.1700	  517.00	  536.31	-1775.36	  420.35
     37.2700	  516.00	  536.74	-1776.79	  419.97
     37.3700	  523.00	  537.72	-1770.77	  419.59
     37.4700	  542.00	  539.58	-1753.63	  419.21
     37.5700	  558.00	  541.97	-1740.02	  418.84
     37.6700	  532.00	  544.79	-1768.84	  418.47
     37.7700	  520.00	  547.42	-1783.47	  418.09
     37.8700	  526.00	  548.87	-1778.92	  417.72
     37.9700	  582.00	  548.35	-1722.39	  417.35
     38.0700	  525.00	  546.02	-1777.07	  416.99
     38.1700	  550.00	  542.80	-1748.85	  416.62
     38.2700	  531.00	  539.40	-1764.45	  416.25
     38.3700	  540.00	  536.25	-1752.30	  415.89
     38.4700	  499.00	  533.63	-1790.68	  415.53
     38.5700	  537.00	  531.62	-1750.66	  415.17
     38.6700	  523.00	  530.14	-1763.18	  414.81
     38.7700	  513.00	  529.05	-1772.10	  414.45
     38.8700	  514.00	  528.23	-1770.28	  414.10
     38.9700	  506.00	  527.58	-1777.62	  413.74
     39.0700	  555.00	  527.02	-1728.07	  413.39
     39.1700	  471.00	  526.53	-1811.58	  413.04
     39.2700	  499.00	  526.08	-1783.13	  412.69
     39.3700	  523.00	  525.66	-1758.71	  412.35
     39.4700	  513.00	  525.27	-1768.32	  412.00
     39.5700	  494.00	  524.78	-1786.83	  411.66
     39.6700	  509.00	  524.43	-1771.48	  411.31
     39.7700	  528.00	  524.14	-1752.19	  410.97
     39.8700	  503.00	  523.82	-1776.86	  410.63
     39.9700	  504.00	  523.50	-1775.55	  410.30
     40.0700	  534.00	  523.20	-1745.25	  409.96
     40.1700	  501.00	  523.47	-1778.52	  409.63
     40.2700	  489.00	  523.21	-1790.25	  409.30
     40.3700	  549.00	  522.96	-1730.01	  408.97
     40.4700	  486.00	  522.60	-1792.65	  408.64
     40.5700	  511.00	  522.39	-1767.44	  408.31
     40.6700	  500.00	  522.20	-1778.25	  407.99
     40.7700	  535.00	  522.03	-1743.08	  407.66
     40.8700	  477.00	  521.89	-1800.94	  407.34
     40.9700	  470.00	  521.77	-1807.82	  407.02
     41.0700	  486.00	  521.70	-1791.75	  406.71
     41.1700	  500.00	  521.66	-1777.71	  406.39
     41.2700	  546.00	  521.68	-1731.73	  406.08
     41.3700	  478.00	  521.75	-1799.80	  405.77
     41.4700	  507.00	  521.91	-1770.96	  405.46
     41.5700	  501.00	  522.18	-1777.23	  405.15
     41.6700	  508.00	  522.64	-1770.69	  404.84
     41.7700	  478.00	  523.26	-1801.31	  404.54
     41.8700	  521.00	  524.28	-1759.33	  404.24
     41.9700	  508.00	  525.95	-1774.00	  403.94
     42.0700	  515.00	  528.58	-1769.63	  403.64
     42.1700	  491.00	  532.99	-1798.04	  403.34
     42.2700	  508.00	  540.17	-1788.22	  403.05
     42.3700	  528.00	  551.16	-1779.20	  402.76
     42.4700	  573.00	  566.59	-1749.64	  402.46
     42.5700	  570.00	  586.01	-1772.06	  402.18
     42.6700	  553.00	  607.17	-1810.22	  401.89
     42.7700	  610.00	  624.66	-1770.71	  401.61
     42.8700	  618.00	  632.11	-1770.16	  401.32
     42.9700	  589.00	  625.57	-1792.62	  401.04
     43.0700	  570.00	  607.84	-1793.89	  400.76
     43.1700	  581.00	  586.03	-1761.08	  400.49
     43.2700	  549.00	  565.73	-1772.78	  400.21
     43.3700	  518.00	  549.55	-1787.59	  399.94
     43.4700	  547.00	  537.94	-1746.99	  399.67
     43.5700	  518.00	  530.27	-1768.32	  399.40
     43.6700	  512.00	  525.44	-1769.49	  399.13
     43.7700	  512.00	  522.42	-1766.47	  398.87
     43.8700	  485.00	  520.47	-1791.52	  398.61
     43.9700	  512.00	  519.33	-1763.38	  398.35
     44.0700	  526.00	  518.32	-1748.37	  398.09
     44.1700	  535.00	  517.53	-1738.58	  397.83
     44.2700	  542.00	  516.88	-1730.93	  397.58
     44.3700	  545.00	  516.35	-1727.39	  397.33
     44.4700	  534.00	  515.89	-1737.94	  397.08
     44.5700	  520.00	  515.51	-1751.56	  396.83
     44.6700	  506.00	  515.18	-1765.23	  396.58
     44.7700	  523.00	  514.91	-1747.96	  396.34
     44.8700	  508.00	  514.68	-1762.73	  396.10
     44.9700	  519.00	  514.48	-1751.53	  395.86
     45.0700	  502.00	  514.33	-1768.38	  395.62
     45.1700	  548.00	  514.20	-1722.25	  395.39
     45.2700	  535.00	  514.11	-1735.16	  395.15
     45.3700	  522.00	  514.04	-1748.09	  394.92
     45.4700	  498.00	  514.01	-1772.06	  394.69
     45.5700	  583.00	  514.09	-1687.13	  394.47
     45.6700	  526.00	  514.12	-1744.16	  394.24
     45.7700	  474.00	  514.22	-1796.27	  394.02
     45.8700	  561.00	  514.33	-1709.38	  393.80
     45.9700	  510.00	  514.47	-1760.52	  393.58
     46.0700	  571.00	  514.64	-1699.69	  393.36
     46.1700	  513.00	  514.86	-1757.91	  393.15
     46.2700	  487.00	  515.13	-1784.18	  392.94
     46.3700	  496.00	  515.46	-1775.51	  392.73
     46.4700	  499.00	  515.85	-1772.90	  392.52
     46.5700	  525.00	  516.17	-1747.22	  392.31
     46.6700	  542.00	  516.73	-1730.78	  392.11
     46.7700	  475.00	  517.41	-1798.46	  391.91
     46.8700	  497.00	  518.23	-1777.28	  391.71
     46.9700	  525.00	  519.26	-1750.31	  391.51
     47.0700	  546.00	  520.61	-1730.66	  391.31
     47.1700	  482.00	  522.48	-1796.53	  391.12
     47.2700	  494.00	  525.21	-1787.26	  390.93
     47.3700	  539.00	  529.28	-1746.33	  390.74
     47.4700	  551.00	  535.30	-1740.35	  390.55
     47.5700	  533.00	  543.85	-1766.90	  390.37
     47.6700	  543.00	  555.22	-1768.27	  390.19
     47.7700	  590.00	  569.07	-1735.12	  390.01
     47.8700	  603.00	  583.99	-1737.04	  389.83
     47.9700	  614.00	  597.62	-1739.67	  389.65
     48.0700	  591.00	  605.31	-1770.36	  389.48
     48.1700	  613.00	  604.83	-1747.88	  389.31
     48.2700	  601.00	  597.12	-1752.17	  389.14
     48.3700	  535.00	  585.98	-1807.03	  388.97
     48.4700	  582.00	  575.07	-1749.12	  388.80
     48.5700	  538.00	  566.52	-1784.57	  388.64
     48.6700	  586.00	  561.22	-1731.27	  388.48
     48.7700	  534.00	  559.24	-1781.29	  388.32
     48.8700	  574.00	  560.27	-1742.32	  388.16
     48.9700	  552.00	  563.94	-1767.99	  388.01
     49.0700	  560.00	  570.08	-1766.13	  387.85
     49.1700	  568.00	  579.01	-1767.06	  387.70
     49.2700	  556.00	  591.79	-1791.84	  387.55
     49.3700	  581.00	  610.84	-1785.89	  387.41
     49.4700	  595.00	  640.69	-1801.74	  387.26
     49.5700	  655.00	  688.94	-1789.98	  387.12
     49.6700	  676.00	  766.63	-1846.68	  386.98
     49.7700	  767.00	  887.11	-1876.16	  386.84
     49.8700	  997.00	 1062.41	-1821.46	  386.71
     49.9700	 1247.00	 1296.95	-1806.00	  386.57
     50.0700	 1535.00	 1579.72	-1800.77	  386.44
     50.1700	 1951.00	 1875.84	-1680.89	  386.31
     50.2700	 2198.00	 2121.59	-1679.64	  386.18
     50.3700	 2365.00	 2236.71	-1627.76	  386.05
     50.4700	 2320.00	 2171.57	-1607.62	  385.93
     50.5700	 1991.00	 1954.19	-1719.24	  385.81
     50.6700	 1650.00	 1664.46	-1770.51	  385.69
     50.7700	 1304.00	 1376.14	-1828.19	  385.57
     50.8700	 1018.00	 1131.95	-1870.00	  385.46
     50.9700	  810.00	  948.09	-1894.14	  385.34
     51.0700	  728.00	  822.77	-1850.82	  385.23
     51.1700	  656.00	  744.16	-1844.21	  385.12
     51.2700	  647.00	  697.07	-1806.11	  385.01
     51.3700	  657.00	  667.53	-1766.58	  384.91
     51.4700	  623.00	  645.69	-1778.74	  384.80
     51.5700	  640.00	  626.82	-1742.86	  384.70
     51.6700	  571.00	  609.88	-1794.92	  384.60
     51.7700	  630.00	  595.23	-1721.28	  384.50
     51.8700	  632.00	  583.26	-1707.31	  384.41
     51.9700	  575.00	  574.06	-1755.11	  384.31
     52.0700	  560.00	  567.46	-1763.51	  384.22
     52.1700	  611.00	  563.15	-1708.20	  384.13
     52.2700	  550.00	  560.77	-1766.82	  384.04
     52.3700	  639.00	  560.06	-1677.11	  383.96
     52.4700	  594.00	  560.95	-1723.00	  383.88
     52.5700	  591.00	  563.67	-1728.72	  383.79
     52.6700	  581.00	  568.88	-1743.93	  383.71
     52.7700	  637.00	  577.90	-1696.95	  383.63
     52.8700	  608.00	  592.89	-1740.94	  383.56
     52.9700	  651.00	  616.99	-1722.04	  383.48
     53.0700	  649.00	  654.04	-1761.09	  383.41
     53.1700	  761.00	  707.81	-1702.86	  383.34
     53.2700	  761.00	  780.56	-1775.61	  383.27
     53.3700	  852.00	  871.24	-1775.29	  383.21
     53.4700	 1005.00	  973.36	-1724.41	  383.14
     53.5700	 1135.00	 1072.71	-1693.76	  383.08
     53.6700	 1270.00	 1147.13	-1633.18	  383.02
     53.7700	 1129.00	 1172.62	-1799.67	  382.96
     53.8700	 1179.00	 1138.96	-1716.01	  382.90
     53.9700	 1075.00	 1059.09	-1740.13	  382.84
     54.0700	  963.00	  958.10	-1751.15	  382.79
     54.1700	  852.00	  857.47	-1761.52	  382.74
     54.2700	  776.00	  770.00	-1750.05	  382.69
     54.3700	  664.00	  701.10	-1793.15	  382.64
     54.4700	  652.00	  651.10	-1755.15	  382.59
     54.5700	  647.00	  617.33	-1726.38	  382.55
     54.6700	  626.00	  595.90	-1725.95	  382.51
     54.7700	  601.00	  583.02	-1738.07	  382.46
     54.8700	  587.00	  575.71	-1744.76	  382.43
     54.9700	  580.00	  571.93	-1747.98	  382.39
     55.0700	  538.00	  570.47	-1788.51	  382.35
     55.1700	  623.00	  570.65	-1703.70	  382.32
     55.2700	  602.00	  572.20	-1726.25	  382.28
     55.3700	  589.00	  575.01	-1742.06	  382.25
     55.4700	  608.00	  579.14	-1727.19	  382.23
     55.5700	  567.00	  584.77	-1773.81	  382.20
     55.6700	  612.00	  592.26	-1736.31	  382.17
     55.7700	  600.00	  602.32	-1758.37	  382.15
     55.8700	  656.00	  616.24	-1716.29	  382.13
     55.9700	  636.00	  636.41	-1756.46	  382.11
     56.0700	  659.00	  666.87	-1763.92	  382.09
     56.1700	  691.00	  714.04	-1779.09	  382.07
     56.2700	  737.00	  786.96	-1806.01	  382.05
     56.3700	  870.00	  896.77	-1782.82	  382.04
     56.4700	  988.00	 1054.62	-1822.67	  382.03
     56.5700	 1185.00	 1267.91	-1838.96	  382.02
     56.6700	 1560.00	 1535.65	-1731.70	  382.01
     56.7700	 1787.00	 1842.85	-1811.90	  382.00
     56.8700	 2094.00	 2155.40	-1817.45	  381.99
     56.9700	 2412.00	 2416.98	-1761.03	  381.99
     57.0700	 2529.00	 2557.90	-1784.95	  381.99
     57.1700	 2578.00	 2529.58	-1707.63	  381.99
     57.2700	 2398.00	 2342.37	-1700.42	  381.99
     57.3700	 2094.00	 2057.51	-1719.56	  381.99
     57.4700	 1684.00	 1743.66	-1815.71	  381.99
     57.5700	 1397.00	 1450.12	-1809.17	  382.00
     57.6700	 1155.00	 1203.84	-1804.89	  382.00
     57.7700	  939.00	 1014.64	-1831.69	  382.01
     57.8700	  852.00	  880.47	-1784.52	  382.02
     57.9700	  800.00	  792.84	-1748.89	  382.03
     58.0700	  743.00	  741.44	-1754.49	  382.04
     58.1700	  715.00	  717.24	-1758.29	  382.05
     58.2700	  715.00	  714.05	-1755.10	  382.07
     58.3700	  703.00	  728.42	-1781.47	  382.09
     58.4700	  819.00	  758.73	-1695.78	  382.10
     58.5700	  818.00	  803.90	-1741.95	  382.12
     58.6700	  848.00	  862.01	-1770.06	  382.14
     58.7700	  978.00	  928.98	-1707.03	  382.17
     58.8700	 1054.00	  998.10	-1700.15	  382.19
     58.9700	 1078.00	 1061.94	-1739.99	  382.21
     59.0700	 1230.00	 1115.32	-1641.37	  382.24
     59.1700	 1276.00	 1155.01	-1635.06	  382.27
     59.2700	 1298.00	 1177.06	-1635.11	  382.30
     59.3700	 1312.00	 1178.58	-1622.63	  382.33
     59.4700	 1271.00	 1163.75	-1648.80	  382.36
     59.5700	 1303.00	 1143.99	-1597.04	  382.39
     59.6700	 1125.00	 1131.19	-1762.24	  382.42
     59.7700	 1158.00	 1132.69	-1730.74	  382.46
     59.8700	 1203.00	 1152.03	-1705.08	  382.50
     59.9700	 1248.00	 1191.56	-1699.61	  382.53
     60.0700	 1296.00	 1252.44	-1712.49	  382.57
     60.1700	 1430.00	 1330.70	-1656.75	  382.61
     60.2700	 1456.00	 1413.68	-1713.73	  382.65
     60.3700	 1537.00	 1479.22	-1698.27	  382.70
     60.4700	 1530.00	 1501.06	-1727.10	  382.74
     60.5700	 1538.00	 1462.45	-1680.50	  382.78
     60.6700	 1429.00	 1368.47	-1695.52	  382.83
     60.7700	 1291.00	 1241.38	-1706.43	  382.88
     60.8700	 1222.00	 1105.80	-1639.85	  382.92
     60.9700	  968.00	  979.89	-1767.94	  382.97
     61.0700	  861.00	  874.30	-1769.35	  383.02
     61.1700	  767.00	  793.83	-1782.88	  383.08
     61.2700	  712.00	  739.15	-1783.20	  383.13
     61.3700	  689.00	  708.92	-1775.97	  383.18
     61.4700	  714.00	  701.44	-1743.49	  383.24
     61.5700	  693.00	  715.93	-1778.98	  383.29
     61.6700	  731.00	  752.78	-1777.83	  383.35
     61.7700	  753.00	  812.87	-1815.92	  383.41
     61.8700	  878.00	  896.20	-1774.25	  383.47
     61.9700	  958.00	 1000.17	-1798.22	  383.53
     62.0700	 1146.00	 1117.81	-1727.86	  383.59
     62.1700	 1213.00	 1236.37	-1779.42	  383.65
     62.2700	 1245.00	 1336.39	-1847.44	  383.71
     62.3700	 1302.00	 1394.49	-1848.54	  383.77
     62.4700	 1301.00	 1392.97	-1848.01	  383.84
     62.5700	 1277.00	 1331.64	-1810.69	  383.90
     62.6700	 1196.00	 1228.04	-1788.09	  383.97
     62.7700	 1005.00	 1105.60	-1856.65	  384.04
     62.8700	  955.00	  983.58	-1784.63	  384.10
     62.9700	  817.00	  874.51	-1813.56	  384.17
     63.0700	  674.00	  784.72	-1866.77	  384.24
     63.1700	  697.00	  715.86	-1774.91	  384.31
     63.2700	  672.00	  666.32	-1750.37	  384.38
     63.3700	  640.00	  632.79	-1748.84	  384.46
     63.4700	  625.00	  611.48	-1742.53	  384.53
     63.5700	  596.00	  599.12	-1759.17	  384.60
     63.6700	  615.00	  593.45	-1734.50	  384.68
     63.7700	  608.00	  593.30	-1741.35	  384.75
     63.8700	  601.00	  598.63	-1753.68	  384.83
     63.9700	  632.00	  610.05	-1734.10	  384.91
     64.0700	  700.00	  628.90	-1684.95	  384.98
     64.1700	  683.00	  656.63	-1729.68	  385.06
     64.2700	  725.00	  694.30	-1725.35	  385.14
     64.3700	  759.00	  742.04	-1739.09	  385.22
     64.4700	  800.00	  798.37	-1754.42	  385.30
     64.5700	  901.00	  859.65	-1714.69	  385.38
     64.6700	  995.00	  919.49	-1680.54	  385.46
     64.7700	 1013.00	  969.25	-1712.30	  385.54
     64.8700	 1023.00	  999.43	-1732.48	  385.63
     64.9700	 1037.00	 1004.43	-1723.48	  385.71
     65.0700	 1035.00	  984.49	-1705.54	  385.79
     65.1700	  960.00	  945.10	-1741.15	  385.88
     65.2700	  934.00	  894.66	-1716.71	  385.96
     65.3700	  868.00	  841.44	-1729.49	  386.05
     65.4700	  841.00	  791.50	-1706.55	  386.13
     65.5700	  716.00	  747.47	-1787.52	  386.22
     65.6700	  705.00	  710.95	-1762.00	  386.30
     65.7700	  669.00	  680.71	-1767.76	  386.39
     65.8700	  631.00	  655.81	-1780.86	  386.48
     65.9700	  666.00	  635.77	-1725.82	  386.57
     66.0700	  613.00	  619.92	-1762.97	  386.66
     66.1700	  573.00	  607.74	-1790.79	  386.74
     66.2700	  595.00	  598.92	-1759.97	  386.83
     66.3700	  585.00	  593.08	-1764.13	  386.92
     66.4700	  591.00	  589.91	-1754.96	  387.01
     66.5700	  578.00	  589.19	-1767.24	  387.10
     66.6700	  554.00	  590.83	-1792.88	  387.20
     66.7700	  563.00	  594.98	-1788.03	  387.29
     66.8700	  590.00	  601.89	-1767.94	  387.38
     66.9700	  622.00	  612.52	-1746.57	  387.47
     67.0700	  619.00	  628.52	-1765.57	  387.56
     67.1700	  663.00	  652.51	-1745.56	  387.65
     67.2700	  691.00	  688.39	-1753.44	  387.75
     67.3700	  729.00	  741.30	-1768.34	  387.84
     67.4700	  808.00	  817.47	-1765.52	  387.93
     67.5700	  916.00	  923.16	-1763.21	  388.03
     67.6700	 1044.00	 1063.65	-1775.70	  388.12
     67.7700	 1237.00	 1241.13	-1760.18	  388.21
     67.8700	 1433.00	 1452.81	-1775.85	  388.31
     67.9700	 1621.00	 1688.94	-1823.99	  388.40
     68.0700	 1940.00	 1931.27	-1747.32	  388.49
     68.1700	 2093.00	 2151.83	-1814.88	  388.59
     68.2700	 2378.00	 2314.35	-1692.39	  388.68
     68.3700	 2448.00	 2383.41	-1691.46	  388.78
     68.4700	 2292.00	 2341.15	-1805.20	  388.87
     68.5700	 2189.00	 2198.72	-1765.77	  388.97
     68.6700	 1937.00	 1988.98	-1808.03	  389.06
     68.7700	 1767.00	 1749.23	-1738.28	  389.16
     68.8700	 1497.00	 1509.86	-1768.91	  389.25
     68.9700	 1284.00	 1291.49	-1763.53	  389.35
     69.0700	 1091.00	 1105.67	-1770.72	  389.44
     69.1700	  950.00	  956.69	-1762.74	  389.53
     69.2700	  818.00	  843.39	-1781.44	  389.63
     69.3700	  707.00	  761.09	-1810.14	  389.72
     69.4700	  709.00	  703.56	-1750.61	  389.82
     69.5700	  633.00	  664.44	-1787.49	  389.91
     69.6700	  650.00	  638.28	-1744.33	  390.01
     69.7700	  648.00	  620.80	-1728.84	  390.10
     69.8700	  638.00	  608.99	-1727.04	  390.20
     69.9700	  599.00	  600.92	-1757.97	  390.29
     70.0700	  584.00	  595.33	-1767.38	  390.38
     70.1700	  599.00	  591.54	-1748.59	  390.48
     70.2700	  591.00	  588.96	-1754.01	  390.57
     70.3700	  571.00	  588.77	-1773.82	  390.67
     70.4700	  576.00	  588.78	-1768.83	  390.76
     70.5700	  642.00	  590.04	-1704.09	  390.85
     70.6700	  616.00	  592.81	-1732.86	  390.95
     70.7700	  610.00	  597.56	-1743.61	  391.04
     70.8700	  658.00	  605.10	-1703.15	  391.13
     70.9700	  619.00	  616.71	-1753.76	  391.22
     71.0700	  624.00	  634.31	-1766.36	  391.31
     71.1700	  643.00	  660.56	-1773.61	  391.41
     71.2700	  676.00	  698.87	-1778.92	  391.50
     71.3700	  699.00	  753.17	-1810.22	  391.59
     71.4700	  809.00	  827.43	-1774.48	  391.68
     71.5700	  884.00	  924.90	-1796.94	  391.77
     71.6700	 1052.00	 1047.07	-1751.12	  391.86
     71.7700	 1197.00	 1192.62	-1751.67	  391.95
     71.8700	 1313.00	 1356.30	-1799.34	  392.04
     71.9700	 1513.00	 1528.04	-1771.08	  392.13
     72.0700	 1656.00	 1692.27	-1792.32	  392.21
     72.1700	 1766.00	 1828.15	-1818.20	  392.30
     72.2700	 1874.00	 1912.43	-1794.48	  392.39
     72.3700	 1910.00	 1927.17	-1773.21	  392.48
     72.4700	 1791.00	 1868.90	-1833.95	  392.56
     72.5700	 1737.00	 1750.79	-1769.84	  392.65
     72.6700	 1537.00	 1595.15	-1814.20	  392.74
     72.7700	 1406.00	 1424.35	-1774.40	  392.82
     72.8700	 1243.00	 1256.08	-1769.13	  392.90
     72.9700	 1100.00	 1102.41	-1758.46	  392.99
     73.0700	  979.00	  970.24	-1747.29	  393.07
     73.1700	  866.00	  862.22	-1752.27	  393.16
     73.2700	  813.00	  777.77	-1720.82	  393.24
     73.3700	  768.00	  714.27	-1702.32	  393.32
     73.4700	  665.00	  668.02	-1759.07	  393.40
     73.5700	  710.00	  635.13	-1681.18	  393.48
     73.6700	  697.00	  612.05	-1671.10	  393.56
     73.7700	  639.00	  595.90	-1712.95	  393.64
     73.8700	  636.00	  584.54	-1704.59	  393.72
     73.9700	  645.00	  576.48	-1687.53	  393.80
     74.0700	  607.00	  570.74	-1719.78	  393.87
     74.1700	  557.00	  566.69	-1765.74	  393.95
     74.2700	  630.00	  563.40	-1689.45	  394.03
     74.3700	  571.00	  561.67	-1746.72	  394.10
     74.4700	  585.00	  560.72	-1731.77	  394.18
     74.5700	  622.00	  560.34	-1694.39	  394.25
     74.6700	  599.00	  560.27	-1717.32	  394.32
     74.7700	  587.00	  560.24	-1729.29	  394.39
     74.8700	  650.00	  559.96	-1666.01	  394.47
     74.9700	  660.00	  559.18	-1655.23	  394.54
     75.0700	  646.00	  557.84	-1667.89	  394.61
     75.1700	  685.00	  556.04	-1627.09	  394.67
     75.2700	  640.00	  554.09	-1670.14	  394.74
     75.3700	  652.00	  552.32	-1656.37	  394.81
     75.4700	  668.00	  551.13	-1639.18	  394.88
     75.5700	  577.00	  550.90	-1729.94	  394.94
     75.6700	  633.00	  552.04	-1675.08	  395.01
     75.7700	  622.00	  554.98	-1689.03	  395.07
     75.8700	  597.00	  560.16	-1719.21	  395.13
     75.9700	  619.00	  567.99	-1705.04	  395.19
     76.0700	  574.00	  578.77	-1760.81	  395.26
     76.1700	  608.00	  592.61	-1740.65	  395.32
     76.2700	  630.00	  609.30	-1735.35	  395.37
     76.3700	  632.00	  628.44	-1752.49	  395.43
     76.4700	  676.00	  648.98	-1729.03	  395.49
     76.5700	  676.00	  669.45	-1749.50	  395.55
     76.6700	  681.00	  687.81	-1762.86	  395.60
     76.7700	  705.00	  701.65	-1752.70	  395.66
     76.8700	  707.00	  708.53	-1757.58	  395.71
     76.9700	  729.00	  707.23	-1734.28	  395.76
     77.0700	  711.00	  697.85	-1742.90	  395.81
     77.1700	  666.00	  682.09	-1772.14	  395.86
     77.2700	  627.00	  662.38	-1791.43	  395.91
     77.3700	  614.00	  641.04	-1783.09	  395.96
     77.4700	  598.00	  619.95	-1778.00	  396.00
     77.5700	  564.00	  600.46	-1792.51	  396.05
     77.6700	  564.00	  583.37	-1775.42	  396.09
     77.7700	  564.00	  569.08	-1761.13	  396.14
     77.8700	  517.00	  557.61	-1796.66	  396.18
     77.9700	  532.00	  548.70	-1772.75	  396.22
     78.0700	  564.00	  542.09	-1734.14	  396.26
     78.1700	  520.00	  537.28	-1773.32	  396.30
     78.2700	  522.00	  533.85	-1767.90	  396.34
     78.3700	  551.00	  531.43	-1736.48	  396.37
     78.4700	  453.00	  529.52	-1832.57	  396.41
     78.5700	  506.00	  528.33	-1778.38	  396.44
     78.6700	  510.00	  527.49	-1773.54	  396.47
     78.7700	  530.00	  526.90	-1752.95	  396.51
     78.8700	  507.00	  526.50	-1775.55	  396.54
     78.9700	  533.00	  526.25	-1749.30	  396.56
     79.0700	  530.00	  526.14	-1752.19	  396.59
     79.1700	  496.00	  526.17	-1786.22	  396.62
     79.2700	  510.00	  526.36	-1772.41	  396.64
     79.3700	  489.00	  526.72	-1793.76	  396.67
     79.4700	  542.00	  527.27	-1741.32	  396.69
     79.5700	  519.00	  528.07	-1765.12	  396.71
     79.6700	  501.00	  529.15	-1784.20	  396.73
     79.7700	  511.00	  530.56	-1775.61	  396.75
     79.8700	  492.00	  532.37	-1796.42	  396.77
     79.9700	  532.00	  534.66	-1758.70	  396.78
     80.0700	  558.00	  537.51	-1735.56	  396.80
     80.1700	  545.00	  541.05	-1752.10	  396.81
     80.2700	  519.00	  545.37	-1782.42	  396.82
     80.3700	  502.00	  550.59	-1804.64	  396.83
     80.4700	  545.00	  556.85	-1767.89	  396.84
     80.5700	  561.00	  564.26	-1759.31	  396.85
     80.6700	  584.00	  572.96	-1745.01	  396.85
     80.7700	  553.00	  583.04	-1786.09	  396.86
     80.8700	  601.00	  594.45	-1749.50	  396.86
     80.9700	  643.00	  606.76	-1719.81	  396.86
     81.0700	  650.00	  619.98	-1726.03	  396.86
     81.1700	  627.00	  633.29	-1762.34	  396.86
     81.2700	  660.00	  645.98	-1742.03	  396.86
     81.3700	  663.00	  657.41	-1750.46	  396.85
     81.4700	  719.00	  667.14	-1704.19	  396.85
     81.5700	  705.00	  674.89	-1725.93	  396.84
     81.6700	  705.00	  680.49	-1731.54	  396.83
     81.7700	  692.00	  683.85	-1747.89	  396.82
     81.8700	  739.00	  684.81	-1701.86	  396.81
     81.9700	  782.00	  683.22	-1657.27	  396.80
     82.0700	  720.00	  678.91	-1714.96	  396.78
     82.1700	  656.00	  671.92	-1771.97	  396.76
     82.2700	  713.00	  662.65	-1705.70	  396.75
     82.3700	  663.00	  651.75	-1744.80	  396.73
     82.4700	  672.00	  639.87	-1723.92	  396.71
     82.5700	  653.00	  627.56	-1730.61	  396.68
     82.6700	  611.00	  615.19	-1760.24	  396.66
     82.7700	  592.00	  603.12	-1767.17	  396.63
     82.8700	  581.00	  591.73	-1766.78	  396.60
     82.9700	  584.00	  581.41	-1753.46	  396.58
     83.0700	  546.00	  572.50	-1782.55	  396.54
     83.1700	  576.00	  565.23	-1745.28	  396.51
     83.2700	  519.00	  559.74	-1796.79	  396.48
     83.3700	  529.00	  556.07	-1783.12	  396.44
     83.4700	  505.00	  554.17	-1805.22	  396.41
     83.5700	  519.00	  553.92	-1790.97	  396.37
     83.6700	  539.00	  555.13	-1772.18	  396.33
     83.7700	  523.00	  557.53	-1790.58	  396.28
     83.8700	  564.00	  560.76	-1752.81	  396.24
     83.9700	  548.00	  564.41	-1772.46	  396.19
     84.0700	  505.00	  567.99	-1819.04	  396.15
     84.1700	  590.00	  570.95	-1737.00	  396.10
     84.2700	  569.00	  572.76	-1759.81	  396.05
     84.3700	  580.00	  572.96	-1749.01	  395.99
     84.4700	  546.00	  571.48	-1781.53	  395.94
     84.5700	  563.00	  568.48	-1761.53	  395.88
     84.6700	  567.00	  564.29	-1753.34	  395.83
     84.7700	  574.00	  559.34	-1741.39	  395.77
     84.8700	  521.00	  554.09	-1789.14	  395.71
     84.9700	  508.00	  548.89	-1796.94	  395.64
     85.0700	  556.00	  544.01	-1744.06	  395.58
     85.1700	  520.00	  539.66	-1775.71	  395.51
     85.2700	  501.00	  535.94	-1790.98	  395.45
     85.3700	  546.00	  532.89	-1742.94	  395.38
     85.4700	  491.00	  530.50	-1795.55	  395.30
     85.5700	  544.00	  528.74	-1740.79	  395.23
     85.6700	  555.00	  527.53	-1728.57	  395.16
     85.7700	  544.00	  526.82	-1738.87	  395.08
     85.8700	  559.00	  526.55	-1723.59	  395.00
     85.9700	  528.00	  526.68	-1754.73	  394.92
     86.0700	  529.00	  527.21	-1754.25	  394.84
     86.1700	  506.00	  528.15	-1778.20	  394.76
     86.2700	  543.00	  529.56	-1742.61	  394.67
     86.3700	  546.00	  531.54	-1741.59	  394.58
     86.4700	  516.00	  534.19	-1774.23	  394.49
     86.5700	  548.00	  537.64	-1745.69	  394.40
     86.6700	  589.00	  542.04	-1709.09	  394.31
     86.7700	  554.00	  547.52	-1749.57	  394.22
     86.8700	  553.00	  554.20	-1757.25	  394.12
     86.9700	  590.00	  562.13	-1728.18	  394.02
     87.0700	  587.00	  571.28	-1740.33	  393.92
     87.1700	  575.00	  581.53	-1762.58	  393.82
     87.2700	  584.00	  592.60	-1764.65	  393.72
     87.3700	  585.00	  604.06	-1775.11	  393.61
     87.4700	  616.00	  615.32	-1755.37	  393.50
     87.5700	  595.00	  625.62	-1786.67	  393.39
     87.6700	  625.00	  634.09	-1765.14	  393.28
     87.7700	  660.00	  639.85	-1735.90	  393.17
     87.8700	  641.00	  642.24	-1757.29	  393.06
     87.9700	  580.00	  641.03	-1817.08	  392.94
     88.0700	  622.00	  636.49	-1770.54	  392.82
     88.1700	  660.00	  629.35	-1725.40	  392.70
     88.2700	  632.00	  620.55	-1744.60	  392.58
     88.3700	  611.00	  611.06	-1756.11	  392.46
     88.4700	  590.00	  601.75	-1767.80	  392.33
     88.5700	  579.00	  593.34	-1770.39	  392.20
     88.6700	  617.00	  586.40	-1725.45	  392.07
     88.7700	  557.00	  581.31	-1780.36	  391.94
     88.8700	  567.00	  577.85	-1766.89	  391.81
     88.9700	  584.00	  576.91	-1748.96	  391.68
     89.0700	  578.00	  577.94	-1755.99	  391.54
     89.1700	  567.00	  580.65	-1769.70	  391.40
     89.2700	  640.00	  584.62	-1700.67	  391.26
     89.3700	  552.00	  589.33	-1793.37	  391.12
     89.4700	  620.00	  594.14	-1730.19	  390.98
     89.5700	  625.00	  598.38	-1729.43	  390.83
     89.6700	  626.00	  601.38	-1731.43	  390.68
     89.7700	  547.00	  602.56	-1811.61	  390.53
     89.8700	  597.00	  601.60	-1760.65	  390.38
     89.9700	  617.00	  598.51	-1737.56	  390.23
     90.0700	  571.00	  593.58	-1778.63	  390.07
     90.1700	  535.00	  587.30	-1808.35	  389.92
     90.2700	  567.00	  580.21	-1769.25	  389.76
     90.3700	  537.00	  572.79	-1791.84	  389.60
     90.4700	  516.00	  565.48	-1805.53	  389.44
     90.5700	  554.00	  558.60	-1760.65	  389.27
     90.6700	  572.00	  552.37	-1736.42	  389.11
     90.7700	  520.00	  546.95	-1783.00	  388.94
     90.8700	  542.00	  542.40	-1756.45	  388.77
     90.9700	  550.00	  538.74	-1744.79	  388.60
     91.0700	  550.00	  535.91	-1741.96	  388.43
     91.1700	  512.00	  533.86	-1777.91	  388.25
     91.2700	  535.00	  532.50	-1753.55	  388.08
     91.3700	  536.00	  531.77	-1751.82	  387.90
     91.4700	  512.00	  531.60	-1775.65	  387.72
     91.5700	  462.00	  531.97	-1826.02	  387.54
     91.6700	  529.00	  532.88	-1759.93	  387.35
     91.7700	  520.00	  534.37	-1770.42	  387.17
     91.8700	  515.00	  536.51	-1777.56	  386.98
     91.9700	  541.00	  539.42	-1754.47	  386.79
     92.0700	  550.00	  543.22	-1749.27	  386.60
     92.1700	  522.00	  548.06	-1782.11	  386.41
     92.2700	  517.00	  554.12	-1793.16	  386.21
     92.3700	  563.00	  561.52	-1754.57	  386.02
     92.4700	  539.00	  570.39	-1787.44	  385.82
     92.5700	  603.00	  580.82	-1733.87	  385.62
     92.6700	  562.00	  592.81	-1786.86	  385.42
     92.7700	  566.00	  606.30	-1796.34	  385.21
     92.8700	  594.00	  621.13	-1783.18	  385.01
     92.9700	  580.00	  637.06	-1813.11	  384.80
     93.0700	  617.00	  653.71	-1792.76	  384.60
     93.1700	  661.00	  670.62	-1765.67	  384.39
     93.2700	  669.00	  687.23	-1774.28	  384.17
     93.3700	  745.00	  702.99	-1714.04	  383.96
     93.4700	  733.00	  717.42	-1740.47	  383.75
     93.5700	  671.00	  730.36	-1815.41	  383.53
     93.6700	  685.00	  741.94	-1812.99	  383.31
     93.7700	  742.00	  752.59	-1766.64	  383.09
     93.8700	  761.00	  762.86	-1757.91	  382.87
     93.9700	  757.00	  773.27	-1772.32	  382.65
     94.0700	  779.00	  784.16	-1761.21	  382.42
     94.1700	  864.00	  795.70	-1687.75	  382.19
     94.2700	  841.00	  807.58	-1722.63	  381.97
     94.3700	  855.00	  820.38	-1721.43	  381.74
     94.4700	  820.00	  833.74	-1769.79	  381.50
     94.5700	  865.00	  847.57	-1738.62	  381.27
     94.6700	  854.00	  861.67	-1763.72	  381.04
     94.7700	  914.00	  875.60	-1717.65	  380.80
     94.8700	  891.00	  888.61	-1753.66	  380.56
     94.9700	  899.00	  899.59	-1756.64	  380.32
     95.0700	  929.00	  907.19	-1734.24	  380.08
     95.1700	  902.00	  910.05	-1764.10	  379.84
     95.2700	  938.00	  907.10	-1725.15	  379.60
     95.3700	  885.00	  897.87	-1768.92	  379.35
     95.4700	  814.00	  882.73	-1824.78	  379.10
     95.5700	  810.00	  862.74	-1808.78	  378.85
     95.6700	  794.00	  839.47	-1801.52	  378.60
     95.7700	  805.00	  814.68	-1765.73	  378.35
     95.8700	  784.00	  790.13	-1762.18	  378.10
     95.9700	  790.00	  767.47	-1733.52	  377.85
     96.0700	  816.00	  748.19	-1688.24	  377.59
     96.1700	  720.00	  733.67	-1769.72	  377.33
     96.2700	  758.00	  725.08	-1723.13	  377.07
     96.3700	  744.00	  723.48	-1735.53	  376.81
     96.4700	  754.00	  729.76	-1731.80	  376.55
     96.5700	  725.00	  744.62	-1775.67	  376.29
     96.6700	  777.00	  768.61	-1747.66	  376.02
     96.7700	  816.00	  802.00	-1742.05	  375.76
     96.8700	  934.00	  844.80	-1666.85	  375.49
     96.9700	  873.00	  896.64	-1779.69	  375.22
     97.0700	  928.00	  956.75	-1784.80	  374.95
     97.1700	 1001.00	 1023.90	-1778.95	  374.68
     97.2700	 1016.00	 1096.33	-1836.38	  374.41
     97.3700	 1227.00	 1171.68	-1700.73	  374.13
     97.4700	 1180.00	 1247.00	-1823.05	  373.86
     97.5700	 1367.00	 1318.79	-1707.83	  373.58
     97.6700	 1344.00	 1383.04	-1795.09	  373.30
     97.7700	 1401.00	 1435.60	-1790.64	  373.03
     97.8700	 1460.00	 1472.52	-1768.57	  372.75
     97.9700	 1419.00	 1490.90	-1827.95	  372.46
     98.0700	 1482.00	 1489.44	-1763.49	  372.18
     98.1700	 1435.00	 1468.79	-1789.84	  371.90
     98.2700	 1439.00	 1431.31	-1748.36	  371.61
     98.3700	 1381.00	 1380.55	-1755.60	  371.33
     98.4700	 1224.00	 1320.53	-1852.58	  371.04
     98.5700	 1196.00	 1255.34	-1815.39	  370.75
     98.6700	 1130.00	 1188.71	-1814.76	  370.46
     98.7700	 1143.00	 1123.97	-1737.02	  370.17
     98.8700	 1016.00	 1063.96	-1804.01	  369.88
     98.9700	  982.00	 1011.02	-1785.07	  369.59
     99.0700	  992.00	  967.04	-1731.09	  369.29
     99.1700	  923.00	  933.49	-1766.53	  369.00
     99.2700	  905.00	  911.46	-1762.51	  368.70
     99.3700	  923.00	  901.79	-1734.83	  368.41
     99.4700	  864.00	  904.95	-1797.00	  368.11
     99.5700	  882.00	  921.20	-1795.25	  367.81
     99.6700	  934.00	  950.49	-1772.54	  367.51
     99.7700	 1026.00	  992.53	-1722.58	  367.21
     99.8700	 1020.00	 1046.75	-1782.80	  366.91
     99.9700	 1125.00	 1112.25	-1743.30	  366.61
    100.0700	 1200.00	 1187.80	-1743.85	  366.30
    100.1700	 1262.00	 1271.72	-1765.77	  366.00
    100.2700	 1321.00	 1361.90	-1796.94	  365.69
    100.3700	 1483.00	 1455.68	-1728.73	  365.39
    100.4700	 1541.00	 1549.91	-1764.96	  365.08
    100.5700	 1653.00	 1641.24	-1744.29	  364.77
    100.6700	 1769.00	 1726.14	-1713.19	  364.47
    100.7700	 1821.00	 1801.50	-1736.55	  364.16
    100.8700	 1934.00	 1864.92	-1686.97	  363.85
    100.9700	 1917.00	 1914.80	-1753.85	  363.54
    101.0700	 2020.00	 1950.19	-1686.24	  363.23
    101.1700	 2011.00	 1970.45	-1715.50	  362.92
    101.2700	 2022.00	 1975.07	-1709.12	  362.60
    101.3700	 1925.00	 1963.64	-1794.69	  362.29
    101.4700	 1971.00	 1936.17	-1721.22	  361.98
    101.5700	 1904.00	 1893.51	-1745.56	  361.66
    101.6700	 1837.00	 1837.61	-1756.66	  361.35
    101.7700	 1718.00	 1771.56	-1809.61	  361.04
    101.8700	 1677.00	 1699.09	-1778.14	  360.72
    101.9700	 1637.00	 1624.09	-1743.14	  360.41
    102.0700	 1523.00	 1550.12	-1783.17	  360.09
    102.1700	 1464.00	 1480.11	-1772.16	  359.77
    102.2700	 1443.00	 1416.17	-1729.21	  359.46
    102.3700	 1433.00	 1359.58	-1682.63	  359.14
    102.4700	 1317.00	 1310.86	-1749.91	  358.82
    102.5700	 1319.00	 1269.77	-1706.82	  358.50
    102.6700	 1254.00	 1235.44	-1737.49	  358.18
    102.7700	 1173.00	 1206.40	-1789.45	  357.87
    102.8700	 1173.00	 1180.77	-1763.82	  357.55
    102.9700	 1156.00	 1156.50	-1756.55	  357.23
    103.0700	 1157.00	 1131.60	-1730.65	  356.91
    103.1700	 1054.00	 1104.47	-1806.52	  356.59
    103.2700	 1060.00	 1074.11	-1770.16	  356.27
    103.3700	 1022.00	 1040.23	-1774.28	  355.95
    103.4700	 1019.00	 1003.17	-1740.22	  355.63
    103.5700	 1004.00	  963.69	-1715.74	  355.31
    103.6700	  906.00	  922.78	-1772.83	  354.99
    103.7700	  934.00	  881.44	-1703.49	  354.67
    103.8700	  863.00	  840.66	-1733.71	  354.35
    103.9700	  790.00	  801.30	-1767.35	  354.03
    104.0700	  762.00	  764.07	-1758.12	  353.71
    104.1700	  704.00	  729.54	-1781.59	  353.39
    104.2700	  685.00	  698.10	-1769.15	  353.07
    104.3700	  730.00	  670.00	-1696.05	  352.75
    104.4700	  677.00	  645.34	-1724.39	  352.43
    104.5700	  598.00	  624.08	-1782.13	  352.11
    104.6700	  626.00	  606.09	-1736.14	  351.80
    104.7700	  578.00	  591.13	-1769.18	  351.48
    104.8700	  586.00	  578.94	-1748.99	  351.16
    104.9700	  619.00	  569.21	-1706.26	  350.84
    105.0700	  593.00	  561.64	-1724.69	  350.52
    105.1700	  573.00	  555.92	-1738.97	  350.21
    105.2700	  607.00	  551.79	-1700.84	  349.89
    105.3700	  534.00	  549.02	-1771.07	  349.57
    105.4700	  520.00	  547.40	-1783.45	  349.26
    105.5700	  547.00	  546.79	-1755.84	  348.94
    105.6700	  548.00	  547.06	-1755.10	  348.63
    105.7700	  546.00	  548.12	-1758.17	  348.31
    105.8700	  548.00	  549.93	-1757.98	  348.00
    105.9700	  571.00	  552.46	-1737.50	  347.69
    106.0700	  535.00	  555.69	-1776.74	  347.37
    106.1700	  601.00	  559.64	-1714.68	  347.06
    106.2700	  593.00	  564.34	-1727.39	  346.75
    106.3700	  559.00	  569.84	-1766.89	  346.44
    106.4700	  578.00	  576.16	-1754.21	  346.13
    106.5700	  581.00	  583.31	-1758.36	  345.82
    106.6700	  598.00	  591.30	-1749.35	  345.52
    106.7700	  608.00	  600.04	-1748.09	  345.21
    106.8700	  625.00	  609.47	-1740.52	  344.90
    106.9700	  654.00	  619.41	-1721.46	  344.60
    107.0700	  623.00	  629.67	-1762.72	  344.30
    107.1700	  640.00	  639.98	-1756.03	  343.99
    107.2700	  669.00	  650.03	-1737.08	  343.69
    107.3700	  633.00	  659.49	-1782.54	  343.39
    107.4700	  699.00	  668.00	-1725.05	  343.09
    107.5700	  649.00	  675.21	-1782.26	  342.79
    107.6700	  665.00	  680.84	-1771.89	  342.50
    107.7700	  685.00	  684.72	-1755.77	  342.20
    107.8700	  652.00	  686.86	-1790.91	  341.91
    107.9700	  658.00	  687.40	-1785.45	  341.61
    108.0700	  739.00	  686.64	-1703.69	  341.32
    108.1700	  711.00	  684.97	-1730.02	  341.03
    108.2700	  652.00	  682.79	-1786.84	  340.74
    108.3700	  661.00	  680.53	-1775.58	  340.45
    108.4700	  697.00	  678.54	-1737.59	  340.17
    108.5700	  647.00	  677.06	-1786.11	  339.88
    108.6700	  696.00	  676.29	-1736.34	  339.60
    108.7700	  710.00	  676.31	-1722.36	  339.32
    108.8700	  670.00	  677.08	-1763.13	  339.04
    108.9700	  678.00	  678.49	-1756.54	  338.76
    109.0700	  687.00	  680.32	-1749.37	  338.49
    109.1700	  709.00	  682.28	-1729.33	  338.21
    109.2700	  690.00	  683.99	-1750.04	  337.94
    109.3700	  677.00	  685.07	-1764.11	  337.67
    109.4700	  727.00	  685.11	-1714.16	  337.40
    109.5700	  675.00	  683.79	-1764.84	  337.13
    109.6700	  672.00	  680.89	-1764.94	  336.87
    109.7700	  676.00	  676.33	-1756.38	  336.61
    109.8700	  686.00	  670.16	-1740.21	  336.35
    109.9700	  689.00	  662.58	-1729.63	  336.09
    110.0700	  682.00	  653.86	-1727.91	  335.83
    110.1700	  641.00	  644.32	-1759.37	  335.58
    110.2700	  695.00	  634.30	-1695.35	  335.33
    110.3700	  642.00	  624.10	-1738.15	  335.08
    110.4700	  664.00	  614.01	-1706.06	  334.83
    110.5700	  579.00	  604.29	-1781.34	  334.58
    110.6700	  622.00	  595.15	-1729.20	  334.34
    110.7700	  604.00	  586.75	-1738.80	  334.10
    110.8700	  595.00	  579.23	-1740.27	  333.87
    110.9700	  608.00	  572.67	-1720.72	  333.63
    111.0700	  549.00	  567.12	-1774.17	  333.40
    111.1700	  630.00	  562.60	-1688.65	  333.17
    111.2700	  578.00	  559.09	-1737.14	  332.94
    111.3700	  581.00	  556.54	-1731.59	  332.72
    111.4700	  533.00	  554.89	-1777.94	  332.50
    111.5700	  540.00	  554.07	-1770.12	  332.28
    111.6700	  547.00	  553.99	-1763.04	  332.06
    111.7700	  557.00	  554.55	-1753.60	  331.85
    111.8700	  545.00	  555.66	-1766.71	  331.64
    111.9700	  558.00	  557.23	-1755.28	  331.43
    112.0700	  559.00	  559.18	-1756.23	  331.23
    112.1700	  574.00	  561.41	-1743.46	  331.03
    112.2700	  582.00	  563.88	-1737.93	  330.83
    112.3700	  554.00	  566.51	-1768.56	  330.64
    112.4700	  556.00	  569.29	-1769.34	  330.45
    112.5700	  594.00	  572.20	-1734.25	  330.26
    112.6700	  540.00	  575.24	-1791.29	  330.08
    112.7700	  584.00	  578.45	-1750.49	  329.90
    112.8700	  565.00	  581.87	-1772.92	  329.72
    112.9700	  604.00	  585.57	-1737.62	  329.55
    113.0700	  591.00	  589.63	-1754.68	  329.38
    113.1700	  573.00	  594.15	-1777.20	  329.21
    113.2700	  541.00	  599.26	-1814.31	  329.05
    113.3700	  612.00	  605.10	-1749.15	  328.89
    113.4700	  593.00	  611.84	-1774.89	  328.73
    113.5700	  608.00	  619.70	-1767.75	  328.58
    113.6700	  658.00	  628.96	-1727.01	  328.44
    113.7700	  622.00	  639.95	-1774.00	  328.29
    113.8700	  622.00	  653.09	-1787.14	  328.15
    113.9700	  679.00	  668.91	-1745.96	  328.02
    114.0700	  709.00	  688.03	-1735.08	  327.89
    114.1700	  708.00	  711.23	-1759.28	  327.76
    114.2700	  746.00	  739.44	-1749.49	  327.64
    114.3700	  834.00	  773.75	-1695.80	  327.52
    114.4700	  791.00	  815.44	-1780.49	  327.40
    114.5700	  859.00	  865.99	-1763.04	  327.29
    114.6700	  867.00	  927.03	-1816.08	  327.19
    114.7700	 1004.00	 1000.39	-1752.44	  327.09
    114.8700	 1065.00	 1088.05	-1779.10	  326.99
    114.9700	 1163.00	 1192.07	-1785.12	  326.90
    115.0700	 1360.00	 1314.53	-1710.58	  326.81
    115.1700	 1517.00	 1457.48	-1696.53	  326.73
    115.2700	 1666.00	 1622.85	-1712.90	  326.65
    115.3700	 1899.00	 1812.35	-1669.40	  326.58
    115.4700	 2100.00	 2027.24	-1683.29	  326.51
    115.5700	 2308.00	 2268.32	-1716.37	  326.45
    115.6700	 2689.00	 2535.71	-1602.76	  326.39
    115.7700	 3003.00	 2828.87	-1581.92	  326.34
    115.8700	 3154.00	 3146.38	-1748.43	  326.29
    115.9700	 3553.00	 3485.78	-1688.83	  326.24
    116.0700	 3798.00	 3843.62	-1801.67	  326.21
    116.1700	 4154.00	 4215.31	-1817.36	  326.18
    116.2700	 4605.00	 4595.31	-1746.36	  326.15
    116.3700	 4941.00	 4976.96	-1792.01	  326.13
    116.4700	 5361.00	 5352.45	-1747.50	  326.11
    116.5700	 5682.00	 5713.04	-1787.09	  326.10
    116.6700	 6128.00	 6049.17	-1677.22	  326.10
    116.7700	 6302.00	 6350.86	-1804.90	  326.10
    116.8700	 6610.00	 6607.99	-1754.04	  326.10
    116.9700	 6767.00	 6810.94	-1799.99	  326.12
    117.0700	 6759.00	 6951.49	-1948.54	  326.14
    117.1700	 6987.00	 7023.59	-1792.64	  326.16
    117.2700	 6918.00	 7024.20	-1862.25	  326.19
    117.3700	 6839.00	 6953.56	-1870.61	  326.23
    117.4700	 6747.00	 6815.25	-1824.30	  326.27
    117.5700	 6392.00	 6615.67	-1979.72	  326.32
    117.6700	 6326.00	 6363.35	-1793.39	  326.37
    117.7700	 6077.00	 6067.90	-1746.95	  326.43
    117.8700	 5727.00	 5739.36	-1768.41	  326.50
    117.9700	 5257.00	 5387.66	-1886.70	  326.58
    118.0700	 4992.00	 5022.09	-1786.14	  326.66
    118.1700	 4654.00	 4651.16	-1753.21	  326.74
    118.2700	 4346.00	 4282.24	-1692.29	  326.84
    118.3700	 3974.00	 3921.64	-1703.69	  326.94
    118.4700	 3615.00	 3574.67	-1715.72	  327.05
    118.5700	 3313.00	 3245.49	-1688.54	  327.16
    118.6700	 3059.00	 2937.24	-1634.29	  327.28
    118.7700	 2775.00	 2651.97	-1633.02	  327.41
    118.8700	 2399.00	 2390.87	-1747.92	  327.54
    118.9700	 2154.00	 2154.41	-1756.46	  327.69
    119.0700	 2047.00	 1942.33	-1651.37	  327.84
    119.1700	 1697.00	 1753.86	-1812.91	  327.99
    119.2700	 1554.00	 1587.77	-1789.82	  328.16
    119.3700	 1553.00	 1442.52	-1645.57	  328.33
    119.4700	 1330.00	 1316.39	-1742.44	  328.51
    119.5700	 1209.00	 1207.56	-1754.61	  328.69
    119.6700	 1195.00	 1114.16	-1675.21	  328.89
    119.7700	 1064.00	 1034.34	-1726.39	  329.09
    119.8700	 1025.00	  966.34	-1697.39	  329.30
    119.9700	  887.00	  908.56	-1777.61	  329.52
    120.0700	  865.00	  859.53	-1750.58	  329.74
    120.1700	  826.00	  817.94	-1747.99	  329.98
    120.2700	  814.00	  782.65	-1724.70	  330.22
    120.3700	  796.00	  752.67	-1712.72	  330.47
    120.4700	  733.00	  727.19	-1750.24	  330.73
    120.5700	  679.00	  705.50	-1782.55	  330.99
    120.6700	  694.00	  687.02	-1749.07	  331.27
    120.7700	  632.00	  671.29	-1795.33	  331.55
    120.8700	  636.00	  657.90	-1777.95	  331.84
    120.9700	  598.00	  646.54	-1804.59	  332.14
    121.0700	  616.00	  636.96	-1777.01	  332.45
    121.1700	  638.00	  628.94	-1746.99	  332.77
    121.2700	  594.00	  622.31	-1784.36	  333.09
    121.3700	  603.00	  616.93	-1769.98	  333.43
    121.4700	  611.00	  612.68	-1757.73	  333.77
    121.5700	  603.00	  609.46	-1762.50	  334.12
    121.6700	  559.00	  607.18	-1804.23	  334.49
    121.7700	  555.00	  605.77	-1806.82	  334.86
    121.8700	  617.00	  605.16	-1744.21	  335.24
    121.9700	  600.00	  605.27	-1761.32	  335.63
    122.0700	  601.00	  606.05	-1761.10	  336.03
    122.1700	  594.00	  607.43	-1769.48	  336.44
    122.2700	  593.00	  609.34	-1772.39	  336.86
    122.3700	  578.00	  611.70	-1789.75	  337.28
    122.4700	  612.00	  614.44	-1758.49	  337.72
    122.5700	  616.00	  617.47	-1757.52	  338.17
    122.6700	  600.00	  620.70	-1776.75	  338.63
    122.7700	  636.00	  624.04	-1744.09	  339.09
    122.8700	  573.00	  627.38	-1810.43	  339.57
    122.9700	  656.00	  630.62	-1730.67	  340.06
    123.0700	  609.00	  633.66	-1780.71	  340.56
    123.1700	  619.00	  636.38	-1773.43	  341.07
    123.2700	  656.00	  638.70	-1738.75	  341.59
    123.3700	  676.00	  640.52	-1720.57	  342.12
    123.4700	  598.00	  641.78	-1799.83	  342.66
    123.5700	  685.00	  642.44	-1713.49	  343.21
    123.6700	  641.00	  642.48	-1757.53	  343.77
    123.7700	  631.00	  641.92	-1766.97	  344.34
    123.8700	  635.00	  640.79	-1761.84	  344.93
    123.9700	  647.00	  639.13	-1748.18	  345.52
    124.0700	  611.00	  637.02	-1782.07	  346.13
    124.1700	  621.00	  634.52	-1769.57	  346.74
    124.2700	  639.00	  631.71	-1748.75	  347.37
    124.3700	  618.00	  628.62	-1766.67	  348.01
    124.4700	  608.00	  625.39	-1773.44	  348.66
    124.5700	  645.00	  622.06	-1733.11	  349.32
    124.6700	  624.00	  618.68	-1750.73	  350.00
    124.7700	  633.00	  615.31	-1738.36	  350.68
    124.8700	  700.00	  612.01	-1668.06	  351.38
    124.9700	  569.00	  460.79	-1647.84	  352.09
    125.0700	  598.00	  461.51	-1756.05	  352.81
    125.1700	  590.00	  462.25	-1756.05	  353.55
    125.2700	  589.00	  462.99	-1756.05	  354.29
    125.3700	  634.00	  463.75	-1756.05	  355.05
    125.4700	  584.00	  464.52	-1756.05	  355.82
    125.5700	  560.00	  465.30	-1756.05	  356.60
    125.6700	  565.00	  466.10	-1756.05	  357.40
    125.7700	  556.00	  466.91	-1756.05	  358.21
    125.8700	  570.00	  467.73	-1756.05	  359.03
    125.9700	  583.00	  468.56	-1756.05	  359.86
    126.0700	  568.00	  469.41	-1756.05	  360.71
    126.1700	  551.00	  470.27	-1756.05	  361.57
    126.2700	  590.00	  471.14	-1756.05	  362.44
    126.3700	  555.00	  472.03	-1756.05	  363.33
    126.4700	  602.00	  472.93	-1756.05	  364.23
    126.5700	  599.00	  473.84	-1756.05	  365.14
    126.6700	  583.00	  474.76	-1756.05	  366.07
    126.7700	  587.00	  475.70	-1756.05	  367.01
    126.8700	  548.00	  476.66	-1756.05	  367.96
    126.9700	  573.00	  477.63	-1756.05	  368.93
    127.0700	  573.00	  478.61	-1756.05	  369.91
    127.1700	  576.00	  479.60	-1756.05	  370.90
    127.2700	  571.00	  480.61	-1756.05	  371.91
    127.3700	  525.00	  481.63	-1756.05	  372.94
    127.4700	  538.00	  482.67	-1756.05	  373.97
    127.5700	  573.00	  483.72	-1756.05	  375.03
    127.6700	  585.00	  484.79	-1756.05	  376.09
    127.7700	  612.00	  485.87	-1756.05	  377.17
    127.8700	  622.00	  486.97	-1756.05	  378.27
    127.9700	  581.00	  488.08	-1756.05	  379.38
    128.0700	  612.00	  489.20	-1756.05	  380.51
    128.1700	  643.00	  490.35	-1756.05	  381.65
    128.2700	  674.00	  491.50	-1756.05	  382.80
    128.3700	  655.00	  492.67	-1756.05	  383.97
    128.4700	  625.00	  493.86	-1756.05	  385.16
    128.5700	    0.00	  495.06	-1756.05	  386.36
    128.6700	    0.00	  496.28	-1756.05	  387.58
     12.3587	        	        	        	        	       0	(  0  0  2)	  0  1
     24.9948	        	        	        	        	       0	(  0  0  4)	  0  1
     28.4195	        	        	        	        	       0	(  1  0  0)	  0  1
     29.1205	        	        	        	        	       0	(  1  0  1)	  0  1
     31.1373	        	        	        	        	       0	(  1  0  2)	  0  1
     34.2619	        	        	        	        	       0	(  1  0  3)	  0  1
     37.9510	        	        	        	        	       0	(  0  0  6)	  0  1
     38.2594	        	        	        	        	       0	(  1  0  4)	  0  1
     42.9333	        	        	        	        	       0	(  1  0  5)	  0  1
     48.1441	        	        	        	        	       0	(  1  0  6)	  0  1
     50.4308	        	        	        	        	       0	(  1  1  0)	  0  1
     51.4367	        	        	        	        	       0	(  0  0  8)	  0  1
     52.1639	        	        	        	        	       0	(  1  1  2)	  0  1
     53.8043	        	        	        	        	       0	(  1  0  7)	  0  1
     57.1409	        	        	        	        	       0	(  1  1  4)	  0  1
     58.9600	        	        	        	        	       0	(  2  0  0)	  0  1
     59.3540	        	        	        	        	       0	(  2  0  1)	  0  1
     59.8677	        	        	        	        	       0	(  1  0  8)	  0  1
     60.5266	        	        	        	        	       0	(  2  0  2)	  0  1
     62.4517	        	        	        	        	       0	(  2  0  3)	  0  1
     64.8818	        	        	        	        	       0	(  1  1  6)	  0  1
     65.0921	        	        	        	        	       0	(  2  0  4)	  0  1
     65.7420	        	        	        	        	       0	(  0  0 10)	  0  1
     66.3210	        	        	        	        	       0	(  1  0  9)	  0  1
     68.4073	        	        	        	        	       0	(  2  0  5)	  0  1
     72.3604	        	        	        	        	       0	(  2  0  6)	  0  1
     73.1790	        	        	        	        	       0	(  1  0 10)	  0  1
     74.9837	        	        	        	        	       0	(  1  1  8)	  0  1
     76.9251	        	        	        	        	       0	(  2  0  7)	  0  1
     80.4852	        	        	        	        	       0	(  1  0 11)	  0  1
     81.3014	        	        	        	        	       0	(  2  1  0)	  0  1
     81.3207	        	        	        	        	       0	(  0  0 12)	  0  1
     81.6438	        	        	        	        	       0	(  2  1  1)	  0  1
     82.0918	        	        	        	        	       0	(  2  0  8)	  0  1
     82.6692	        	        	        	        	       0	(  2  1  2)	  0  1
     84.3733	        	        	        	        	       0	(  2  1  3)	  0  1
     86.7511	        	        	        	        	       0	(  2  1  4)	  0  1
     87.3435	        	        	        	        	       0	(  1  1 10)	  0  1
     87.8734	        	        	        	        	       0	(  2  0  9)	  0  1
     88.3173	        	        	        	        	       0	(  1  0 12)	  0  1
     89.8011	        	        	        	        	       0	(  2  1  5)	  0  1
     93.5294	        	        	        	        	       0	(  2  1  6)	  0  1
     94.3137	        	        	        	        	       0	(  2  0 10)	  0  1
     95.2713	        	        	        	        	       0	(  3  0  0)	  0  1
     95.6117	        	        	        	        	       0	(  3  0  1)	  0  1
     96.6339	        	        	        	        	       0	(  3  0  2)	  0  1
     96.8021	        	        	        	        	       0	(  1  0 13)	  0  1
     97.9569	        	        	        	        	       0	(  2  1  7)	  0  1
     98.3426	        	        	        	        	       0	(  3  0  3)	  0  1
     99.0040	        	        	        	        	       0	(  0  0 14)	  0  1
    100.7479	        	        	        	        	       0	(  3  0  4)	  0  1
    101.5019	        	        	        	        	       0	(  2  0 11)	  0  1
    102.3458	        	        	        	        	       0	(  1  1 12)	  0  1
    103.1287	        	        	        	        	       0	(  2  1  8)	  0  1
    103.8699	        	        	        	        	       0	(  3  0  5)	  0  1
    106.1484	        	        	        	        	       0	(  1  0 14)	  0  1
    107.7453	        	        	        	        	       0	(  3  0  6)	  0  1
    109.1293	        	        	        	        	       0	(  2  1  9)	  0  1
    109.6000	        	        	        	        	       0	(  2  0 12)	  0  1
    112.4390	        	        	        	        	       0	(  3  0  7)	  0  1
    116.1118	        	        	        	        	       0	(  2  1 10)	  0  1
    116.7252	        	        	        	        	       0	(  1  0 15)	  0  1
    117.1805	        	        	        	        	       0	(  2  2  0)	  0  1
    118.0645	        	        	        	        	       0	(  3  0  8)	  0  1
    118.7160	        	        	        	        	       0	(  2  2  2)	  0  1
    118.9069	        	        	        	        	       0	(  2  0 13)	  0  1
    120.7627	        	        	        	        	       0	(  0  0 16)	  0  1
    121.4321	        	        	        	        	       0	(  1  1 14)	  0  1
    123.4701	        	        	        	        	       0	(  2  2  4)	  0  1
    124.3626	        	        	        	        	       0	(  2  1 11)	  0  1
    124.8269	        	        	        	        	       0	(  3  0  9)	  0  1
    125.3465	        	        	        	        	       0	(  3  1  0)	  0  1
    125.7635	        	        	        	        	       0	(  3  1  1)	  0  1
    127.0279	        	        	        	        	       0	(  3  1  2)	  0  1
    129.1841	        	        	        	        	       0	(  3  1  3)	  0  1
    129.2891	        	        	        	        	       0	(  1  0 16)	  0  1
    130.0341	        	        	        	        	       0	(  2  0 14)	  0  1
    132.0622	        	        	        	        	       0	(  2  2  6)	  0  1
    132.3203	        	        	        	        	       0	(  3  1  4)	  0  1
    133.1272	        	        	        	        	       0	(  3  0 10)	  0  1
    134.4785	        	        	        	        	       0	(  2  1 12)	  0  1
    136.6016	        	        	        	        	       0	(  3  1  5)	  0  1
    142.3530	        	        	        	        	       0	(  3  1  6)	  0  1
    143.9082	        	        	        	        	       0	(  3  0 11)	  0  1
    144.5963	        	        	        	        	       0	(  2  0 15)	  0  1
    145.9745	        	        	        	        	       0	(  1  0 17)	  0  1
    146.7084	        	        	        	        	       0	(  2  2  8)	  0  1
    148.0856	        	        	        	        	       0	(  2  1 13)	  0  1
    150.3305	        	        	        	        	       0	(  3  1  7)	  0  1
    151.2832	        	        	        	        	       0	(  1  1 16)	  0  1
    156.1311	        	        	        	        	       0	(  0  0 18)	  0  1
    160.7830	        	        	        	        	       0	(  4  0  0)	  0  1
    160.8416	        	        	        	        	       0	(  3  0 12)	  0  1
    161.8472	        	        	        	        	       0	(  4  0  1)	  0  1
    163.3409	        	        	        	        	       0	(  3  1  8)	  0  1
    165.4886	        	        	        	        	       0	(  4  0  2)	  0  1
    176.4403	        	        	        	        	       0	(  4  0  3)	  0  1
