MSG Master    CELL:    5.91890   5.91890  23.27000   90.0000   90.0000  120.0000   SPGR: P 63/m m c             TEMP:   1074.85
  1   1280     2.52000     0.00000    -0.13113     0.00000     0.00000    0
    99     0     2
       0.00000      10.00000
     125.00000     130.00000
 2Theta	Yobs	Ycal	Yobs-Ycal	Backg	Posr	(hkl)	K
      0.7700	    0.00	  525.26	-1742.25	  408.74
      0.8700	    0.00	  526.33	-1742.25	  409.81
      0.9700	   41.00	  527.39	-1742.25	  410.87
      1.0700	   36.00	  528.44	-1742.25	  411.92
      1.1700	   45.00	  529.47	-1742.25	  412.95
      1.2700	   39.00	  530.49	-1742.25	  413.97
      1.3700	   40.00	  531.49	-1742.25	  414.97
      1.4700	   93.00	  532.48	-1742.25	  415.96
      1.5700	  306.00	  533.46	-1742.25	  416.94
      1.6700	  438.00	  534.42	-1742.25	  417.90
      1.7700	  567.00	  535.37	-1742.25	  418.85
      1.8700	  659.00	  536.30	-1742.25	  419.78
      1.9700	  774.00	  537.22	-1742.25	  420.70
      2.0700	  784.00	  538.13	-1742.25	  421.61
      2.1700	  827.00	  539.02	-1742.25	  422.50
      2.2700	  781.00	  539.90	-1742.25	  423.39
      2.3700	  714.00	  540.77	-1742.25	  424.25
      2.4700	  680.00	  541.63	-1742.25	  425.11
      2.5700	  644.00	  542.47	-1742.25	  425.95
      2.6700	  655.00	  543.30	-1742.25	  426.78
      2.7700	  618.00	  544.11	-1742.25	  427.59
      2.8700	  647.00	  544.92	-1742.25	  428.40
      2.9700	  655.00	  545.71	-1742.25	  429.19
      3.0700	  626.00	  546.48	-1742.25	  429.97
      3.1700	  585.00	  547.25	-1742.25	  430.73
      3.2700	  616.00	  548.00	-1742.25	  431.48
      3.3700	  687.00	  548.74	-1742.25	  432.22
      3.4700	  744.00	  549.47	-1742.25	  432.95
      3.5700	  799.00	  550.19	-1742.25	  433.67
      3.6700	  848.00	  550.89	-1742.25	  434.37
      3.7700	  883.00	  551.59	-1742.25	  435.07
      3.8700	  965.00	  552.27	-1742.25	  435.75
      3.9700	  972.00	  552.94	-1742.25	  436.42
      4.0700	 1026.00	  553.59	-1742.25	  437.07
      4.1700	 1045.00	  554.24	-1742.25	  437.72
      4.2700	 1090.00	  554.87	-1742.25	  438.35
      4.3700	 1071.00	  555.50	-1742.25	  438.98
      4.4700	 1030.00	  556.11	-1742.25	  439.59
      4.5700	  985.00	  556.71	-1742.25	  440.19
      4.6700	 1020.00	  557.30	-1742.25	  440.78
      4.7700	  958.00	  557.87	-1742.25	  441.36
      4.8700	  950.00	  558.44	-1742.25	  441.92
      4.9700	  961.00	  559.00	-1742.25	  442.48
      5.0700	  946.00	  559.54	-1742.25	  443.02
      5.1700	  914.00	  560.08	-1742.25	  443.56
      5.2700	  927.00	  560.60	-1742.25	  444.08
      5.3700	  865.00	  561.11	-1742.25	  444.60
      5.4700	  907.00	  561.62	-1742.25	  445.10
      5.5700	  852.00	  562.11	-1742.25	  445.59
      5.6700	  799.00	  562.59	-1742.25	  446.07
      5.7700	  879.00	  563.06	-1742.25	  446.54
      5.8700	  820.00	  563.52	-1742.25	  447.01
      5.9700	  802.00	  563.98	-1742.25	  447.46
      6.0700	  806.00	  564.42	-1742.25	  447.90
      6.1700	  719.00	  564.85	-1742.25	  448.33
      6.2700	  783.00	  565.27	-1742.25	  448.75
      6.3700	  769.00	  565.68	-1742.25	  449.16
      6.4700	  727.00	  566.08	-1742.25	  449.57
      6.5700	  734.00	  566.48	-1742.25	  449.96
      6.6700	  715.00	  566.86	-1742.25	  450.34
      6.7700	  724.00	  567.23	-1742.25	  450.71
      6.8700	  691.00	  567.60	-1742.25	  451.08
      6.9700	  756.00	  567.95	-1742.25	  451.43
      7.0700	  687.00	  568.30	-1742.25	  451.78
      7.1700	  688.00	  568.63	-1742.25	  452.11
      7.2700	  703.00	  568.96	-1742.25	  452.44
      7.3700	  637.00	  569.28	-1742.25	  452.76
      7.4700	  701.00	  569.59	-1742.25	  453.07
      7.5700	  625.00	  569.89	-1742.25	  453.37
      7.6700	  627.00	  570.18	-1742.25	  453.66
      7.7700	  647.00	  570.46	-1742.25	  453.94
      7.8700	  649.00	  570.74	-1742.25	  454.22
      7.9700	  614.00	  571.00	-1742.25	  454.48
      8.0700	  621.00	  571.26	-1742.25	  454.74
      8.1700	  650.00	  571.51	-1742.25	  454.99
      8.2700	  602.00	  571.75	-1742.25	  455.23
      8.3700	  684.00	  571.98	-1742.25	  455.46
      8.4700	  578.00	  572.20	-1742.25	  455.69
      8.5700	  611.00	  572.42	-1742.25	  455.90
      8.6700	  650.00	  572.63	-1742.25	  456.11
      8.7700	  603.00	  572.83	-1742.25	  456.31
      8.8700	  655.00	  573.02	-1742.25	  456.50
      8.9700	  587.00	  573.20	-1742.25	  456.68
      9.0700	  652.00	  573.38	-1742.25	  456.86
      9.1700	  621.00	  573.55	-1742.25	  457.03
      9.2700	  607.00	  573.71	-1742.25	  457.19
      9.3700	  608.00	  573.86	-1742.25	  457.34
      9.4700	  604.00	  574.01	-1742.25	  457.49
      9.5700	  648.00	  574.15	-1742.25	  457.63
      9.6700	  645.00	  574.28	-1742.25	  457.76
      9.7700	  565.00	  574.40	-1742.25	  457.88
      9.8700	  632.00	  574.52	-1742.25	  458.00
      9.9700	  602.00	  574.62	-1742.25	  458.11
     10.0700	  572.00	  575.44	-1745.69	  458.21
     10.1700	  610.00	  575.61	-1707.86	  458.30
     10.2700	  594.00	  575.79	-1724.04	  458.39
     10.3700	  615.00	  575.99	-1703.24	  458.47
     10.4700	  582.00	  576.23	-1736.48	  458.55
     10.5700	  603.00	  576.57	-1715.82	  458.61
     10.6700	  581.00	  577.09	-1738.34	  458.67
     10.7700	  599.00	  577.89	-1721.14	  458.73
     10.8700	  636.00	  579.02	-1685.27	  458.78
     10.9700	  571.00	  580.48	-1751.73	  458.82
     11.0700	  573.00	  582.23	-1751.48	  458.85
     11.1700	  572.00	  584.27	-1754.52	  458.88
     11.2700	  570.00	  586.64	-1758.89	  458.90
     11.3700	  612.00	  589.40	-1719.65	  458.92
     11.4700	  597.00	  592.67	-1737.92	  458.93
     11.5700	  603.00	  596.62	-1735.87	  458.93
     11.6700	  608.00	  601.58	-1735.83	  458.93
     11.7700	  614.00	  608.06	-1736.31	  458.92
     11.8700	  609.00	  616.89	-1750.14	  458.90
     11.9700	  647.00	  628.62	-1723.87	  458.88
     12.0700	  649.00	  641.77	-1735.02	  458.86
     12.1700	  700.00	  650.84	-1693.09	  458.82
     12.2700	  696.00	  647.33	-1693.58	  458.79
     12.3700	  647.00	  629.20	-1724.45	  458.74
     12.4700	  627.00	  607.66	-1722.91	  458.69
     12.5700	  590.00	  592.18	-1744.43	  458.64
     12.6700	  596.00	  583.90	-1730.15	  458.58
     12.7700	  509.00	  580.20	-1813.45	  458.51
     12.8700	  574.00	  578.54	-1746.79	  458.44
     12.9700	  542.00	  577.64	-1777.89	  458.36
     13.0700	  529.00	  577.02	-1790.27	  458.28
     13.1700	  565.00	  576.56	-1753.81	  458.20
     13.2700	  557.00	  576.19	-1761.44	  458.10
     13.3700	  564.00	  575.87	-1754.12	  458.01
     13.4700	  576.00	  575.60	-1741.85	  457.91
     13.5700	  551.00	  575.36	-1766.61	  457.80
     13.6700	  562.00	  575.14	-1755.39	  457.69
     13.7700	  584.00	  574.93	-1733.18	  457.57
     13.8700	  549.00	  574.73	-1767.98	  457.45
     13.9700	  554.00	  574.54	-1762.79	  457.32
     14.0700	  589.00	  574.36	-1727.61	  457.19
     14.1700	  553.00	  574.18	-1763.43	  457.06
     14.2700	  559.00	  574.00	-1757.25	  456.92
     14.3700	  589.00	  573.82	-1727.07	  456.77
     14.4700	  561.00	  573.64	-1754.89	  456.63
     14.5700	  544.00	  573.46	-1771.71	  456.47
     14.6700	  566.00	  573.28	-1749.53	  456.32
     14.7700	  546.00	  573.10	-1769.35	  456.15
     14.8700	  535.00	  572.91	-1780.16	  455.99
     14.9700	  520.00	  572.72	-1794.97	  455.82
     15.0700	  582.00	  572.54	-1732.79	  455.64
     15.1700	  621.00	  572.34	-1693.59	  455.47
     15.2700	  537.00	  572.15	-1777.40	  455.28
     15.3700	  568.00	  571.95	-1746.20	  455.10
     15.4700	  596.00	  571.75	-1718.00	  454.91
     15.5700	  585.00	  571.55	-1728.80	  454.71
     15.6700	  566.00	  571.34	-1747.59	  454.51
     15.7700	  543.00	  571.13	-1770.38	  454.31
     15.8700	  575.00	  570.92	-1738.17	  454.11
     15.9700	  538.00	  570.70	-1774.95	  453.90
     16.0700	  549.00	  570.49	-1763.74	  453.69
     16.1700	  556.00	  570.29	-1756.54	  453.47
     16.2700	  546.00	  570.06	-1766.31	  453.25
     16.3700	  574.00	  569.84	-1738.09	  453.03
     16.4700	  577.00	  569.61	-1734.86	  452.80
     16.5700	  575.00	  569.37	-1736.62	  452.57
     16.6700	  556.00	  569.14	-1755.39	  452.34
     16.7700	  602.00	  568.90	-1709.15	  452.10
     16.8700	  573.00	  568.66	-1737.91	  451.86
     16.9700	  543.00	  568.41	-1767.66	  451.62
     17.0700	  542.00	  568.16	-1768.41	  451.37
     17.1700	  553.00	  567.91	-1757.16	  451.12
     17.2700	  584.00	  567.66	-1725.91	  450.87
     17.3700	  540.00	  567.40	-1769.65	  450.62
     17.4700	  520.00	  567.14	-1789.39	  450.36
     17.5700	  535.00	  566.88	-1774.13	  450.10
     17.6700	  570.00	  566.61	-1738.86	  449.84
     17.7700	  557.00	  566.35	-1751.60	  449.57
     17.8700	  558.00	  566.08	-1750.33	  449.30
     17.9700	  560.00	  565.91	-1748.16	  449.03
     18.0700	  576.00	  565.64	-1731.89	  448.75
     18.1700	  578.00	  565.36	-1729.61	  448.48
     18.2700	  570.00	  565.08	-1737.33	  448.20
     18.3700	  568.00	  564.80	-1739.05	  447.92
     18.4700	  572.00	  564.52	-1734.77	  447.63
     18.5700	  596.00	  564.24	-1710.49	  447.34
     18.6700	  579.00	  563.95	-1727.20	  447.05
     18.7700	  595.00	  563.66	-1710.91	  446.76
     18.8700	  589.00	  563.45	-1716.70	  446.47
     18.9700	  538.00	  563.16	-1767.41	  446.17
     19.0700	  601.00	  562.87	-1704.12	  445.87
     19.1700	  577.00	  562.57	-1727.82	  445.57
     19.2700	  598.00	  562.27	-1706.52	  445.27
     19.3700	  549.00	  561.98	-1755.23	  444.96
     19.4700	  527.00	  561.67	-1776.92	  444.66
     19.5700	  593.00	  561.37	-1710.62	  444.35
     19.6700	  583.00	  561.07	-1720.32	  444.04
     19.7700	  583.00	  560.76	-1720.01	  443.72
     19.8700	  593.00	  560.46	-1709.71	  443.41
     19.9700	  578.00	  560.15	-1724.40	  443.09
     20.0700	  541.00	  559.84	-1761.09	  442.77
     20.1700	  604.00	  559.53	-1697.78	  442.45
     20.2700	  545.00	  559.22	-1756.47	  442.13
     20.3700	  592.00	  558.90	-1709.15	  441.81
     20.4700	  530.00	  558.59	-1770.84	  441.48
     20.5700	  560.00	  558.28	-1740.53	  441.16
     20.6700	  548.00	  557.93	-1752.18	  440.83
     20.7700	  546.00	  557.62	-1753.87	  440.50
     20.8700	  568.00	  557.33	-1731.58	  440.17
     20.9700	  579.00	  557.02	-1720.27	  439.83
     21.0700	  540.00	  556.70	-1758.95	  439.50
     21.1700	  475.00	  556.38	-1823.63	  439.16
     21.2700	  553.00	  556.06	-1745.31	  438.82
     21.3700	  528.00	  555.75	-1770.00	  438.49
     21.4700	  546.00	  555.43	-1751.68	  438.15
     21.5700	  540.00	  555.11	-1757.36	  437.81
     21.6700	  580.00	  554.79	-1717.04	  437.46
     21.7700	  523.00	  554.48	-1773.73	  437.12
     21.8700	  521.00	  554.16	-1775.41	  436.78
     21.9700	  566.00	  553.85	-1730.10	  436.43
     22.0700	  569.00	  553.53	-1726.78	  436.08
     22.1700	  549.00	  553.22	-1746.47	  435.74
     22.2700	  554.00	  552.91	-1741.16	  435.39
     22.3700	  584.00	  552.60	-1710.85	  435.04
     22.4700	  556.00	  552.30	-1738.55	  434.69
     22.5700	  538.00	  552.00	-1756.25	  434.34
     22.6700	  550.00	  551.71	-1743.96	  433.98
     22.7700	  557.00	  551.42	-1736.67	  433.63
     22.8700	  560.00	  551.14	-1733.39	  433.28
     22.9700	  583.00	  550.87	-1710.12	  432.92
     23.0700	  520.00	  550.61	-1772.86	  432.57
     23.1700	  591.00	  550.37	-1701.62	  432.21
     23.2700	  572.00	  550.14	-1720.39	  431.85
     23.3700	  523.00	  549.94	-1769.19	  431.50
     23.4700	  533.00	  549.77	-1759.02	  431.14
     23.5700	  540.00	  549.65	-1751.90	  430.78
     23.6700	  558.00	  549.59	-1733.84	  430.42
     23.7700	  558.00	  549.77	-1734.02	  430.06
     23.8700	  558.00	  550.03	-1734.28	  429.70
     23.9700	  521.00	  550.70	-1771.95	  429.34
     24.0700	  600.00	  552.22	-1694.47	  428.98
     24.1700	  572.00	  555.20	-1725.45	  428.62
     24.2700	  590.00	  560.46	-1712.71	  428.26
     24.3700	  547.00	  568.92	-1764.17	  427.90
     24.4700	  587.00	  581.55	-1736.80	  427.54
     24.5700	  591.00	  598.54	-1749.79	  427.17
     24.6700	  648.00	  617.13	-1711.38	  426.81
     24.7700	  676.00	  629.69	-1695.94	  426.45
     24.8700	  563.00	  626.23	-1805.48	  426.09
     24.9700	  612.00	  605.90	-1736.15	  425.72
     25.0700	  583.00	  581.72	-1740.97	  425.36
     25.1700	  545.00	  563.79	-1761.04	  425.00
     25.2700	  565.00	  553.73	-1730.98	  424.63
     25.3700	  542.00	  549.00	-1749.25	  424.27
     25.4700	  567.00	  546.83	-1722.08	  423.91
     25.5700	  547.00	  545.65	-1740.90	  423.55
     25.6700	  558.00	  544.86	-1729.11	  423.18
     25.7700	  555.00	  544.28	-1731.53	  422.82
     25.8700	  589.00	  543.83	-1697.08	  422.46
     25.9700	  525.00	  543.47	-1760.72	  422.09
     26.0700	  541.00	  543.20	-1744.45	  421.73
     26.1700	  533.00	  543.01	-1752.26	  421.37
     26.2700	  520.00	  542.89	-1765.14	  421.01
     26.3700	  553.00	  542.85	-1732.10	  420.65
     26.4700	  535.00	  542.89	-1750.14	  420.28
     26.5700	  516.00	  543.02	-1769.27	  419.92
     26.6700	  562.00	  543.27	-1723.52	  419.56
     26.7700	  574.00	  543.66	-1711.91	  419.20
     26.8700	  547.00	  544.22	-1739.47	  418.84
     26.9700	  586.00	  545.01	-1701.26	  418.48
     27.0700	  544.00	  546.10	-1744.35	  418.12
     27.1700	  585.00	  547.64	-1704.89	  417.76
     27.2700	  597.00	  549.88	-1695.13	  417.41
     27.3700	  537.00	  553.34	-1758.59	  417.05
     27.4700	  560.00	  559.01	-1741.26	  416.69
     27.5700	  568.00	  568.68	-1742.93	  416.33
     27.6700	  577.00	  585.10	-1750.35	  415.98
     27.7700	  589.00	  611.78	-1765.03	  415.62
     27.8700	  595.00	  651.64	-1798.89	  415.27
     27.9700	  708.00	  704.51	-1738.76	  414.91
     28.0700	  785.00	  764.03	-1721.28	  414.56
     28.1700	  927.00	  814.94	-1630.19	  414.21
     28.2700	  928.00	  834.86	-1649.11	  413.85
     28.3700	  890.00	  811.65	-1663.90	  413.50
     28.4700	  710.00	  767.42	-1799.67	  413.15
     28.5700	  733.00	  736.30	-1745.55	  412.80
     28.6700	  686.00	  733.28	-1789.53	  412.45
     28.7700	  736.00	  753.46	-1759.71	  412.10
     28.8700	  734.00	  777.82	-1786.07	  411.75
     28.9700	  838.00	  780.13	-1684.38	  411.41
     29.0700	  769.00	  744.57	-1717.82	  411.06
     29.1700	  729.00	  686.31	-1699.56	  410.72
     29.2700	  610.00	  631.39	-1763.64	  410.37
     29.3700	  559.00	  591.89	-1775.14	  410.03
     29.4700	  620.00	  567.97	-1690.22	  409.69
     29.5700	  602.00	  554.94	-1695.19	  409.35
     29.6700	  643.00	  547.99	-1647.24	  409.01
     29.7700	  574.00	  544.00	-1712.25	  408.67
     29.8700	  586.00	  541.49	-1697.74	  408.33
     29.9700	  594.00	  539.87	-1688.12	  407.99
     30.0700	  543.00	  539.03	-1738.28	  407.66
     30.1700	  588.00	  539.13	-1693.38	  407.32
     30.2700	  567.00	  540.67	-1715.92	  406.99
     30.3700	  554.00	  544.68	-1732.93	  406.65
     30.4700	  556.00	  552.65	-1738.90	  406.32
     30.5700	  530.00	  566.16	-1778.41	  405.99
     30.6700	  580.00	  585.54	-1747.79	  405.66
     30.7700	  581.00	  608.29	-1769.54	  405.33
     30.8700	  610.00	  627.82	-1760.07	  405.01
     30.9700	  630.00	  634.23	-1746.48	  404.68
     31.0700	  598.00	  621.11	-1765.36	  404.36
     31.1700	  585.00	  595.33	-1752.58	  404.03
     31.2700	  559.00	  569.72	-1752.97	  403.71
     31.3700	  557.00	  550.88	-1736.13	  403.39
     31.4700	  586.00	  539.41	-1695.66	  403.07
     31.5700	  565.00	  533.24	-1710.49	  402.76
     31.6700	  560.00	  530.04	-1712.29	  402.44
     31.7700	  519.00	  528.24	-1751.49	  402.12
     31.8700	  533.00	  527.09	-1736.34	  401.81
     31.9700	  577.00	  526.28	-1691.53	  401.50
     32.0700	  531.00	  525.70	-1736.95	  401.19
     32.1700	  536.00	  525.30	-1731.55	  400.88
     32.2700	  524.00	  525.06	-1743.31	  400.57
     32.3700	  504.00	  524.96	-1763.21	  400.26
     32.4700	  568.00	  525.02	-1699.27	  399.96
     32.5700	  520.00	  525.25	-1747.50	  399.65
     32.6700	  518.00	  525.68	-1749.93	  399.35
     32.7700	  558.00	  526.36	-1710.61	  399.05
     32.8700	  554.00	  527.36	-1715.61	  398.75
     32.9700	  503.00	  528.79	-1768.04	  398.45
     33.0700	  562.00	  530.88	-1711.13	  398.16
     33.1700	  527.00	  534.11	-1749.36	  397.86
     33.2700	  520.00	  539.57	-1761.82	  397.57
     33.3700	  522.00	  549.59	-1769.84	  397.28
     33.4700	  592.00	  568.68	-1718.93	  396.99
     33.5700	  605.00	  603.90	-1741.15	  396.70
     33.6700	  653.00	  663.22	-1752.47	  396.41
     33.7700	  798.00	  750.05	-1694.30	  396.13
     33.8700	  849.00	  854.61	-1747.86	  395.84
     33.9700	  990.00	  948.54	-1700.79	  395.56
     34.0700	 1072.00	  988.78	-1659.03	  395.28
     34.1700	 1070.00	  944.47	-1616.72	  395.00
     34.2700	  907.00	  838.76	-1674.01	  394.73
     34.3700	  764.00	  725.87	-1704.12	  394.45
     34.4700	  675.00	  638.68	-1705.93	  394.18
     34.5700	  616.00	  583.88	-1710.13	  393.90
     34.6700	  552.00	  554.15	-1744.40	  393.64
     34.7700	  544.00	  539.16	-1737.41	  393.37
     34.8700	  515.00	  531.30	-1758.55	  393.10
     34.9700	  508.00	  526.59	-1760.84	  392.84
     35.0700	  542.00	  523.33	-1723.58	  392.57
     35.1700	  531.00	  520.86	-1732.11	  392.31
     35.2700	  517.00	  518.92	-1744.17	  392.05
     35.3700	  495.00	  517.32	-1764.57	  391.79
     35.4700	  499.00	  515.98	-1759.23	  391.54
     35.5700	  560.00	  514.85	-1697.10	  391.29
     35.6700	  549.00	  513.88	-1707.13	  391.03
     35.7700	  526.00	  513.03	-1729.28	  390.78
     35.8700	  522.00	  512.28	-1732.53	  390.53
     35.9700	  515.00	  512.10	-1739.35	  390.29
     36.0700	  518.00	  511.50	-1735.75	  390.04
     36.1700	  498.00	  510.96	-1755.21	  389.80
     36.2700	  472.00	  510.47	-1780.72	  389.56
     36.3700	  511.00	  510.02	-1741.27	  389.32
     36.4700	  516.00	  509.61	-1735.86	  389.08
     36.5700	  512.00	  509.24	-1739.49	  388.85
     36.6700	  524.00	  508.91	-1727.16	  388.61
     36.7700	  511.00	  508.62	-1739.87	  388.38
     36.8700	  519.00	  508.39	-1731.64	  388.15
     36.9700	  491.00	  508.28	-1759.53	  387.93
     37.0700	  500.00	  508.39	-1750.64	  387.70
     37.1700	  491.00	  508.94	-1760.19	  387.48
     37.2700	  510.00	  510.26	-1742.51	  387.25
     37.3700	  500.00	  512.65	-1754.90	  387.03
     37.4700	  508.00	  516.10	-1750.35	  386.82
     37.5700	  516.00	  520.00	-1746.25	  386.60
     37.6700	  525.00	  523.01	-1740.26	  386.39
     37.7700	  540.00	  523.63	-1725.88	  386.18
     37.8700	  530.00	  521.54	-1733.79	  385.97
     37.9700	  535.00	  518.06	-1725.31	  385.76
     38.0700	  471.00	  514.42	-1785.67	  385.55
     38.1700	  475.00	  511.17	-1778.42	  385.35
     38.2700	  479.00	  508.54	-1771.79	  385.15
     38.3700	  522.00	  506.62	-1726.87	  384.95
     38.4700	  525.00	  505.30	-1722.55	  384.75
     38.5700	  462.00	  504.44	-1784.69	  384.55
     38.6700	  531.00	  503.87	-1715.12	  384.36
     38.7700	  490.00	  503.37	-1755.62	  384.17
     38.8700	  493.00	  503.06	-1752.31	  383.98
     38.9700	  455.00	  502.79	-1790.04	  383.79
     39.0700	  502.00	  502.55	-1742.80	  383.60
     39.1700	  515.00	  502.34	-1729.59	  383.42
     39.2700	  482.00	  502.06	-1762.31	  383.24
     39.3700	  524.00	  501.87	-1720.12	  383.06
     39.4700	  515.00	  501.69	-1728.94	  382.88
     39.5700	  508.00	  501.65	-1735.90	  382.70
     39.6700	  529.00	  501.49	-1714.74	  382.53
     39.7700	  502.00	  501.35	-1741.60	  382.36
     39.8700	  468.00	  501.21	-1775.46	  382.19
     39.9700	  476.00	  501.08	-1767.33	  382.02
     40.0700	  514.00	  500.96	-1729.21	  381.86
     40.1700	  477.00	  500.86	-1766.11	  381.69
     40.2700	  534.00	  500.76	-1709.01	  381.53
     40.3700	  518.00	  500.67	-1724.92	  381.37
     40.4700	  461.00	  500.60	-1781.85	  381.22
     40.5700	  456.00	  500.55	-1786.80	  381.06
     40.6700	  452.00	  500.51	-1790.76	  380.91
     40.7700	  496.00	  500.49	-1746.74	  380.76
     40.8700	  447.00	  500.49	-1795.74	  380.61
     40.9700	  510.00	  500.52	-1732.77	  380.46
     41.0700	  492.00	  500.59	-1750.84	  380.32
     41.1700	  514.00	  500.69	-1728.94	  380.18
     41.2700	  496.00	  500.81	-1747.06	  380.04
     41.3700	  457.00	  501.04	-1786.29	  379.90
     41.4700	  487.00	  501.34	-1756.59	  379.76
     41.5700	  525.00	  502.19	-1719.44	  379.63
     41.6700	  481.00	  502.80	-1764.05	  379.50
     41.7700	  512.00	  503.72	-1733.97	  379.37
     41.8700	  491.00	  505.26	-1756.51	  379.24
     41.9700	  524.00	  508.12	-1726.37	  379.12
     42.0700	  513.00	  513.67	-1742.92	  378.99
     42.1700	  509.00	  524.07	-1757.32	  378.87
     42.2700	  545.00	  541.90	-1739.15	  378.75
     42.3700	  522.00	  568.44	-1788.69	  378.63
     42.4700	  559.00	  601.78	-1785.03	  378.52
     42.5700	  589.00	  634.66	-1787.91	  378.41
     42.6700	  587.00	  655.28	-1810.53	  378.30
     42.7700	  616.00	  652.66	-1778.91	  378.19
     42.8700	  552.00	  627.57	-1817.82	  378.08
     42.9700	  543.00	  592.49	-1791.74	  377.98
     43.0700	  527.00	  559.63	-1774.88	  377.87
     43.1700	  501.00	  535.02	-1776.27	  377.77
     43.2700	  547.00	  519.40	-1714.65	  377.67
     43.3700	  506.00	  510.69	-1746.94	  377.58
     43.4700	  504.00	  506.20	-1744.45	  377.48
     43.5700	  535.00	  503.87	-1711.12	  377.39
     43.6700	  521.00	  502.73	-1723.98	  377.30
     43.7700	  486.00	  501.87	-1758.12	  377.21
     43.8700	  464.00	  501.26	-1779.51	  377.13
     43.9700	  503.00	  500.79	-1740.04	  377.04
     44.0700	  494.00	  500.47	-1748.72	  376.96
     44.1700	  582.00	  500.19	-1660.44	  376.88
     44.2700	  505.00	  499.97	-1737.22	  376.81
     44.3700	  497.00	  499.81	-1745.06	  376.73
     44.4700	  493.00	  499.69	-1748.94	  376.66
     44.5700	  529.00	  499.61	-1712.86	  376.59
     44.6700	  535.00	  499.43	-1706.68	  376.52
     44.7700	  506.00	  499.41	-1735.66	  376.45
     44.8700	  490.00	  499.42	-1751.67	  376.38
     44.9700	  544.00	  499.45	-1697.70	  376.32
     45.0700	  537.00	  499.50	-1704.75	  376.26
     45.1700	  528.00	  499.76	-1714.01	  376.20
     45.2700	  531.00	  499.86	-1711.11	  376.14
     45.3700	  507.00	  499.98	-1735.23	  376.09
     45.4700	  495.00	  500.12	-1747.37	  376.04
     45.5700	  474.00	  500.29	-1768.54	  375.98
     45.6700	  510.00	  500.49	-1732.74	  375.94
     45.7700	  500.00	  500.71	-1742.96	  375.89
     45.8700	  483.00	  500.96	-1760.21	  375.84
     45.9700	  499.00	  501.24	-1744.49	  375.80
     46.0700	  538.00	  501.55	-1705.80	  375.76
     46.1700	  503.00	  501.90	-1741.15	  375.72
     46.2700	  526.00	  502.30	-1718.55	  375.68
     46.3700	  472.00	  502.75	-1773.00	  375.65
     46.4700	  484.00	  503.25	-1761.50	  375.62
     46.5700	  484.00	  503.83	-1762.08	  375.59
     46.6700	  516.00	  504.48	-1730.73	  375.56
     46.7700	  477.00	  505.25	-1770.50	  375.53
     46.8700	  508.00	  506.18	-1740.43	  375.50
     46.9700	  479.00	  507.39	-1770.64	  375.48
     47.0700	  478.00	  509.12	-1773.37	  375.46
     47.1700	  538.00	  511.91	-1716.16	  375.44
     47.2700	  512.00	  516.59	-1746.84	  375.42
     47.3700	  532.00	  524.23	-1734.48	  375.41
     47.4700	  559.00	  535.92	-1719.17	  375.39
     47.5700	  579.00	  551.83	-1715.08	  375.38
     47.6700	  547.00	  570.40	-1765.65	  375.37
     47.7700	  585.00	  587.74	-1744.99	  375.37
     47.8700	  589.00	  598.28	-1751.53	  375.36
     47.9700	  590.00	  597.70	-1749.95	  375.36
     48.0700	  571.00	  587.00	-1758.25	  375.35
     48.1700	  563.00	  571.66	-1750.91	  375.35
     48.2700	  557.00	  557.16	-1742.41	  375.36
     48.3700	  521.00	  546.58	-1767.83	  375.36
     48.4700	  537.00	  540.76	-1746.01	  375.37
     48.5700	  568.00	  539.16	-1713.41	  375.37
     48.6700	  532.00	  540.73	-1750.98	  375.38
     48.7700	  547.00	  544.62	-1739.87	  375.39
     48.8700	  543.00	  550.41	-1749.66	  375.41
     48.9700	  538.00	  558.21	-1762.46	  375.42
     49.0700	  584.00	  568.75	-1727.00	  375.44
     49.1700	  557.00	  583.78	-1769.03	  375.46
     49.2700	  604.00	  606.94	-1745.19	  375.48
     49.3700	  660.00	  645.04	-1727.29	  375.50
     49.4700	  725.00	  709.45	-1726.70	  375.52
     49.5700	  786.00	  816.50	-1772.75	  375.55
     49.6700	  885.00	  983.49	-1840.74	  375.58
     49.7700	 1153.00	 1223.62	-1812.87	  375.60
     49.8700	 1503.00	 1534.23	-1773.48	  375.64
     49.9700	 1915.00	 1885.42	-1712.67	  375.67
     50.0700	 2259.00	 2211.36	-1694.61	  375.70
     50.1700	 2475.00	 2415.45	-1682.70	  375.74
     50.2700	 2450.00	 2413.41	-1705.66	  375.78
     50.3700	 2260.00	 2204.02	-1686.27	  375.82
     50.4700	 1799.00	 1874.17	-1817.42	  375.86
     50.5700	 1403.00	 1524.27	-1863.52	  375.90
     50.6700	 1051.00	 1220.02	-1911.27	  375.95
     50.7700	  830.00	  989.83	-1902.08	  375.99
     50.8700	  704.00	  834.78	-1873.03	  376.04
     50.9700	  625.00	  740.00	-1857.25	  376.09
     51.0700	  579.00	  684.98	-1848.23	  376.14
     51.1700	  617.00	  651.21	-1776.46	  376.20
     51.2700	  581.00	  626.41	-1787.66	  376.25
     51.3700	  565.00	  605.37	-1782.62	  376.31
     51.4700	  585.00	  587.21	-1744.46	  376.36
     51.5700	  559.00	  572.34	-1755.59	  376.42
     51.6700	  575.00	  560.99	-1728.24	  376.49
     51.7700	  570.00	  552.90	-1725.15	  376.55
     51.8700	  508.00	  547.41	-1781.66	  376.61
     51.9700	  593.00	  543.81	-1693.06	  376.68
     52.0700	  521.00	  541.53	-1762.78	  376.75
     52.1700	  565.00	  540.26	-1717.51	  376.82
     52.2700	  580.00	  540.12	-1702.37	  376.89
     52.3700	  549.00	  540.77	-1734.02	  376.96
     52.4700	  563.00	  542.85	-1722.10	  377.03
     52.5700	  563.00	  547.36	-1726.61	  377.11
     52.6700	  593.00	  556.46	-1705.71	  377.18
     52.7700	  605.00	  574.10	-1711.35	  377.26
     52.8700	  672.00	  606.37	-1676.62	  377.34
     52.9700	  696.00	  660.82	-1707.07	  377.42
     53.0700	  787.00	  743.82	-1699.07	  377.51
     53.1700	  927.00	  856.11	-1671.36	  377.59
     53.2700	 1045.00	  987.90	-1685.15	  377.68
     53.3700	 1134.00	 1115.85	-1724.10	  377.76
     53.4700	 1191.00	 1204.87	-1756.12	  377.85
     53.5700	 1160.00	 1221.37	-1803.62	  377.94
     53.6700	 1098.00	 1157.58	-1801.83	  378.03
     53.7700	  938.00	 1039.70	-1843.95	  378.13
     53.8700	  854.00	  905.53	-1793.78	  378.22
     53.9700	  729.00	  783.92	-1797.17	  378.32
     54.0700	  689.00	  689.63	-1742.88	  378.41
     54.1700	  631.00	  625.34	-1736.59	  378.51
     54.2700	  612.00	  586.12	-1716.38	  378.61
     54.3700	  599.00	  564.34	-1707.59	  378.71
     54.4700	  573.00	  553.09	-1722.34	  378.82
     54.5700	  550.00	  547.55	-1739.80	  378.92
     54.6700	  563.00	  545.02	-1724.27	  379.02
     54.7700	  555.00	  544.12	-1731.37	  379.13
     54.8700	  542.00	  544.25	-1744.50	  379.24
     54.9700	  548.00	  545.18	-1739.43	  379.35
     55.0700	  534.00	  546.83	-1755.08	  379.46
     55.1700	  569.00	  549.22	-1722.47	  379.57
     55.2700	  595.00	  552.44	-1699.69	  379.68
     55.3700	  586.00	  556.55	-1712.80	  379.80
     55.4700	  567.00	  561.80	-1737.05	  379.91
     55.5700	  570.00	  568.59	-1740.84	  380.03
     55.6700	  591.00	  577.72	-1728.97	  380.14
     55.7700	  555.00	  590.83	-1778.08	  380.26
     55.8700	  557.00	  611.24	-1796.49	  380.38
     55.9700	  610.00	  645.11	-1777.36	  380.50
     56.0700	  638.00	  702.73	-1806.98	  380.63
     56.1700	  739.00	  798.97	-1802.22	  380.75
     56.2700	  911.00	  951.47	-1782.72	  380.87
     56.3700	 1058.00	 1175.53	-1859.78	  381.00
     56.4700	 1388.00	 1475.55	-1829.80	  381.13
     56.5700	 1780.00	 1835.38	-1797.63	  381.25
     56.6700	 2086.00	 2210.84	-1867.09	  381.38
     56.7700	 2443.00	 2527.26	-1826.51	  381.51
     56.8700	 2661.00	 2693.73	-1774.98	  381.64
     56.9700	 2552.00	 2648.54	-1838.79	  381.77
     57.0700	 2408.00	 2409.23	-1743.48	  381.91
     57.1700	 2082.00	 2058.06	-1718.31	  382.04
     57.2700	 1614.00	 1683.88	-1812.13	  382.18
     57.3700	 1255.00	 1348.93	-1836.18	  382.31
     57.4700	 1042.00	 1084.68	-1784.93	  382.45
     57.5700	  898.00	  897.53	-1741.78	  382.59
     57.6700	  770.00	  777.54	-1749.79	  382.73
     57.7700	  757.00	  708.31	-1693.56	  382.87
     57.8700	  712.00	  674.24	-1704.49	  383.01
     57.9700	  677.00	  664.33	-1729.58	  383.15
     58.0700	  664.00	  672.74	-1750.99	  383.29
     58.1700	  663.00	  697.52	-1776.77	  383.43
     58.2700	  821.00	  738.74	-1659.99	  383.58
     58.3700	  811.00	  796.63	-1727.88	  383.72
     58.4700	  969.00	  869.87	-1643.12	  383.87
     58.5700	 1121.00	  953.99	-1575.24	  384.02
     58.6700	 1218.00	 1040.90	-1565.15	  384.16
     58.7700	 1364.00	 1121.05	-1499.30	  384.31
     58.8700	 1500.00	 1187.74	-1429.99	  384.46
     58.9700	 1490.00	 1237.02	-1489.27	  384.61
     59.0700	 1550.00	 1263.64	-1455.89	  384.76
     59.1700	 1540.00	 1263.02	-1465.27	  384.91
     59.2700	 1538.00	 1239.02	-1443.27	  385.07
     59.3700	 1371.00	 1204.28	-1575.53	  385.22
     59.4700	 1162.00	 1171.86	-1752.11	  385.37
     59.5700	 1203.00	 1150.51	-1689.76	  385.53
     59.6700	 1180.00	 1147.36	-1709.61	  385.68
     59.7700	 1194.00	 1170.55	-1718.80	  385.84
     59.8700	 1213.00	 1225.25	-1754.50	  386.00
     59.9700	 1343.00	 1307.51	-1706.76	  386.15
     60.0700	 1462.00	 1401.11	-1681.36	  386.31
     60.1700	 1549.00	 1478.07	-1671.32	  386.47
     60.2700	 1607.00	 1505.72	-1640.97	  386.63
     60.3700	 1495.00	 1463.72	-1710.97	  386.79
     60.4700	 1411.00	 1358.70	-1689.95	  386.95
     60.5700	 1312.00	 1217.40	-1647.65	  387.11
     60.6700	 1140.00	 1068.64	-1670.89	  387.27
     60.7700	  964.00	  933.41	-1711.66	  387.43
     60.8700	  798.00	  823.64	-1767.89	  387.60
     60.9700	  659.00	  743.48	-1826.73	  387.76
     61.0700	  685.00	  691.86	-1749.11	  387.92
     61.1700	  643.00	  665.58	-1764.83	  388.09
     61.2700	  631.00	  661.94	-1773.19	  388.25
     61.3700	  666.00	  680.45	-1756.70	  388.42
     61.4700	  629.00	  723.04	-1836.29	  388.58
     61.5700	  752.00	  792.77	-1783.02	  388.75
     61.6700	  819.00	  891.47	-1814.72	  388.91
     61.7700	 1017.00	 1016.81	-1742.06	  389.08
     61.8700	 1055.00	 1159.67	-1846.92	  389.25
     61.9700	 1228.00	 1302.33	-1816.58	  389.42
     62.0700	 1360.00	 1418.59	-1800.84	  389.58
     62.1700	 1400.00	 1478.64	-1820.89	  389.75
     62.2700	 1335.00	 1462.94	-1870.19	  389.92
     62.3700	 1304.00	 1376.16	-1814.41	  390.09
     62.4700	 1186.00	 1243.71	-1799.96	  390.26
     62.5700	 1036.00	 1095.22	-1801.47	  390.43
     62.6700	  893.00	  953.87	-1803.12	  390.60
     62.7700	  784.00	  833.75	-1792.00	  390.77
     62.8700	  692.00	  740.71	-1790.96	  390.94
     62.9700	  641.00	  674.24	-1775.49	  391.11
     63.0700	  634.00	  630.04	-1738.29	  391.28
     63.1700	  556.00	  602.42	-1788.67	  391.45
     63.2700	  537.00	  586.11	-1791.36	  391.63
     63.3700	  606.00	  577.20	-1713.45	  391.80
     63.4700	  583.00	  573.33	-1732.58	  391.97
     63.5700	  561.00	  573.60	-1754.85	  392.14
     63.6700	  588.00	  578.35	-1732.60	  392.31
     63.7700	  602.00	  588.87	-1729.12	  392.49
     63.8700	  644.00	  607.12	-1705.37	  392.66
     63.9700	  648.00	  635.16	-1729.41	  392.83
     64.0700	  686.00	  674.40	-1730.65	  393.01
     64.1700	  771.00	  724.66	-1695.91	  393.18
     64.2700	  833.00	  783.24	-1692.49	  393.35
     64.3700	  870.00	  844.37	-1716.62	  393.52
     64.4700	  997.00	  899.16	-1644.41	  393.70
     64.5700	 1015.00	  936.59	-1663.84	  393.87
     64.6700	  974.00	  949.32	-1717.57	  394.04
     64.7700	 1014.00	  935.17	-1663.42	  394.22
     64.8700	  910.00	  899.08	-1731.33	  394.39
     64.9700	  936.00	  849.70	-1655.95	  394.56
     65.0700	  864.00	  796.25	-1674.50	  394.74
     65.1700	  737.00	  746.01	-1751.26	  394.91
     65.2700	  706.00	  703.00	-1739.25	  395.08
     65.3700	  692.00	  668.11	-1718.36	  395.26
     65.4700	  650.00	  640.45	-1732.70	  395.43
     65.5700	  616.00	  618.61	-1744.86	  395.60
     65.6700	  613.00	  601.52	-1730.77	  395.78
     65.7700	  543.00	  588.40	-1787.65	  395.95
     65.8700	  560.00	  578.68	-1760.93	  396.12
     65.9700	  545.00	  571.89	-1769.14	  396.29
     66.0700	  591.00	  567.65	-1718.90	  396.47
     66.1700	  543.00	  565.55	-1764.80	  396.64
     66.2700	  548.00	  565.24	-1759.49	  396.81
     66.3700	  529.00	  566.42	-1779.67	  396.98
     66.4700	  538.00	  568.93	-1773.18	  397.15
     66.5700	  558.00	  572.91	-1757.16	  397.32
     66.6700	  602.00	  578.54	-1718.79	  397.49
     66.7700	  600.00	  586.79	-1729.04	  397.67
     66.8700	  565.00	  599.34	-1776.59	  397.84
     66.9700	  603.00	  619.15	-1758.40	  398.01
     67.0700	  632.00	  650.87	-1761.12	  398.18
     67.1700	  675.00	  701.16	-1768.41	  398.35
     67.2700	  777.00	  778.50	-1743.75	  398.52
     67.3700	  869.00	  891.98	-1765.23	  398.68
     67.4700	 1012.00	 1049.26	-1779.51	  398.85
     67.5700	 1219.00	 1252.89	-1776.14	  399.02
     67.6700	 1418.00	 1497.47	-1821.72	  399.19
     67.7700	 1837.00	 1766.93	-1672.18	  399.36
     67.8700	 2141.00	 2032.43	-1633.68	  399.52
     67.9700	 2386.00	 2253.77	-1610.02	  399.69
     68.0700	 2386.00	 2385.72	-1741.97	  399.86
     68.1700	 2425.00	 2394.63	-1711.88	  400.02
     68.2700	 2276.00	 2277.98	-1744.23	  400.19
     68.3700	 2015.00	 2066.26	-1793.51	  400.35
     68.4700	 1846.00	 1804.45	-1700.70	  400.52
     68.5700	 1576.00	 1534.14	-1700.39	  400.68
     68.6700	 1327.00	 1285.43	-1700.68	  400.84
     68.7700	 1031.00	 1076.31	-1787.56	  401.01
     68.8700	  844.00	  913.60	-1811.85	  401.17
     68.9700	  767.00	  795.26	-1770.51	  401.33
     69.0700	  739.00	  714.26	-1717.51	  401.49
     69.1700	  699.00	  661.50	-1704.75	  401.65
     69.2700	  627.00	  628.34	-1743.59	  401.81
     69.3700	  628.00	  607.85	-1722.10	  401.97
     69.4700	  601.00	  595.12	-1736.37	  402.13
     69.5700	  658.00	  586.99	-1671.24	  402.29
     69.6700	  551.00	  581.58	-1772.83	  402.45
     69.7700	  613.00	  577.87	-1707.12	  402.60
     69.8700	  560.00	  575.32	-1757.57	  402.76
     69.9700	  561.00	  573.65	-1754.90	  402.92
     70.0700	  580.00	  572.73	-1734.98	  403.07
     70.1700	  566.00	  572.52	-1748.77	  403.23
     70.2700	  624.00	  573.01	-1691.26	  403.38
     70.3700	  540.00	  574.32	-1776.57	  403.53
     70.4700	  564.00	  576.68	-1754.93	  403.68
     70.5700	  598.00	  580.56	-1724.81	  403.84
     70.6700	  555.00	  586.82	-1774.07	  403.99
     70.7700	  640.00	  596.95	-1699.20	  404.14
     70.8700	  644.00	  613.32	-1711.57	  404.29
     70.9700	  596.00	  639.48	-1785.73	  404.43
     71.0700	  664.00	  680.18	-1758.43	  404.58
     71.1700	  700.00	  741.12	-1783.37	  404.73
     71.2700	  804.00	  828.07	-1766.32	  404.87
     71.3700	  938.00	  946.31	-1750.56	  405.02
     71.4700	 1021.00	 1095.36	-1816.61	  405.16
     71.5700	 1205.00	 1271.99	-1809.24	  405.31
     71.6700	 1396.00	 1465.51	-1811.76	  405.45
     71.7700	 1687.00	 1657.90	-1713.15	  405.59
     71.8700	 1711.00	 1824.36	-1855.61	  405.73
     71.9700	 1914.00	 1936.36	-1764.61	  405.87
     72.0700	 1963.00	 1969.87	-1749.12	  406.01
     72.1700	 1817.00	 1916.83	-1842.08	  406.15
     72.2700	 1747.00	 1790.11	-1785.36	  406.28
     72.3700	 1750.00	 1615.79	-1608.04	  406.42
     72.4700	 1511.00	 1421.61	-1652.86	  406.55
     72.5700	 1357.00	 1231.64	-1616.89	  406.69
     72.6700	 1280.00	 1061.57	-1523.82	  406.82
     72.7700	 1072.00	  920.17	-1590.42	  406.95
     72.8700	  914.00	  809.92	-1638.17	  407.08
     72.9700	  881.00	  728.67	-1589.92	  407.21
     73.0700	  774.00	  671.62	-1639.87	  407.34
     73.1700	  772.00	  633.08	-1603.33	  407.47
     73.2700	  698.00	  607.71	-1651.96	  407.60
     73.3700	  673.00	  591.16	-1660.41	  407.72
     73.4700	  630.00	  580.30	-1692.55	  407.85
     73.5700	  612.00	  573.07	-1703.32	  407.97
     73.6700	  605.00	  568.18	-1705.43	  408.09
     73.7700	  655.00	  564.90	-1652.15	  408.21
     73.8700	  607.00	  562.82	-1698.07	  408.33
     73.9700	  563.00	  561.69	-1740.94	  408.45
     74.0700	  557.00	  561.34	-1746.59	  408.57
     74.1700	  574.00	  561.60	-1729.85	  408.68
     74.2700	  643.00	  562.28	-1661.53	  408.80
     74.3700	  612.00	  563.12	-1693.37	  408.91
     74.4700	  613.00	  563.82	-1693.07	  409.03
     74.5700	  610.00	  564.09	-1696.34	  409.14
     74.6700	  634.00	  563.67	-1671.92	  409.25
     74.7700	  637.00	  562.52	-1667.77	  409.36
     74.8700	  609.00	  560.76	-1694.01	  409.47
     74.9700	  628.00	  558.70	-1672.95	  409.57
     75.0700	  585.00	  556.68	-1713.93	  409.68
     75.1700	  585.00	  555.05	-1712.30	  409.78
     75.2700	  578.00	  554.07	-1718.32	  409.88
     75.3700	  563.00	  554.32	-1733.57	  409.99
     75.4700	  583.00	  556.11	-1715.36	  410.09
     75.5700	  603.00	  559.92	-1699.17	  410.19
     75.6700	  576.00	  566.13	-1732.38	  410.28
     75.7700	  549.00	  575.39	-1768.64	  410.38
     75.8700	  602.00	  587.90	-1728.15	  410.47
     75.9700	  631.00	  603.63	-1714.88	  410.57
     76.0700	  610.00	  622.12	-1754.37	  410.66
     76.1700	  672.00	  642.33	-1712.58	  410.75
     76.2700	  678.00	  662.60	-1726.85	  410.84
     76.3700	  666.00	  680.72	-1756.97	  410.93
     76.4700	  724.00	  694.12	-1712.37	  411.01
     76.5700	  715.00	  700.42	-1727.67	  411.10
     76.6700	  704.00	  698.31	-1736.56	  411.18
     76.7700	  667.00	  688.22	-1763.47	  411.27
     76.8700	  634.00	  672.05	-1780.30	  411.35
     76.9700	  591.00	  652.38	-1803.63	  411.43
     77.0700	  612.00	  631.45	-1761.70	  411.50
     77.1700	  589.00	  611.59	-1764.84	  411.58
     77.2700	  547.00	  593.94	-1789.19	  411.66
     77.3700	  532.00	  579.23	-1789.48	  411.73
     77.4700	  540.00	  567.67	-1769.92	  411.80
     77.5700	  496.00	  559.04	-1805.29	  411.87
     77.6700	  521.00	  552.91	-1774.16	  411.94
     77.7700	  532.00	  548.72	-1758.97	  412.01
     77.8700	  513.00	  545.97	-1775.22	  412.07
     77.9700	  516.00	  544.20	-1770.45	  412.14
     78.0700	  524.00	  543.08	-1761.33	  412.20
     78.1700	  485.00	  542.38	-1799.63	  412.26
     78.2700	  543.00	  541.94	-1741.19	  412.32
     78.3700	  566.00	  541.68	-1717.93	  412.38
     78.4700	  473.00	  541.54	-1810.79	  412.44
     78.5700	  512.00	  541.50	-1771.75	  412.49
     78.6700	  514.00	  541.56	-1769.81	  412.55
     78.7700	  542.00	  541.72	-1741.97	  412.60
     78.8700	  552.00	  542.01	-1732.26	  412.65
     78.9700	  538.00	  542.45	-1746.70	  412.70
     79.0700	  509.00	  543.09	-1776.34	  412.74
     79.1700	  519.00	  543.99	-1767.24	  412.79
     79.2700	  513.00	  545.19	-1774.44	  412.83
     79.3700	  524.00	  546.60	-1764.85	  412.87
     79.4700	  515.00	  548.62	-1775.87	  412.91
     79.5700	  518.00	  551.15	-1775.40	  412.95
     79.6700	  534.00	  554.28	-1762.53	  412.99
     79.7700	  557.00	  558.10	-1743.35	  413.03
     79.8700	  562.00	  562.76	-1743.01	  413.06
     79.9700	  581.00	  568.41	-1729.66	  413.09
     80.0700	  544.00	  575.28	-1773.53	  413.12
     80.1700	  560.00	  583.66	-1765.91	  413.15
     80.2700	  559.00	  593.86	-1777.11	  413.18
     80.3700	  567.00	  606.16	-1781.41	  413.20
     80.4700	  569.00	  620.69	-1793.94	  413.23
     80.5700	  612.00	  637.31	-1767.56	  413.25
     80.6700	  624.00	  655.50	-1773.75	  413.27
     80.7700	  651.00	  674.38	-1765.63	  413.29
     80.8700	  684.00	  692.69	-1750.94	  413.30
     80.9700	  679.00	  709.00	-1772.25	  413.32
     81.0700	  711.00	  721.93	-1753.18	  413.33
     81.1700	  747.00	  730.44	-1725.69	  413.34
     81.2700	  736.00	  733.85	-1740.10	  413.35
     81.3700	  715.00	  731.93	-1759.18	  413.36
     81.4700	  770.00	  724.97	-1697.22	  413.36
     81.5700	  753.00	  713.70	-1702.95	  413.37
     81.6700	  760.00	  699.12	-1681.37	  413.37
     81.7700	  754.00	  682.30	-1670.55	  413.37
     81.8700	  720.00	  664.32	-1686.57	  413.37
     81.9700	  781.00	  646.26	-1607.51	  413.36
     82.0700	  690.00	  628.99	-1681.24	  413.36
     82.1700	  674.00	  613.30	-1681.55	  413.35
     82.2700	  650.00	  599.52	-1691.77	  413.34
     82.3700	  636.00	  587.81	-1694.06	  413.33
     82.4700	  578.00	  578.17	-1742.42	  413.32
     82.5700	  612.00	  570.50	-1700.75	  413.31
     82.6700	  586.00	  564.66	-1720.91	  413.29
     82.7700	  572.00	  560.54	-1730.79	  413.27
     82.8700	  536.00	  557.98	-1764.23	  413.25
     82.9700	  569.00	  556.86	-1730.11	  413.23
     83.0700	  524.00	  557.08	-1775.33	  413.21
     83.1700	  537.00	  558.55	-1763.80	  413.18
     83.2700	  554.00	  561.16	-1749.41	  413.16
     83.3700	  581.00	  564.76	-1726.01	  413.13
     83.4700	  544.00	  569.14	-1767.39	  413.10
     83.5700	  546.00	  573.97	-1770.22	  413.06
     83.6700	  548.00	  578.87	-1773.12	  413.03
     83.7700	  532.00	  583.36	-1793.61	  412.99
     83.8700	  572.00	  586.90	-1757.15	  412.95
     83.9700	  550.00	  588.97	-1781.22	  412.91
     84.0700	  550.00	  589.21	-1781.46	  412.87
     84.1700	  568.00	  587.53	-1761.78	  412.83
     84.2700	  531.00	  584.16	-1795.41	  412.78
     84.3700	  573.00	  579.56	-1748.81	  412.73
     84.4700	  555.00	  574.24	-1761.49	  412.68
     84.5700	  571.00	  568.67	-1739.92	  412.63
     84.6700	  551.00	  563.26	-1754.51	  412.58
     84.7700	  562.00	  558.30	-1738.55	  412.52
     84.8700	  545.00	  553.98	-1751.23	  412.46
     84.9700	  570.00	  550.40	-1722.65	  412.40
     85.0700	  547.00	  547.57	-1742.82	  412.34
     85.1700	  541.00	  545.45	-1746.70	  412.28
     85.2700	  561.00	  543.96	-1725.21	  412.21
     85.3700	  552.00	  543.02	-1733.27	  412.15
     85.4700	  578.00	  542.53	-1706.78	  412.08
     85.5700	  519.00	  542.42	-1765.67	  412.01
     85.6700	  502.00	  542.64	-1782.89	  411.93
     85.7700	  497.00	  543.16	-1788.41	  411.86
     85.8700	  534.00	  543.98	-1752.23	  411.78
     85.9700	  513.00	  545.13	-1774.38	  411.70
     86.0700	  525.00	  546.67	-1763.92	  411.62
     86.1700	  544.00	  548.66	-1746.91	  411.54
     86.2700	  547.00	  551.23	-1746.48	  411.45
     86.3700	  552.00	  554.49	-1744.74	  411.37
     86.4700	  562.00	  558.58	-1738.83	  411.28
     86.5700	  577.00	  563.60	-1728.85	  411.19
     86.6700	  578.00	  569.62	-1733.87	  411.10
     86.7700	  614.00	  576.59	-1704.84	  411.00
     86.8700	  629.00	  584.05	-1697.30	  410.91
     86.9700	  579.00	  592.29	-1755.54	  410.81
     87.0700	  608.00	  600.53	-1734.78	  410.71
     87.1700	  611.00	  608.15	-1739.40	  410.61
     87.2700	  667.00	  614.44	-1689.69	  410.50
     87.3700	  630.00	  618.69	-1730.94	  410.40
     87.4700	  700.00	  620.35	-1662.60	  410.29
     87.5700	  647.00	  619.18	-1714.43	  410.18
     87.6700	  637.00	  615.38	-1720.63	  410.07
     87.7700	  608.00	  609.51	-1743.76	  409.96
     87.8700	  639.00	  602.34	-1705.59	  409.84
     87.9700	  659.00	  594.68	-1677.93	  409.72
     88.0700	  609.00	  587.29	-1720.54	  409.60
     88.1700	  587.00	  580.80	-1736.05	  409.48
     88.2700	  575.00	  575.72	-1742.97	  409.36
     88.3700	  602.00	  572.39	-1712.64	  409.23
     88.4700	  559.00	  571.00	-1754.25	  409.11
     88.5700	  592.00	  571.55	-1721.80	  408.98
     88.6700	  541.00	  573.92	-1775.17	  408.85
     88.7700	  581.00	  577.83	-1739.08	  408.72
     88.8700	  593.00	  582.90	-1732.15	  408.58
     88.9700	  571.00	  588.62	-1759.87	  408.44
     89.0700	  625.00	  594.44	-1711.69	  408.31
     89.1700	  597.00	  599.72	-1744.97	  408.17
     89.2700	  637.00	  603.82	-1709.07	  408.02
     89.3700	  573.00	  606.17	-1775.42	  407.88
     89.4700	  617.00	  606.41	-1731.66	  407.73
     89.5700	  606.00	  604.44	-1740.69	  407.59
     89.6700	  554.00	  600.48	-1788.73	  407.44
     89.7700	  560.00	  594.99	-1777.24	  407.29
     89.8700	  609.00	  588.51	-1721.76	  407.13
     89.9700	  516.00	  581.57	-1807.82	  406.98
     90.0700	  550.00	  574.64	-1766.89	  406.82
     90.1700	  532.00	  568.07	-1778.32	  406.66
     90.2700	  534.00	  562.14	-1770.39	  406.50
     90.3700	  515.00	  557.01	-1784.26	  406.34
     90.4700	  530.00	  552.75	-1765.00	  406.17
     90.5700	  525.00	  549.36	-1766.61	  406.01
     90.6700	  515.00	  546.78	-1774.03	  405.84
     90.7700	  533.00	  544.91	-1754.16	  405.67
     90.8700	  488.00	  543.65	-1797.90	  405.50
     90.9700	  525.00	  542.92	-1760.17	  405.33
     91.0700	  561.00	  542.62	-1723.87	  405.15
     91.1700	  509.00	  542.73	-1775.98	  404.97
     91.2700	  489.00	  543.23	-1796.48	  404.79
     91.3700	  507.00	  544.14	-1779.39	  404.61
     91.4700	  543.00	  545.55	-1744.80	  404.43
     91.5700	  543.00	  547.56	-1746.81	  404.25
     91.6700	  550.00	  550.32	-1742.57	  404.06
     91.7700	  548.00	  554.01	-1748.26	  403.87
     91.8700	  527.00	  558.81	-1774.06	  403.68
     91.9700	  529.00	  564.71	-1777.96	  403.49
     92.0700	  608.00	  572.31	-1706.56	  403.30
     92.1700	  636.00	  581.51	-1687.76	  403.11
     92.2700	  568.00	  592.38	-1766.63	  402.91
     92.3700	  607.00	  604.86	-1740.11	  402.71
     92.4700	  624.00	  618.80	-1737.05	  402.51
     92.5700	  633.00	  633.92	-1743.17	  402.31
     92.6700	  623.00	  649.80	-1769.05	  402.11
     92.7700	  661.00	  665.93	-1747.18	  401.90
     92.8700	  695.00	  681.67	-1728.92	  401.70
     92.9700	  745.00	  696.39	-1693.64	  401.49
     93.0700	  735.00	  709.54	-1716.79	  401.28
     93.1700	  772.00	  720.84	-1691.09	  401.07
     93.2700	  758.00	  730.36	-1714.61	  400.85
     93.3700	  785.00	  738.52	-1695.77	  400.64
     93.4700	  794.00	  745.94	-1694.19	  400.42
     93.5700	  833.00	  753.25	-1662.50	  400.21
     93.6700	  773.00	  761.07	-1730.32	  399.99
     93.7700	  845.00	  769.90	-1667.15	  399.77
     93.8700	  819.00	  780.18	-1703.43	  399.54
     93.9700	  803.00	  792.28	-1731.53	  399.32
     94.0700	  910.00	  806.49	-1638.74	  399.09
     94.1700	  818.00	  822.87	-1747.12	  398.87
     94.2700	  836.00	  841.13	-1747.38	  398.64
     94.3700	  909.00	  860.57	-1693.82	  398.41
     94.4700	  909.00	  880.02	-1713.27	  398.18
     94.5700	  876.00	  897.92	-1764.17	  397.94
     94.6700	  851.00	  912.42	-1803.67	  397.71
     94.7700	  903.00	  921.60	-1760.85	  397.47
     94.8700	  911.00	  923.85	-1755.10	  397.23
     94.9700	  927.00	  918.24	-1733.49	  396.99
     95.0700	  914.00	  904.84	-1733.09	  396.75
     95.1700	  920.00	  884.69	-1706.94	  396.51
     95.2700	  868.00	  859.49	-1733.74	  396.27
     95.3700	  822.00	  831.28	-1751.53	  396.02
     95.4700	  748.00	  802.15	-1796.40	  395.78
     95.5700	  797.00	  774.08	-1719.33	  395.53
     95.6700	  750.00	  748.88	-1741.13	  395.28
     95.7700	  736.00	  728.17	-1734.42	  395.03
     95.8700	  630.00	  713.41	-1825.66	  394.78
     95.9700	  696.00	  705.86	-1752.11	  394.53
     96.0700	  693.00	  706.63	-1755.88	  394.27
     96.1700	  736.00	  716.62	-1722.87	  394.02
     96.2700	  757.00	  736.57	-1721.82	  393.76
     96.3700	  730.00	  766.94	-1779.19	  393.50
     96.4700	  782.00	  807.87	-1768.12	  393.24
     96.5700	  795.00	  859.06	-1806.31	  392.98
     96.6700	  902.00	  919.69	-1759.94	  392.72
     96.7700	  977.00	  988.32	-1753.57	  392.46
     96.8700	 1061.00	 1062.84	-1744.09	  392.19
     96.9700	 1079.00	 1140.41	-1803.66	  391.93
     97.0700	 1124.00	 1217.51	-1835.76	  391.66
     97.1700	 1277.00	 1290.01	-1755.26	  391.40
     97.2700	 1372.00	 1353.42	-1723.67	  391.13
     97.3700	 1403.00	 1403.21	-1742.46	  390.86
     97.4700	 1440.00	 1435.39	-1737.64	  390.59
     97.5700	 1410.00	 1447.31	-1779.56	  390.32
     97.6700	 1464.00	 1438.20	-1716.45	  390.04
     97.7700	 1456.00	 1409.40	-1695.65	  389.77
     97.8700	 1341.00	 1363.88	-1765.13	  389.49
     97.9700	 1311.00	 1305.64	-1736.89	  389.22
     98.0700	 1144.00	 1239.03	-1837.28	  388.94
     98.1700	 1184.00	 1168.44	-1726.69	  388.66
     98.2700	 1100.00	 1097.80	-1740.05	  388.38
     98.3700	 1039.00	 1030.61	-1733.86	  388.10
     98.4700	  954.00	  969.79	-1758.04	  387.82
     98.5700	  886.00	  917.74	-1773.99	  387.54
     98.6700	  866.00	  876.29	-1752.54	  387.26
     98.7700	  814.00	  846.81	-1775.06	  386.98
     98.8700	  774.00	  830.31	-1798.56	  386.69
     98.9700	  810.00	  827.46	-1759.71	  386.41
     99.0700	  823.00	  838.70	-1757.95	  386.12
     99.1700	  806.00	  864.26	-1800.51	  385.84
     99.2700	  847.00	  904.15	-1799.40	  385.55
     99.3700	  926.00	  958.16	-1774.41	  385.26
     99.4700	 1062.00	 1025.77	-1706.02	  384.97
     99.5700	 1121.00	 1106.13	-1727.38	  384.68
     99.6700	 1171.00	 1197.85	-1769.10	  384.39
     99.7700	 1244.00	 1298.98	-1797.23	  384.10
     99.8700	 1367.00	 1406.95	-1782.20	  383.81
     99.9700	 1479.00	 1518.41	-1781.66	  383.52
    100.0700	 1696.00	 1629.42	-1675.67	  383.22
    100.1700	 1762.00	 1735.51	-1715.76	  382.93
    100.2700	 1879.00	 1832.13	-1695.38	  382.64
    100.3700	 1906.00	 1915.20	-1751.45	  382.34
    100.4700	 2095.00	 1981.42	-1628.67	  382.05
    100.5700	 2107.00	 2028.53	-1663.78	  381.75
    100.6700	 2096.00	 2055.07	-1701.32	  381.46
    100.7700	 2076.00	 2060.22	-1726.47	  381.16
    100.8700	 2076.00	 2043.70	-1709.95	  380.87
    100.9700	 2101.00	 2006.06	-1647.31	  380.57
    101.0700	 1910.00	 1949.00	-1781.25	  380.27
    101.1700	 1928.00	 1875.60	-1689.85	  379.97
    101.2700	 1870.00	 1790.21	-1662.46	  379.68
    101.3700	 1683.00	 1697.82	-1757.07	  379.38
    101.4700	 1607.00	 1603.56	-1738.81	  379.08
    101.5700	 1523.00	 1512.01	-1731.26	  378.78
    101.6700	 1480.00	 1426.99	-1689.24	  378.48
    101.7700	 1361.00	 1351.28	-1732.53	  378.18
    101.8700	 1280.00	 1286.57	-1748.82	  377.88
    101.9700	 1247.00	 1233.47	-1728.72	  377.58
    102.0700	 1190.00	 1191.54	-1743.79	  377.28
    102.1700	 1162.00	 1159.48	-1739.73	  376.98
    102.2700	 1135.00	 1135.24	-1742.49	  376.68
    102.3700	 1107.00	 1116.21	-1751.46	  376.38
    102.4700	 1143.00	 1099.58	-1698.83	  376.08
    102.5700	 1013.00	 1082.62	-1811.87	  375.78
    102.6700	 1073.00	 1063.05	-1732.30	  375.48
    102.7700	 1006.00	 1039.37	-1775.62	  375.18
    102.8700	 1052.00	 1010.92	-1701.17	  374.89
    102.9700	  971.00	  977.91	-1749.16	  374.59
    103.0700	  906.00	  941.13	-1777.38	  374.29
    103.1700	  847.00	  901.74	-1796.99	  373.99
    103.2700	  858.00	  861.02	-1745.27	  373.69
    103.3700	  857.00	  820.26	-1705.51	  373.39
    103.4700	  772.00	  780.65	-1750.90	  373.09
    103.5700	  742.00	  743.18	-1743.43	  372.79
    103.6700	  731.00	  708.65	-1719.90	  372.49
    103.7700	  701.00	  677.60	-1718.85	  372.20
    103.8700	  618.00	  650.36	-1774.61	  371.90
    103.9700	  650.00	  627.03	-1719.28	  371.60
    104.0700	  616.00	  607.54	-1733.79	  371.31
    104.1700	  586.00	  591.65	-1747.90	  371.01
    104.2700	  553.00	  579.05	-1768.30	  370.72
    104.3700	  583.00	  569.35	-1728.60	  370.42
    104.4700	  532.00	  562.16	-1772.41	  370.13
    104.5700	  583.00	  557.08	-1716.33	  369.83
    104.6700	  566.00	  553.74	-1729.99	  369.54
    104.7700	  587.00	  551.80	-1707.05	  369.25
    104.8700	  533.00	  550.98	-1760.23	  368.95
    104.9700	  507.00	  551.03	-1786.28	  368.66
    105.0700	  523.00	  551.77	-1771.02	  368.37
    105.1700	  599.00	  553.05	-1696.30	  368.08
    105.2700	  497.00	  554.77	-1800.02	  367.79
    105.3700	  519.00	  556.82	-1780.07	  367.51
    105.4700	  497.00	  559.23	-1804.48	  367.22
    105.5700	  546.00	  562.00	-1758.25	  366.93
    105.6700	  536.00	  565.18	-1771.43	  366.65
    105.7700	  556.00	  568.87	-1755.12	  366.36
    105.8700	  536.00	  573.19	-1779.44	  366.08
    105.9700	  544.00	  578.24	-1776.49	  365.80
    106.0700	  538.00	  584.12	-1788.37	  365.52
    106.1700	  561.00	  590.88	-1772.13	  365.24
    106.2700	  594.00	  598.51	-1746.76	  364.96
    106.3700	  598.00	  606.94	-1751.19	  364.68
    106.4700	  585.00	  616.04	-1773.29	  364.40
    106.5700	  579.00	  625.59	-1788.84	  364.13
    106.6700	  611.00	  635.34	-1766.59	  363.85
    106.7700	  636.00	  644.96	-1751.21	  363.58
    106.8700	  638.00	  654.07	-1758.32	  363.31
    106.9700	  676.00	  662.31	-1728.56	  363.04
    107.0700	  686.00	  669.30	-1725.55	  362.77
    107.1700	  673.00	  674.76	-1744.01	  362.50
    107.2700	  656.00	  678.53	-1764.78	  362.24
    107.3700	  672.00	  680.58	-1750.83	  361.97
    107.4700	  732.00	  681.10	-1691.35	  361.71
    107.5700	  589.00	  680.39	-1833.64	  361.45
    107.6700	  684.00	  678.87	-1737.12	  361.19
    107.7700	  694.00	  676.98	-1725.23	  360.93
    107.8700	  634.00	  675.14	-1783.39	  360.68
    107.9700	  634.00	  673.69	-1781.94	  360.42
    108.0700	  688.00	  672.89	-1727.14	  360.17
    108.1700	  682.00	  672.87	-1733.12	  359.92
    108.2700	  700.00	  673.65	-1715.90	  359.67
    108.3700	  639.00	  675.14	-1778.39	  359.43
    108.4700	  675.00	  677.11	-1744.36	  359.18
    108.5700	  706.00	  679.24	-1715.49	  358.94
    108.6700	  708.00	  681.15	-1715.40	  358.70
    108.7700	  699.00	  682.39	-1725.64	  358.46
    108.8700	  673.00	  682.54	-1751.79	  358.22
    108.9700	  674.00	  681.23	-1749.48	  357.99
    109.0700	  687.00	  678.22	-1733.47	  357.76
    109.1700	  665.00	  673.39	-1750.64	  357.53
    109.2700	  703.00	  666.82	-1706.07	  357.30
    109.3700	  694.00	  658.68	-1706.93	  357.07
    109.4700	  659.00	  649.28	-1732.53	  356.85
    109.5700	  642.00	  638.96	-1739.21	  356.63
    109.6700	  671.00	  628.10	-1699.35	  356.41
    109.7700	  588.00	  617.04	-1771.29	  356.20
    109.8700	  591.00	  606.13	-1757.38	  355.98
    109.9700	  600.00	  595.65	-1737.90	  355.77
    110.0700	  579.00	  585.84	-1749.09	  355.57
    110.1700	  565.00	  576.90	-1754.15	  355.36
    110.2700	  579.00	  568.93	-1732.18	  355.16
    110.3700	  568.00	  562.02	-1736.27	  354.96
    110.4700	  559.00	  556.20	-1739.45	  354.76
    110.5700	  597.00	  551.43	-1696.68	  354.57
    110.6700	  552.00	  547.68	-1737.93	  354.38
    110.7700	  528.00	  544.86	-1759.11	  354.19
    110.8700	  488.00	  542.88	-1797.14	  354.00
    110.9700	  523.00	  541.66	-1760.91	  353.82
    111.0700	  525.00	  541.09	-1758.34	  353.64
    111.1700	  553.00	  541.08	-1730.33	  353.47
    111.2700	  561.00	  541.54	-1722.79	  353.29
    111.3700	  558.00	  542.42	-1726.67	  353.12
    111.4700	  551.00	  543.65	-1734.90	  352.96
    111.5700	  559.00	  545.18	-1728.43	  352.80
    111.6700	  603.00	  546.98	-1686.23	  352.64
    111.7700	  550.00	  549.03	-1741.28	  352.48
    111.8700	  556.00	  551.30	-1737.55	  352.33
    111.9700	  516.00	  553.80	-1780.05	  352.18
    112.0700	  577.00	  556.52	-1721.77	  352.03
    112.1700	  581.00	  559.48	-1720.73	  351.89
    112.2700	  584.00	  562.69	-1720.94	  351.75
    112.3700	  524.00	  566.19	-1784.44	  351.62
    112.4700	  518.00	  570.01	-1794.26	  351.49
    112.5700	  572.00	  574.20	-1744.45	  351.36
    112.6700	  612.00	  578.82	-1709.07	  351.24
    112.7700	  618.00	  583.97	-1708.22	  351.12
    112.8700	  635.00	  589.74	-1696.99	  351.00
    112.9700	  641.00	  596.30	-1697.55	  350.89
    113.0700	  694.00	  603.82	-1652.07	  350.78
    113.1700	  702.00	  612.54	-1652.79	  350.68
    113.2700	  746.00	  622.81	-1619.06	  350.58
    113.3700	  721.00	  635.00	-1656.25	  350.49
    113.4700	  792.00	  649.65	-1599.90	  350.40
    113.5700	  795.00	  667.37	-1614.62	  350.31
    113.6700	  858.00	  688.96	-1573.21	  350.23
    113.7700	  901.00	  715.38	-1556.63	  350.15
    113.8700	  929.00	  747.79	-1561.04	  350.08
    113.9700	 1026.00	  787.54	-1503.79	  350.01
    114.0700	 1036.00	  836.19	-1542.44	  349.94
    114.1700	 1158.00	  895.53	-1479.78	  349.89
    114.2700	 1057.00	  967.57	-1652.82	  349.83
    114.3700	 1252.00	 1054.43	-1544.68	  349.78
    114.4700	 1368.00	 1158.41	-1532.66	  349.74
    114.5700	 1429.00	 1281.78	-1595.03	  349.70
    114.6700	 1655.00	 1426.86	-1514.11	  349.66
    114.7700	 1786.00	 1595.78	-1552.03	  349.63
    114.8700	 1965.00	 1790.34	-1567.59	  349.61
    114.9700	 2090.00	 2011.95	-1664.20	  349.59
    115.0700	 2374.00	 2261.36	-1629.61	  349.57
    115.1700	 2566.00	 2538.66	-1714.91	  349.56
    115.2700	 2747.00	 2843.06	-1838.31	  349.56
    115.3700	 3035.00	 3172.65	-1879.90	  349.56
    115.4700	 3404.00	 3524.49	-1862.74	  349.56
    115.5700	 3638.00	 3894.33	-1998.58	  349.57
    115.6700	 4069.00	 4276.87	-1950.12	  349.59
    115.7700	 4470.00	 4665.56	-1937.81	  349.61
    115.8700	 4781.00	 5052.58	-2013.83	  349.64
    115.9700	 5069.00	 5429.07	-2102.32	  349.68
    116.0700	 5731.00	 5785.18	-1796.43	  349.72
    116.1700	 5902.00	 6110.52	-1950.77	  349.76
    116.2700	 6274.00	 6394.37	-1862.62	  349.81
    116.3700	 6474.00	 6626.23	-1894.48	  349.87
    116.4700	 6724.00	 6796.70	-1814.95	  349.93
    116.5700	 6967.00	 6898.37	-1673.62	  350.00
    116.6700	 6969.00	 6926.69	-1699.94	  350.08
    116.7700	 6937.00	 6880.50	-1685.75	  350.16
    116.8700	 6840.00	 6762.22	-1664.47	  350.25
    116.9700	 6621.00	 6577.54	-1698.79	  350.34
    117.0700	 6563.00	 6334.71	-1513.96	  350.44
    117.1700	 6190.00	 6043.55	-1595.80	  350.55
    117.2700	 5672.00	 5714.56	-1784.81	  350.66
    117.3700	 5380.00	 5358.45	-1720.70	  350.78
    117.4700	 4988.00	 4985.38	-1739.62	  350.91
    117.5700	 4583.00	 4604.76	-1764.01	  351.04
    117.6700	 4389.00	 4224.89	-1578.14	  351.18
    117.7700	 4042.00	 3852.91	-1553.16	  351.33
    117.8700	 3540.00	 3494.88	-1697.13	  351.48
    117.9700	 3307.00	 3155.59	-1590.84	  351.64
    118.0700	 2937.00	 2838.66	-1643.91	  351.81
    118.1700	 2583.00	 2546.47	-1705.72	  351.98
    118.2700	 2246.00	 2280.39	-1776.64	  352.16
    118.3700	 1973.00	 2040.95	-1810.20	  352.35
    118.4700	 1750.00	 1827.87	-1820.12	  352.55
    118.5700	 1578.00	 1640.22	-1804.47	  352.75
    118.6700	 1364.00	 1476.57	-1854.82	  352.96
    118.7700	 1231.00	 1335.11	-1846.36	  353.18
    118.8700	 1170.00	 1213.85	-1786.10	  353.41
    118.9700	 1049.00	 1110.68	-1803.93	  353.64
    119.0700	 1013.00	 1023.48	-1752.73	  353.88
    119.1700	  826.00	  950.18	-1866.43	  354.13
    119.2700	  815.00	  888.82	-1816.07	  354.38
    119.3700	  748.00	  837.65	-1831.90	  354.65
    119.4700	  733.00	  795.07	-1804.32	  354.92
    119.5700	  687.00	  759.69	-1814.94	  355.20
    119.6700	  653.00	  730.30	-1819.55	  355.49
    119.7700	  608.00	  705.87	-1840.12	  355.79
    119.8700	  668.00	  685.54	-1759.79	  356.09
    119.9700	  603.00	  668.62	-1807.86	  356.40
    120.0700	  609.00	  654.50	-1787.75	  356.72
    120.1700	  597.00	  642.71	-1787.96	  357.05
    120.2700	  569.00	  632.88	-1806.13	  357.39
    120.3700	  587.00	  624.69	-1779.94	  357.74
    120.4700	  515.00	  617.90	-1845.15	  358.09
    120.5700	  559.00	  612.31	-1795.56	  358.46
    120.6700	  582.00	  607.79	-1768.04	  358.83
    120.7700	  547.00	  604.20	-1799.45	  359.21
    120.8700	  532.00	  601.46	-1811.71	  359.60
    120.9700	  571.00	  599.49	-1770.74	  360.00
    121.0700	  612.00	  598.24	-1728.49	  360.41
    121.1700	  543.00	  597.65	-1796.90	  360.83
    121.2700	  560.00	  597.69	-1779.94	  361.26
    121.3700	  571.00	  598.31	-1769.56	  361.69
    121.4700	  557.00	  599.47	-1784.72	  362.14
    121.5700	  611.00	  601.12	-1732.37	  362.59
    121.6700	  602.00	  603.20	-1743.45	  363.06
    121.7700	  600.00	  605.67	-1747.92	  363.53
    121.8700	  591.00	  608.46	-1759.71	  364.02
    121.9700	  616.00	  611.46	-1737.71	  364.51
    122.0700	  610.00	  614.64	-1746.89	  365.01
    122.1700	  606.00	  617.88	-1754.13	  365.53
    122.2700	  634.00	  621.09	-1729.34	  366.05
    122.3700	  617.00	  624.17	-1749.42	  366.58
    122.4700	  678.00	  627.01	-1691.26	  367.13
    122.5700	  682.00	  629.51	-1689.76	  367.68
    122.6700	  625.00	  631.60	-1748.85	  368.25
    122.7700	  658.00	  633.20	-1717.45	  368.82
    122.8700	  695.00	  634.24	-1681.49	  369.41
    122.9700	  687.00	  634.69	-1689.94	  370.00
    123.0700	  650.00	  634.56	-1726.81	  370.61
    123.1700	  628.00	  633.85	-1748.10	  371.23
    123.2700	  664.00	  632.61	-1710.86	  371.86
    123.3700	  676.00	  630.89	-1697.14	  372.49
    123.4700	  678.00	  628.74	-1692.99	  373.14
    123.5700	  696.00	  626.24	-1672.49	  373.81
    123.6700	  664.00	  623.47	-1701.72	  374.48
    123.7700	  685.00	  620.48	-1677.73	  375.16
    123.8700	  641.00	  617.36	-1718.61	  375.86
    123.9700	  613.00	  614.16	-1743.41	  376.56
    124.0700	  656.00	  610.95	-1697.20	  377.28
    124.1700	  646.00	  607.78	-1704.03	  378.01
    124.2700	  627.00	  604.69	-1719.94	  378.75
    124.3700	  663.00	  601.74	-1680.99	  379.50
    124.4700	  601.00	  598.94	-1740.19	  380.27
    124.5700	  570.00	  596.32	-1768.57	  381.04
    124.6700	  556.00	  593.91	-1780.16	  381.83
    124.7700	  597.00	  591.71	-1736.96	  382.63
    124.8700	  530.00	  589.74	-1801.99	  383.44
    124.9700	  567.00	  500.79	-1676.04	  384.27
    125.0700	  556.00	  501.62	-1742.25	  385.10
    125.1700	  572.00	  502.47	-1742.25	  385.95
    125.2700	  594.00	  503.33	-1742.25	  386.82
    125.3700	  608.00	  504.21	-1742.25	  387.69
    125.4700	  563.00	  505.10	-1742.25	  388.58
    125.5700	  579.00	  506.00	-1742.25	  389.48
    125.6700	  611.00	  506.91	-1742.25	  390.39
    125.7700	  606.00	  507.83	-1742.25	  391.32
    125.8700	  585.00	  508.77	-1742.25	  392.25
    125.9700	  566.00	  509.73	-1742.25	  393.21
    126.0700	  564.00	  510.69	-1742.25	  394.17
    126.1700	  579.00	  511.67	-1742.25	  395.15
    126.2700	  605.00	  512.66	-1742.25	  396.14
    126.3700	  584.00	  513.67	-1742.25	  397.15
    126.4700	  598.00	  514.68	-1742.25	  398.17
    126.5700	  639.00	  515.72	-1742.25	  399.20
    126.6700	  586.00	  516.76	-1742.25	  400.25
    126.7700	  602.00	  517.82	-1742.25	  401.31
    126.8700	  633.00	  518.90	-1742.25	  402.38
    126.9700	  639.00	  519.99	-1742.25	  403.47
    127.0700	  658.00	  521.09	-1742.25	  404.57
    127.1700	  633.00	  522.21	-1742.25	  405.69
    127.2700	  651.00	  523.34	-1742.25	  406.82
    127.3700	  606.00	  524.48	-1742.25	  407.96
    127.4700	  650.00	  525.64	-1742.25	  409.12
    127.5700	  652.00	  526.82	-1742.25	  410.30
    127.6700	  695.00	  528.01	-1742.25	  411.49
    127.7700	  678.00	  529.21	-1742.25	  412.69
    127.8700	  727.00	  530.43	-1742.25	  413.91
    127.9700	  744.00	  531.66	-1742.25	  415.14
    128.0700	  773.00	  532.91	-1742.25	  416.39
    128.1700	  709.00	  534.18	-1742.25	  417.66
    128.2700	  757.00	  535.46	-1742.25	  418.94
    128.3700	  816.00	  536.75	-1742.25	  420.23
    128.4700	  744.00	  538.06	-1742.25	  421.54
    128.5700	    0.00	  539.39	-1742.25	  422.87
    128.6700	    1.00	  540.73	-1742.25	  424.21
     12.3027	        	        	        	        	       0	(  0  0  2)	  0  1
     24.8861	        	        	        	        	       0	(  0  0  4)	  0  1
     28.3282	        	        	        	        	       0	(  1  0  0)	  0  1
     29.0254	        	        	        	        	       0	(  1  0  1)	  0  1
     31.0316	        	        	        	        	       0	(  1  0  2)	  0  1
     34.1400	        	        	        	        	       0	(  1  0  3)	  0  1
     37.7854	        	        	        	        	       0	(  0  0  6)	  0  1
     38.1171	        	        	        	        	       0	(  1  0  4)	  0  1
     42.7672	        	        	        	        	       0	(  1  0  5)	  0  1
     47.9512	        	        	        	        	       0	(  1  0  6)	  0  1
     50.2657	        	        	        	        	       0	(  1  1  0)	  0  1
     51.2070	        	        	        	        	       0	(  0  0  8)	  0  1
     51.9887	        	        	        	        	       0	(  1  1  2)	  0  1
     53.5816	        	        	        	        	       0	(  1  0  7)	  0  1
     56.9366	        	        	        	        	       0	(  1  1  4)	  0  1
     58.7629	        	        	        	        	       0	(  2  0  0)	  0  1
     59.1545	        	        	        	        	       0	(  2  0  1)	  0  1
     59.6120	        	        	        	        	       0	(  1  0  8)	  0  1
     60.3199	        	        	        	        	       0	(  2  0  2)	  0  1
     62.2331	        	        	        	        	       0	(  2  0  3)	  0  1
     64.6313	        	        	        	        	       0	(  1  1  6)	  0  1
     64.8572	        	        	        	        	       0	(  2  0  4)	  0  1
     65.4359	        	        	        	        	       0	(  0  0 10)	  0  1
     66.0282	        	        	        	        	       0	(  1  0  9)	  0  1
     68.1514	        	        	        	        	       0	(  2  0  5)	  0  1
     72.0789	        	        	        	        	       0	(  2  0  6)	  0  1
     72.8441	        	        	        	        	       0	(  1  0 10)	  0  1
     74.6689	        	        	        	        	       0	(  1  1  8)	  0  1
     76.6130	        	        	        	        	       0	(  2  0  7)	  0  1
     80.1016	        	        	        	        	       0	(  1  0 11)	  0  1
     80.9158	        	        	        	        	       0	(  0  0 12)	  0  1
     81.0049	        	        	        	        	       0	(  2  1  0)	  0  1
     81.3448	        	        	        	        	       0	(  2  1  1)	  0  1
     81.7432	        	        	        	        	       0	(  2  0  8)	  0  1
     82.3626	        	        	        	        	       0	(  2  1  2)	  0  1
     84.0539	        	        	        	        	       0	(  2  1  3)	  0  1
     86.4136	        	        	        	        	       0	(  2  1  4)	  0  1
     86.9400	        	        	        	        	       0	(  1  1 10)	  0  1
     87.4811	        	        	        	        	       0	(  2  0  9)	  0  1
     87.8756	        	        	        	        	       0	(  1  0 12)	  0  1
     89.4394	        	        	        	        	       0	(  2  1  5)	  0  1
     93.1368	        	        	        	        	       0	(  2  1  6)	  0  1
     93.8684	        	        	        	        	       0	(  2  0 10)	  0  1
     94.8944	        	        	        	        	       0	(  3  0  0)	  0  1
     95.2318	        	        	        	        	       0	(  3  0  1)	  0  1
     96.2450	        	        	        	        	       0	(  3  0  2)	  0  1
     96.2886	        	        	        	        	       0	(  1  0 13)	  0  1
     97.5253	        	        	        	        	       0	(  2  1  7)	  0  1
     97.9383	        	        	        	        	       0	(  3  0  3)	  0  1
     98.4545	        	        	        	        	       0	(  0  0 14)	  0  1
    100.3213	        	        	        	        	       0	(  3  0  4)	  0  1
    100.9902	        	        	        	        	       0	(  2  0 11)	  0  1
    101.8101	        	        	        	        	       0	(  1  1 12)	  0  1
    102.6477	        	        	        	        	       0	(  2  1  8)	  0  1
    103.4129	        	        	        	        	       0	(  3  0  5)	  0  1
    105.5410	        	        	        	        	       0	(  1  0 14)	  0  1
    107.2480	        	        	        	        	       0	(  3  0  6)	  0  1
    108.5845	        	        	        	        	       0	(  2  1  9)	  0  1
    109.0013	        	        	        	        	       0	(  2  0 12)	  0  1
    111.8883	        	        	        	        	       0	(  3  0  7)	  0  1
    115.4813	        	        	        	        	       0	(  2  1 10)	  0  1
    115.9842	        	        	        	        	       0	(  1  0 15)	  0  1
    116.6211	        	        	        	        	       0	(  2  2  0)	  0  1
    117.4418	        	        	        	        	       0	(  3  0  8)	  0  1
    118.1363	        	        	        	        	       0	(  2  2  2)	  0  1
    118.1856	        	        	        	        	       0	(  2  0 13)	  0  1
    119.9423	        	        	        	        	       0	(  0  0 16)	  0  1
    120.6540	        	        	        	        	       0	(  1  1 14)	  0  1
    122.8220	        	        	        	        	       0	(  2  2  4)	  0  1
    123.6085	        	        	        	        	       0	(  2  1 11)	  0  1
    124.1019	        	        	        	        	       0	(  3  0  9)	  0  1
    124.6873	        	        	        	        	       0	(  3  1  0)	  0  1
    125.0975	        	        	        	        	       0	(  3  1  1)	  0  1
    126.3411	        	        	        	        	       0	(  3  1  2)	  0  1
    128.3279	        	        	        	        	       0	(  1  0 16)	  0  1
    128.4594	        	        	        	        	       0	(  3  1  3)	  0  1
    129.1159	        	        	        	        	       0	(  2  0 14)	  0  1
    131.2624	        	        	        	        	       0	(  2  2  6)	  0  1
    131.5356	        	        	        	        	       0	(  3  1  4)	  0  1
    132.2432	        	        	        	        	       0	(  3  0 10)	  0  1
    133.5216	        	        	        	        	       0	(  2  1 12)	  0  1
    135.7231	        	        	        	        	       0	(  3  1  5)	  0  1
    141.3195	        	        	        	        	       0	(  3  1  6)	  0  1
    142.7238	        	        	        	        	       0	(  3  0 11)	  0  1
    143.2588	        	        	        	        	       0	(  2  0 15)	  0  1
    144.5014	        	        	        	        	       0	(  1  0 17)	  0  1
    145.4990	        	        	        	        	       0	(  2  2  8)	  0  1
    146.6808	        	        	        	        	       0	(  2  1 13)	  0  1
    148.9950	        	        	        	        	       0	(  3  1  7)	  0  1
    149.5970	        	        	        	        	       0	(  1  1 16)	  0  1
    154.0062	        	        	        	        	       0	(  0  0 18)	  0  1
    158.6135	        	        	        	        	       0	(  3  0 12)	  0  1
    158.8578	        	        	        	        	       0	(  4  0  0)	  0  1
    159.8157	        	        	        	        	       0	(  4  0  1)	  0  1
    160.9989	        	        	        	        	       0	(  3  1  8)	  0  1
    162.9989	        	        	        	        	       0	(  4  0  2)	  0  1
    169.7638	        	        	        	        	       0	(  2  0 16)	  0  1
    170.3685	        	        	        	        	       0	(  4  0  3)	  0  1
    174.2518	        	        	        	        	       0	(  2  1 14)	  0  1
