MSG Master    CELL:    5.91084   5.91084  23.23952   90.0000   90.0000  120.0000   SPGR: P 63/m m c             TEMP:    928.95
  1   1280     2.52000     0.00000    -0.12155     0.00000     0.00000    0
    98     0     2
       0.00000      10.00000
     125.00000     130.00000
 2Theta	Yobs	Ycal	Yobs-Ycal	Backg	Posr	(hkl)	K
      0.7700	    1.00	  487.64	-1728.65	  375.98
      0.8700	    0.00	  489.01	-1728.65	  377.35
      0.9700	   38.00	  490.37	-1728.65	  378.71
      1.0700	   31.00	  491.70	-1728.65	  380.05
      1.1700	   47.00	  493.03	-1728.65	  381.37
      1.2700	   42.00	  494.33	-1728.65	  382.67
      1.3700	   49.00	  495.62	-1728.65	  383.96
      1.4700	   80.00	  496.90	-1728.65	  385.24
      1.5700	  286.00	  498.16	-1728.65	  386.50
      1.6700	  423.00	  499.40	-1728.65	  387.74
      1.7700	  641.00	  500.63	-1728.65	  388.97
      1.8700	  659.00	  501.84	-1728.65	  390.18
      1.9700	  710.00	  503.04	-1728.65	  391.38
      2.0700	  797.00	  504.22	-1728.65	  392.57
      2.1700	  774.00	  505.39	-1728.65	  393.73
      2.2700	  799.00	  506.55	-1728.65	  394.89
      2.3700	  746.00	  507.69	-1728.65	  396.03
      2.4700	  727.00	  508.81	-1728.65	  397.15
      2.5700	  715.00	  509.92	-1728.65	  398.26
      2.6700	  717.00	  511.01	-1728.65	  399.35
      2.7700	  676.00	  512.09	-1728.65	  400.44
      2.8700	  606.00	  513.16	-1728.65	  401.50
      2.9700	  618.00	  514.21	-1728.65	  402.55
      3.0700	  591.00	  515.25	-1728.65	  403.59
      3.1700	  596.00	  516.28	-1728.65	  404.62
      3.2700	  663.00	  517.29	-1728.65	  405.63
      3.3700	  759.00	  518.28	-1728.65	  406.62
      3.4700	  852.00	  519.27	-1728.65	  407.61
      3.5700	  944.00	  520.23	-1728.65	  408.58
      3.6700	  988.00	  521.19	-1728.65	  409.53
      3.7700	 1026.00	  522.13	-1728.65	  410.47
      3.8700	 1087.00	  523.06	-1728.65	  411.40
      3.9700	 1117.00	  523.98	-1728.65	  412.32
      4.0700	 1134.00	  524.88	-1728.65	  413.22
      4.1700	 1261.00	  525.77	-1728.65	  414.11
      4.2700	 1176.00	  526.64	-1728.65	  414.99
      4.3700	 1168.00	  527.51	-1728.65	  415.85
      4.4700	 1167.00	  528.36	-1728.65	  416.70
      4.5700	 1145.00	  529.20	-1728.65	  417.54
      4.6700	 1117.00	  530.02	-1728.65	  418.36
      4.7700	 1089.00	  530.83	-1728.65	  419.17
      4.8700	 1086.00	  531.63	-1728.65	  419.97
      4.9700	 1042.00	  532.42	-1728.65	  420.76
      5.0700	 1062.00	  533.20	-1728.65	  421.54
      5.1700	 1001.00	  533.96	-1728.65	  422.30
      5.2700	  987.00	  534.71	-1728.65	  423.05
      5.3700	  903.00	  535.45	-1728.65	  423.79
      5.4700	  919.00	  536.18	-1728.65	  424.52
      5.5700	  928.00	  536.89	-1728.65	  425.23
      5.6700	  897.00	  537.60	-1728.65	  425.94
      5.7700	  901.00	  538.29	-1728.65	  426.63
      5.8700	  898.00	  538.97	-1728.65	  427.31
      5.9700	  805.00	  539.64	-1728.65	  427.98
      6.0700	  832.00	  540.30	-1728.65	  428.64
      6.1700	  798.00	  540.94	-1728.65	  429.28
      6.2700	  750.00	  541.58	-1728.65	  429.92
      6.3700	  765.00	  542.20	-1728.65	  430.54
      6.4700	  792.00	  542.81	-1728.65	  431.15
      6.5700	  762.00	  543.41	-1728.65	  431.76
      6.6700	  740.00	  544.00	-1728.65	  432.35
      6.7700	  796.00	  544.58	-1728.65	  432.93
      6.8700	  686.00	  545.15	-1728.65	  433.49
      6.9700	  684.00	  545.71	-1728.65	  434.05
      7.0700	  762.00	  546.26	-1728.65	  434.60
      7.1700	  671.00	  546.80	-1728.65	  435.14
      7.2700	  753.00	  547.32	-1728.65	  435.66
      7.3700	  684.00	  547.84	-1728.65	  436.18
      7.4700	  657.00	  548.34	-1728.65	  436.69
      7.5700	  658.00	  548.84	-1728.65	  437.18
      7.6700	  675.00	  549.33	-1728.65	  437.67
      7.7700	  620.00	  549.80	-1728.65	  438.14
      7.8700	  660.00	  550.27	-1728.65	  438.61
      7.9700	  671.00	  550.72	-1728.65	  439.06
      8.0700	  662.00	  551.17	-1728.65	  439.51
      8.1700	  631.00	  551.60	-1728.65	  439.94
      8.2700	  633.00	  552.03	-1728.65	  440.37
      8.3700	  687.00	  552.45	-1728.65	  440.79
      8.4700	  620.00	  552.85	-1728.65	  441.19
      8.5700	  610.00	  553.25	-1728.65	  441.59
      8.6700	  629.00	  553.64	-1728.65	  441.98
      8.7700	  622.00	  554.02	-1728.65	  442.36
      8.8700	  615.00	  554.39	-1728.65	  442.73
      8.9700	  605.00	  554.75	-1728.65	  443.09
      9.0700	  582.00	  555.10	-1728.65	  443.44
      9.1700	  576.00	  555.44	-1728.65	  443.78
      9.2700	  577.00	  555.78	-1728.65	  444.12
      9.3700	  598.00	  556.10	-1728.65	  444.44
      9.4700	  629.00	  556.42	-1728.65	  444.76
      9.5700	  592.00	  556.72	-1728.65	  445.07
      9.6700	  607.00	  557.02	-1728.65	  445.36
      9.7700	  574.00	  557.31	-1728.65	  445.65
      9.8700	  581.00	  557.59	-1728.65	  445.94
      9.9700	  618.00	  557.87	-1728.65	  446.21
     10.0700	  586.00	  559.45	-1702.10	  446.47
     10.1700	  575.00	  559.85	-1713.50	  446.73
     10.2700	  578.00	  560.27	-1710.91	  446.98
     10.3700	  627.00	  560.72	-1662.37	  447.22
     10.4700	  591.00	  561.25	-1698.90	  447.45
     10.5700	  560.00	  561.90	-1730.55	  447.67
     10.6700	  599.00	  562.75	-1692.40	  447.89
     10.7700	  559.00	  563.89	-1733.54	  448.10
     10.8700	  557.00	  565.41	-1737.06	  448.30
     10.9700	  550.00	  567.32	-1745.97	  448.49
     11.0700	  590.00	  569.62	-1708.27	  448.68
     11.1700	  590.00	  572.30	-1710.95	  448.85
     11.2700	  550.00	  575.39	-1754.04	  449.02
     11.3700	  545.00	  578.98	-1762.63	  449.19
     11.4700	  558.00	  583.17	-1753.82	  449.34
     11.5700	  604.00	  588.18	-1712.83	  449.49
     11.6700	  651.00	  594.32	-1671.97	  449.63
     11.7700	  626.00	  602.07	-1704.72	  449.76
     11.8700	  645.00	  611.96	-1695.61	  449.89
     11.9700	  643.00	  624.01	-1709.66	  450.01
     12.0700	  644.00	  636.74	-1721.39	  450.12
     12.1700	  677.00	  646.06	-1697.70	  450.23
     12.2700	  656.00	  645.44	-1718.09	  450.32
     12.3700	  713.00	  631.28	-1646.93	  450.42
     12.4700	  571.00	  610.51	-1768.16	  450.50
     12.5700	  603.00	  592.52	-1718.17	  450.58
     12.6700	  583.00	  580.54	-1726.19	  450.65
     12.7700	  548.00	  573.73	-1754.38	  450.71
     12.8700	  582.00	  570.16	-1716.81	  450.77
     12.9700	  538.00	  568.25	-1758.90	  450.83
     13.0700	  593.00	  567.10	-1702.75	  450.87
     13.1700	  565.00	  566.33	-1729.98	  450.91
     13.2700	  592.00	  565.77	-1702.42	  450.94
     13.3700	  530.00	  565.34	-1763.99	  450.97
     13.4700	  558.00	  565.00	-1735.65	  450.99
     13.5700	  577.00	  564.73	-1716.38	  451.01
     13.6700	  522.00	  564.51	-1771.16	  451.02
     13.7700	  537.00	  564.32	-1755.97	  451.02
     13.8700	  553.00	  564.16	-1739.81	  451.02
     13.9700	  626.00	  564.02	-1666.67	  451.01
     14.0700	  542.00	  563.90	-1750.54	  450.99
     14.1700	  541.00	  563.78	-1751.43	  450.97
     14.2700	  560.00	  563.67	-1732.32	  450.95
     14.3700	  538.00	  563.57	-1754.21	  450.91
     14.4700	  576.00	  563.47	-1716.11	  450.88
     14.5700	  520.00	  563.37	-1772.02	  450.83
     14.6700	  562.00	  563.27	-1729.92	  450.79
     14.7700	  563.00	  563.20	-1728.85	  450.73
     14.8700	  567.00	  563.11	-1724.75	  450.68
     14.9700	  547.00	  563.01	-1744.66	  450.61
     15.0700	  551.00	  562.91	-1740.56	  450.54
     15.1700	  545.00	  562.81	-1746.46	  450.47
     15.2700	  590.00	  562.70	-1701.35	  450.39
     15.3700	  575.00	  562.60	-1716.24	  450.31
     15.4700	  509.00	  562.49	-1782.14	  450.22
     15.5700	  585.00	  562.37	-1706.02	  450.12
     15.6700	  583.00	  562.26	-1707.91	  450.02
     15.7700	  531.00	  562.14	-1759.79	  449.92
     15.8700	  550.00	  562.02	-1740.67	  449.81
     15.9700	  620.00	  561.89	-1670.54	  449.70
     16.0700	  553.00	  561.76	-1737.41	  449.58
     16.1700	  541.00	  561.63	-1749.28	  449.46
     16.2700	  537.00	  561.49	-1753.14	  449.33
     16.3700	  559.00	  561.35	-1731.00	  449.20
     16.4700	  567.00	  561.21	-1722.86	  449.07
     16.5700	  593.00	  561.06	-1696.71	  448.93
     16.6700	  542.00	  560.91	-1747.56	  448.78
     16.7700	  510.00	  560.75	-1779.40	  448.63
     16.8700	  527.00	  560.60	-1762.24	  448.48
     16.9700	  530.00	  560.43	-1759.08	  448.33
     17.0700	  540.00	  560.27	-1748.92	  448.16
     17.1700	  516.00	  560.10	-1772.75	  448.00
     17.2700	  524.00	  559.92	-1764.57	  447.83
     17.3700	  536.00	  559.75	-1752.40	  447.66
     17.4700	  572.00	  559.57	-1716.22	  447.48
     17.5700	  535.00	  559.38	-1753.03	  447.30
     17.6700	  535.00	  559.30	-1752.95	  447.12
     17.7700	  557.00	  559.11	-1730.76	  446.93
     17.8700	  560.00	  558.92	-1727.57	  446.74
     17.9700	  571.00	  558.73	-1716.38	  446.54
     18.0700	  530.00	  558.53	-1757.18	  446.34
     18.1700	  524.00	  558.33	-1762.98	  446.14
     18.2700	  544.00	  558.12	-1742.77	  445.93
     18.3700	  538.00	  558.01	-1748.66	  445.72
     18.4700	  528.00	  557.80	-1758.45	  445.51
     18.5700	  560.00	  557.59	-1726.23	  445.30
     18.6700	  548.00	  557.37	-1738.02	  445.08
     18.7700	  561.00	  557.15	-1724.80	  444.85
     18.8700	  531.00	  556.93	-1754.58	  444.63
     18.9700	  569.00	  556.71	-1716.36	  444.40
     19.0700	  548.00	  556.48	-1737.13	  444.17
     19.1700	  474.00	  556.25	-1810.90	  443.93
     19.2700	  519.00	  556.02	-1765.67	  443.69
     19.3700	  559.00	  555.79	-1725.43	  443.45
     19.4700	  571.00	  555.55	-1713.20	  443.21
     19.5700	  565.00	  555.31	-1718.96	  442.96
     19.6700	  513.00	  555.07	-1770.72	  442.71
     19.7700	  574.00	  554.83	-1709.47	  442.46
     19.8700	  539.00	  554.58	-1744.23	  442.20
     19.9700	  586.00	  554.33	-1696.98	  441.94
     20.0700	  515.00	  554.08	-1767.73	  441.68
     20.1700	  571.00	  553.86	-1711.51	  441.42
     20.2700	  535.00	  553.61	-1747.26	  441.15
     20.3700	  574.00	  553.35	-1708.00	  440.88
     20.4700	  552.00	  553.10	-1729.75	  440.61
     20.5700	  565.00	  552.84	-1716.49	  440.34
     20.6700	  551.00	  552.58	-1730.23	  440.06
     20.7700	  549.00	  552.32	-1731.97	  439.78
     20.8700	  538.00	  552.06	-1742.70	  439.50
     20.9700	  556.00	  551.79	-1724.44	  439.22
     21.0700	  550.00	  551.53	-1730.18	  438.93
     21.1700	  561.00	  551.26	-1718.91	  438.65
     21.2700	  537.00	  551.00	-1742.64	  438.36
     21.3700	  548.00	  550.73	-1731.38	  438.06
     21.4700	  564.00	  550.46	-1715.11	  437.77
     21.5700	  549.00	  550.19	-1729.84	  437.47
     21.6700	  536.00	  549.93	-1742.58	  437.18
     21.7700	  582.00	  549.66	-1696.31	  436.88
     21.8700	  542.00	  549.40	-1736.04	  436.57
     21.9700	  535.00	  549.13	-1742.78	  436.27
     22.0700	  573.00	  548.83	-1704.48	  435.96
     22.1700	  549.00	  548.57	-1728.22	  435.66
     22.2700	  542.00	  548.31	-1734.96	  435.35
     22.3700	  546.00	  548.06	-1730.70	  435.04
     22.4700	  532.00	  547.80	-1744.45	  434.72
     22.5700	  565.00	  547.56	-1711.21	  434.41
     22.6700	  552.00	  547.32	-1723.97	  434.09
     22.7700	  535.00	  547.09	-1740.74	  433.78
     22.8700	  561.00	  547.02	-1714.66	  433.46
     22.9700	  535.00	  546.81	-1740.46	  433.14
     23.0700	  541.00	  546.62	-1734.26	  432.81
     23.1700	  581.00	  546.44	-1694.09	  432.49
     23.2700	  545.00	  546.29	-1729.94	  432.16
     23.3700	  576.00	  546.18	-1698.83	  431.84
     23.4700	  548.00	  546.10	-1726.75	  431.51
     23.5700	  526.00	  546.08	-1748.73	  431.18
     23.6700	  546.00	  546.14	-1728.79	  430.85
     23.7700	  522.00	  546.33	-1752.98	  430.52
     23.8700	  547.00	  546.73	-1728.38	  430.19
     23.9700	  576.00	  547.51	-1700.16	  429.85
     24.0700	  562.00	  548.96	-1715.61	  429.52
     24.1700	  563.00	  551.53	-1717.18	  429.18
     24.2700	  596.00	  555.85	-1688.49	  428.85
     24.3700	  589.00	  562.54	-1702.19	  428.51
     24.4700	  619.00	  572.13	-1681.78	  428.17
     24.5700	  628.00	  584.51	-1685.16	  427.83
     24.6700	  617.00	  598.16	-1709.81	  427.49
     24.7700	  608.00	  609.22	-1729.87	  427.15
     24.8700	  643.00	  611.69	-1697.33	  426.80
     24.9700	  634.00	  601.79	-1696.44	  426.46
     25.0700	  579.00	  584.66	-1734.31	  426.12
     25.1700	  584.00	  568.53	-1713.18	  425.77
     25.2700	  551.00	  557.00	-1734.65	  425.43
     25.3700	  568.00	  550.01	-1710.66	  425.08
     25.4700	  579.00	  546.15	-1695.80	  424.73
     25.5700	  543.00	  544.03	-1729.67	  424.38
     25.6700	  534.00	  542.75	-1737.40	  424.04
     25.7700	  532.00	  541.88	-1738.53	  423.69
     25.8700	  577.00	  541.25	-1692.90	  423.34
     25.9700	  525.00	  540.77	-1744.42	  422.99
     26.0700	  559.00	  540.42	-1710.07	  422.64
     26.1700	  551.00	  540.16	-1717.81	  422.29
     26.2700	  549.00	  540.00	-1719.65	  421.94
     26.3700	  561.00	  539.93	-1707.58	  421.58
     26.4700	  533.00	  539.96	-1735.60	  421.23
     26.5700	  557.00	  540.08	-1711.73	  420.88
     26.6700	  552.00	  540.33	-1716.98	  420.53
     26.7700	  545.00	  540.72	-1724.37	  420.17
     26.8700	  573.00	  541.28	-1696.93	  419.82
     26.9700	  521.00	  542.07	-1749.71	  419.47
     27.0700	  530.00	  543.14	-1741.79	  419.11
     27.1700	  571.00	  544.62	-1702.27	  418.76
     27.2700	  566.00	  546.71	-1709.36	  418.41
     27.3700	  544.00	  549.80	-1734.44	  418.05
     27.4700	  568.00	  554.64	-1715.29	  417.70
     27.5700	  547.00	  562.60	-1744.25	  417.34
     27.6700	  571.00	  575.90	-1733.55	  416.99
     27.7700	  596.00	  597.65	-1730.29	  416.63
     27.8700	  597.00	  630.97	-1762.62	  416.28
     27.9700	  658.00	  677.20	-1747.84	  415.93
     28.0700	  723.00	  733.22	-1738.87	  415.57
     28.1700	  834.00	  788.90	-1683.55	  415.22
     28.2700	  928.00	  826.05	-1626.70	  414.86
     28.3700	  907.00	  825.85	-1647.49	  414.51
     28.4700	  866.00	  792.66	-1655.31	  414.16
     28.5700	  740.00	  757.54	-1746.18	  413.80
     28.6700	  665.00	  744.25	-1807.90	  413.45
     28.7700	  735.00	  756.24	-1749.88	  413.10
     28.8700	  778.00	  781.28	-1731.93	  412.75
     28.9700	  782.00	  796.75	-1743.39	  412.39
     29.0700	  880.00	  779.68	-1628.33	  412.04
     29.1700	  750.00	  729.21	-1707.85	  411.69
     29.2700	  652.00	  669.24	-1745.88	  411.34
     29.3700	  629.00	  619.32	-1718.97	  410.99
     29.4700	  595.00	  585.11	-1718.76	  410.64
     29.5700	  585.00	  564.49	-1708.13	  410.29
     29.6700	  598.00	  552.88	-1683.53	  409.94
     29.7700	  558.00	  546.32	-1716.97	  409.59
     29.8700	  569.00	  542.36	-1702.01	  409.24
     29.9700	  603.00	  539.86	-1665.51	  408.89
     30.0700	  567.00	  538.32	-1699.97	  408.54
     30.1700	  551.00	  537.72	-1715.37	  408.20
     30.2700	  544.00	  538.33	-1722.98	  407.85
     30.3700	  569.00	  540.78	-1700.43	  407.50
     30.4700	  531.00	  546.08	-1743.73	  407.16
     30.5700	  593.00	  555.40	-1691.05	  406.82
     30.6700	  545.00	  569.34	-1752.99	  406.47
     30.7700	  555.00	  586.89	-1760.54	  406.13
     30.8700	  609.00	  604.48	-1724.13	  405.79
     30.9700	  660.00	  615.63	-1684.28	  405.44
     31.0700	  629.00	  613.23	-1712.88	  405.10
     31.1700	  577.00	  596.83	-1748.48	  404.76
     31.2700	  565.00	  575.12	-1738.77	  404.42
     31.3700	  557.00	  556.07	-1727.72	  404.09
     31.4700	  569.00	  542.55	-1702.19	  403.75
     31.5700	  561.00	  534.18	-1701.83	  403.41
     31.6700	  557.00	  529.42	-1701.07	  403.07
     31.7700	  517.00	  526.74	-1738.39	  402.74
     31.8700	  529.00	  525.13	-1724.78	  402.41
     31.9700	  492.00	  524.08	-1760.73	  402.07
     32.0700	  537.00	  523.37	-1715.01	  401.74
     32.1700	  534.00	  522.88	-1717.53	  401.41
     32.2700	  535.00	  522.60	-1716.24	  401.08
     32.3700	  563.00	  522.49	-1688.14	  400.75
     32.4700	  576.00	  522.57	-1675.22	  400.42
     32.5700	  572.00	  522.84	-1679.49	  400.09
     32.6700	  547.00	  523.35	-1705.00	  399.77
     32.7700	  548.00	  524.13	-1704.77	  399.44
     32.8700	  562.00	  525.25	-1691.90	  399.12
     32.9700	  534.00	  526.85	-1721.49	  398.79
     33.0700	  531.00	  529.11	-1726.76	  398.47
     33.1700	  559.00	  532.45	-1702.10	  398.15
     33.2700	  527.00	  537.72	-1739.37	  397.83
     33.3700	  568.00	  546.61	-1707.26	  397.51
     33.4700	  525.00	  562.24	-1765.88	  397.20
     33.5700	  574.00	  589.48	-1744.13	  396.88
     33.6700	  585.00	  634.29	-1777.94	  396.57
     33.7700	  722.00	  700.68	-1707.33	  396.25
     33.8700	  801.00	  785.51	-1713.15	  395.94
     33.9700	  889.00	  873.48	-1713.13	  395.63
     34.0700	  944.00	  936.02	-1720.67	  395.32
     34.1700	 1055.00	  939.78	-1613.42	  395.01
     34.2700	  927.00	  876.69	-1678.33	  394.70
     34.3700	  847.00	  780.54	-1662.19	  394.40
     34.4700	  668.00	  689.72	-1750.37	  394.09
     34.5700	  641.00	  621.62	-1709.27	  393.79
     34.6700	  590.00	  577.71	-1716.36	  393.49
     34.7700	  555.00	  552.19	-1725.84	  393.18
     34.8700	  538.00	  538.00	-1728.64	  392.88
     34.9700	  572.00	  529.80	-1686.45	  392.59
     35.0700	  531.00	  524.58	-1722.23	  392.29
     35.1700	  528.00	  520.84	-1721.49	  392.00
     35.2700	  519.00	  518.00	-1727.65	  391.70
     35.3700	  487.00	  515.73	-1757.38	  391.41
     35.4700	  535.00	  513.87	-1707.52	  391.12
     35.5700	  479.00	  512.31	-1761.96	  390.83
     35.6700	  502.00	  511.45	-1738.10	  390.54
     35.7700	  473.00	  510.31	-1765.96	  390.25
     35.8700	  515.00	  509.31	-1722.96	  389.97
     35.9700	  447.00	  508.43	-1790.08	  389.69
     36.0700	  533.00	  507.65	-1703.30	  389.40
     36.1700	  489.00	  506.95	-1746.60	  389.12
     36.2700	  519.00	  506.32	-1715.96	  388.85
     36.3700	  477.00	  505.74	-1757.39	  388.57
     36.4700	  507.00	  505.22	-1726.87	  388.29
     36.5700	  496.00	  504.76	-1737.41	  388.02
     36.6700	  474.00	  504.36	-1759.00	  387.75
     36.7700	  494.00	  504.00	-1738.65	  387.47
     36.8700	  528.00	  503.72	-1704.37	  387.21
     36.9700	  464.00	  503.56	-1768.21	  386.94
     37.0700	  506.00	  503.61	-1726.26	  386.67
     37.1700	  511.00	  504.02	-1721.67	  386.41
     37.2700	  455.00	  505.01	-1778.65	  386.14
     37.3700	  549.00	  506.77	-1686.42	  385.88
     37.4700	  512.00	  509.38	-1726.03	  385.62
     37.5700	  493.00	  512.53	-1748.18	  385.37
     37.6700	  518.00	  515.42	-1726.07	  385.11
     37.7700	  512.00	  516.86	-1733.51	  384.85
     37.8700	  534.00	  515.91	-1710.55	  384.60
     37.9700	  543.00	  512.96	-1698.60	  384.35
     38.0700	  517.00	  509.32	-1720.97	  384.10
     38.1700	  506.00	  505.94	-1728.59	  383.85
     38.2700	  471.00	  503.19	-1760.84	  383.61
     38.3700	  525.00	  501.33	-1704.98	  383.36
     38.4700	  522.00	  499.92	-1706.57	  383.12
     38.5700	  493.00	  498.95	-1734.60	  382.88
     38.6700	  454.00	  498.27	-1772.92	  382.64
     38.7700	  517.00	  497.76	-1709.41	  382.40
     38.8700	  492.00	  497.35	-1734.00	  382.17
     38.9700	  477.00	  497.00	-1748.64	  381.93
     39.0700	  517.00	  496.68	-1708.33	  381.70
     39.1700	  481.00	  496.29	-1743.94	  381.47
     39.2700	  504.00	  496.03	-1720.67	  381.24
     39.3700	  483.00	  495.77	-1741.42	  381.02
     39.4700	  539.00	  495.54	-1685.19	  380.79
     39.5700	  513.00	  495.31	-1710.96	  380.57
     39.6700	  507.00	  495.10	-1716.75	  380.35
     39.7700	  436.00	  494.90	-1787.55	  380.13
     39.8700	  521.00	  494.62	-1702.27	  379.91
     39.9700	  466.00	  494.44	-1757.09	  379.70
     40.0700	  478.00	  494.28	-1744.93	  379.48
     40.1700	  493.00	  494.12	-1729.77	  379.27
     40.2700	  461.00	  493.98	-1761.63	  379.06
     40.3700	  494.00	  493.85	-1728.50	  378.85
     40.4700	  487.00	  493.74	-1735.39	  378.65
     40.5700	  495.00	  493.64	-1727.29	  378.44
     40.6700	  509.00	  493.56	-1713.21	  378.24
     40.7700	  509.00	  493.99	-1713.64	  378.04
     40.8700	  479.00	  493.96	-1743.61	  377.84
     40.9700	  489.00	  493.97	-1733.62	  377.64
     41.0700	  464.00	  494.01	-1758.66	  377.45
     41.1700	  488.00	  494.09	-1734.74	  377.25
     41.2700	  478.00	  494.23	-1744.87	  377.06
     41.3700	  485.00	  494.43	-1738.08	  376.87
     41.4700	  499.00	  494.72	-1724.37	  376.69
     41.5700	  509.00	  495.12	-1714.77	  376.50
     41.6700	  467.00	  495.70	-1757.35	  376.32
     41.7700	  491.00	  496.54	-1734.19	  376.14
     41.8700	  525.00	  497.88	-1701.53	  375.96
     41.9700	  469.00	  500.13	-1759.78	  375.78
     42.0700	  476.00	  504.15	-1756.80	  375.60
     42.1700	  514.00	  511.02	-1725.67	  375.43
     42.2700	  531.00	  522.35	-1720.00	  375.26
     42.3700	  509.00	  539.41	-1759.06	  375.09
     42.4700	  541.00	  561.88	-1749.52	  374.92
     42.5700	  555.00	  587.09	-1760.74	  374.75
     42.6700	  591.00	  608.94	-1746.58	  374.59
     42.7700	  625.00	  619.01	-1722.66	  374.42
     42.8700	  594.00	  611.80	-1746.45	  374.26
     42.9700	  588.00	  590.56	-1731.21	  374.10
     43.0700	  509.00	  564.52	-1784.17	  373.95
     43.1700	  535.00	  541.09	-1734.74	  373.79
     43.2700	  532.00	  523.03	-1719.68	  373.64
     43.3700	  474.00	  510.87	-1765.52	  373.49
     43.4700	  501.00	  503.43	-1731.08	  373.34
     43.5700	  475.00	  499.13	-1752.78	  373.19
     43.6700	  478.00	  496.64	-1747.28	  373.05
     43.7700	  530.00	  495.10	-1693.75	  372.90
     43.8700	  497.00	  494.07	-1725.72	  372.76
     43.9700	  508.00	  493.31	-1713.96	  372.62
     44.0700	  522.00	  492.77	-1699.42	  372.49
     44.1700	  493.00	  492.30	-1727.95	  372.35
     44.2700	  507.00	  491.93	-1713.58	  372.22
     44.3700	  506.00	  491.64	-1714.28	  372.09
     44.4700	  495.00	  491.40	-1725.04	  371.96
     44.5700	  523.00	  491.40	-1697.05	  371.83
     44.6700	  463.00	  491.26	-1756.91	  371.70
     44.7700	  463.00	  491.15	-1756.80	  371.58
     44.8700	  501.00	  491.08	-1718.73	  371.46
     44.9700	  489.00	  491.04	-1730.68	  371.34
     45.0700	  550.00	  491.02	-1669.67	  371.22
     45.1700	  529.00	  491.03	-1690.68	  371.10
     45.2700	  505.00	  491.07	-1714.72	  370.99
     45.3700	  518.00	  491.14	-1701.79	  370.88
     45.4700	  477.00	  491.23	-1742.88	  370.77
     45.5700	  497.00	  491.35	-1723.00	  370.66
     45.6700	  509.00	  491.36	-1711.01	  370.55
     45.7700	  506.00	  491.54	-1714.19	  370.45
     45.8700	  495.00	  491.76	-1725.41	  370.34
     45.9700	  445.00	  492.01	-1775.66	  370.24
     46.0700	  484.00	  492.30	-1736.95	  370.15
     46.1700	  495.00	  492.64	-1726.29	  370.05
     46.2700	  470.00	  493.03	-1751.68	  369.95
     46.3700	  502.00	  493.53	-1720.18	  369.86
     46.4700	  505.00	  494.08	-1717.73	  369.77
     46.5700	  425.00	  494.68	-1798.33	  369.68
     46.6700	  491.00	  495.37	-1733.02	  369.59
     46.7700	  533.00	  496.20	-1691.85	  369.51
     46.8700	  503.00	  497.22	-1722.87	  369.42
     46.9700	  506.00	  498.54	-1721.18	  369.34
     47.0700	  461.00	  500.35	-1768.00	  369.26
     47.1700	  533.00	  503.07	-1698.72	  369.19
     47.2700	  517.00	  507.33	-1718.98	  369.11
     47.3700	  470.00	  513.99	-1772.64	  369.04
     47.4700	  509.00	  523.97	-1743.62	  368.96
     47.5700	  506.00	  537.80	-1760.45	  368.89
     47.6700	  565.00	  555.03	-1718.68	  368.82
     47.7700	  590.00	  573.61	-1712.26	  368.76
     47.8700	  611.00	  589.50	-1707.14	  368.69
     47.9700	  590.00	  597.53	-1736.18	  368.63
     48.0700	  581.00	  594.57	-1742.22	  368.57
     48.1700	  545.00	  582.71	-1766.36	  368.51
     48.2700	  553.00	  567.35	-1743.00	  368.45
     48.3700	  549.00	  553.11	-1732.76	  368.40
     48.4700	  569.00	  542.43	-1702.08	  368.34
     48.5700	  509.00	  536.07	-1755.72	  368.29
     48.6700	  485.00	  534.08	-1777.73	  368.24
     48.7700	  530.00	  534.95	-1733.59	  368.19
     48.8700	  541.00	  538.36	-1726.01	  368.15
     48.9700	  499.00	  543.97	-1773.62	  368.10
     49.0700	  514.00	  551.91	-1766.56	  368.06
     49.1700	  540.00	  563.00	-1751.65	  368.02
     49.2700	  580.00	  579.22	-1727.87	  367.98
     49.3700	  562.00	  604.52	-1771.17	  367.94
     49.4700	  608.00	  645.96	-1766.61	  367.91
     49.5700	  645.00	  714.52	-1798.17	  367.87
     49.6700	  757.00	  824.71	-1796.36	  367.84
     49.7700	  900.00	  991.19	-1819.83	  367.81
     49.8700	 1239.00	 1222.38	-1712.02	  367.78
     49.9700	 1527.00	 1511.42	-1713.07	  367.76
     50.0700	 1810.00	 1826.54	-1745.19	  367.73
     50.1700	 2178.00	 2104.56	-1655.21	  367.71
     50.2700	 2398.00	 2258.91	-1589.56	  367.69
     50.3700	 2316.00	 2224.36	-1637.01	  367.67
     50.4700	 2041.00	 2015.20	-1702.85	  367.65
     50.5700	 1682.00	 1714.23	-1760.88	  367.63
     50.6700	 1373.00	 1405.70	-1761.35	  367.62
     50.7700	 1050.00	 1141.61	-1820.26	  367.61
     50.8700	  799.00	  942.86	-1872.51	  367.60
     50.9700	  751.00	  808.56	-1786.20	  367.59
     51.0700	  674.00	  725.37	-1780.02	  367.58
     51.1700	  662.00	  675.69	-1742.34	  367.57
     51.2700	  644.00	  643.86	-1728.51	  367.57
     51.3700	  629.00	  620.01	-1719.66	  367.57
     51.4700	  596.00	  599.48	-1732.13	  367.56
     51.5700	  567.00	  581.85	-1743.50	  367.56
     51.6700	  583.00	  567.33	-1712.98	  367.57
     51.7700	  565.00	  556.07	-1719.72	  367.57
     51.8700	  552.00	  547.86	-1724.51	  367.58
     51.9700	  481.00	  542.27	-1789.92	  367.58
     52.0700	  554.00	  538.76	-1713.41	  367.59
     52.1700	  506.00	  536.88	-1759.53	  367.60
     52.2700	  540.00	  536.35	-1725.00	  367.61
     52.3700	  549.00	  537.11	-1716.76	  367.63
     52.4700	  545.00	  539.43	-1723.08	  367.64
     52.5700	  516.00	  544.00	-1756.64	  367.66
     52.6700	  554.00	  552.29	-1726.94	  367.68
     52.7700	  620.00	  566.91	-1675.56	  367.70
     52.8700	  617.00	  591.83	-1703.47	  367.72
     52.9700	  686.00	  632.14	-1674.79	  367.74
     53.0700	  730.00	  692.96	-1691.61	  367.77
     53.1700	  836.00	  777.22	-1669.87	  367.79
     53.2700	  915.00	  882.74	-1696.39	  367.82
     53.3700	 1005.00	  999.35	-1723.00	  367.85
     53.4700	 1149.00	 1106.68	-1686.33	  367.88
     53.5700	 1172.00	 1175.66	-1732.31	  367.91
     53.6700	 1126.00	 1180.62	-1783.27	  367.94
     53.7700	 1108.00	 1119.08	-1739.73	  367.98
     53.8700	 1022.00	 1014.73	-1721.38	  368.02
     53.9700	  898.00	  897.90	-1728.55	  368.05
     54.0700	  788.00	  790.52	-1731.17	  368.09
     54.1700	  666.00	  703.86	-1766.51	  368.13
     54.2700	  648.00	  640.89	-1721.54	  368.18
     54.3700	  556.00	  599.02	-1771.66	  368.22
     54.4700	  554.00	  573.23	-1747.88	  368.26
     54.5700	  566.00	  558.30	-1720.95	  368.31
     54.6700	  572.00	  550.07	-1706.71	  368.36
     54.7700	  583.00	  545.75	-1691.40	  368.41
     54.8700	  603.00	  543.77	-1669.42	  368.46
     54.9700	  558.00	  543.31	-1713.96	  368.51
     55.0700	  539.00	  543.99	-1733.64	  368.56
     55.1700	  545.00	  545.66	-1729.31	  368.62
     55.2700	  550.00	  548.31	-1726.96	  368.67
     55.3700	  648.00	  552.02	-1632.67	  368.73
     55.4700	  577.00	  556.93	-1708.58	  368.79
     55.5700	  561.00	  563.35	-1731.00	  368.85
     55.6700	  556.00	  571.85	-1744.50	  368.91
     55.7700	  585.00	  583.49	-1727.13	  368.97
     55.8700	  593.00	  600.44	-1736.09	  369.04
     55.9700	  589.00	  626.56	-1766.21	  369.10
     56.0700	  650.00	  668.37	-1747.02	  369.17
     56.1700	  678.00	  735.69	-1786.33	  369.24
     56.2700	  819.00	  841.34	-1750.98	  369.30
     56.3700	  896.00	  998.89	-1831.54	  369.37
     56.4700	 1151.00	 1218.23	-1795.87	  369.45
     56.5700	 1480.00	 1499.22	-1747.87	  369.52
     56.6700	 1811.00	 1824.89	-1742.54	  369.59
     56.7700	 2103.00	 2155.82	-1781.47	  369.67
     56.8700	 2375.00	 2427.42	-1781.07	  369.74
     56.9700	 2497.00	 2562.72	-1794.37	  369.82
     57.0700	 2426.00	 2512.59	-1815.23	  369.90
     57.1700	 2339.00	 2295.98	-1685.63	  369.98
     57.2700	 1976.00	 1984.25	-1736.89	  370.06
     57.3700	 1621.00	 1651.87	-1759.51	  370.14
     57.4700	 1320.00	 1350.12	-1758.77	  370.22
     57.5700	 1094.00	 1105.59	-1740.24	  370.31
     57.6700	  960.00	  925.44	-1694.09	  370.39
     57.7700	  826.00	  803.84	-1706.49	  370.48
     57.8700	  763.00	  728.96	-1694.61	  370.56
     57.9700	  700.00	  688.41	-1717.06	  370.65
     58.0700	  670.00	  672.57	-1731.22	  370.74
     58.1700	  685.00	  675.65	-1719.30	  370.83
     58.2700	  733.00	  695.01	-1690.66	  370.92
     58.3700	  772.00	  729.89	-1686.54	  371.01
     58.4700	  791.00	  779.82	-1717.47	  371.11
     58.5700	  830.00	  843.19	-1741.84	  371.20
     58.6700	  925.00	  915.87	-1719.52	  371.30
     58.7700	 1002.00	  990.76	-1717.40	  371.39
     58.8700	 1088.00	 1059.91	-1700.56	  371.49
     58.9700	 1206.00	 1118.07	-1640.72	  371.59
     59.0700	 1315.00	 1162.34	-1575.99	  371.69
     59.1700	 1399.00	 1188.75	-1518.40	  371.79
     59.2700	 1403.00	 1193.90	-1519.55	  371.89
     59.3700	 1305.00	 1181.21	-1604.86	  371.99
     59.4700	 1298.00	 1161.13	-1591.78	  372.09
     59.5700	 1259.00	 1144.12	-1613.77	  372.20
     59.6700	 1251.00	 1136.92	-1614.57	  372.30
     59.7700	 1157.00	 1145.15	-1716.80	  372.40
     59.8700	 1237.00	 1175.50	-1667.15	  372.51
     59.9700	 1241.00	 1232.27	-1719.92	  372.62
     60.0700	 1348.00	 1311.68	-1692.33	  372.73
     60.1700	 1496.00	 1398.98	-1631.63	  372.83
     60.2700	 1453.00	 1468.95	-1744.59	  372.94
     60.3700	 1450.00	 1492.08	-1770.73	  373.05
     60.4700	 1479.00	 1450.23	-1699.88	  373.16
     60.5700	 1405.00	 1349.70	-1673.34	  373.28
     60.6700	 1263.00	 1215.16	-1680.81	  373.39
     60.7700	 1051.00	 1073.04	-1750.69	  373.50
     60.8700	  935.00	  942.70	-1736.35	  373.61
     60.9700	  835.00	  835.25	-1728.90	  373.73
     61.0700	  732.00	  755.11	-1751.76	  373.84
     61.1700	  668.00	  702.20	-1762.85	  373.96
     61.2700	  703.00	  674.28	-1699.93	  374.08
     61.3700	  666.00	  669.20	-1731.85	  374.19
     61.4700	  679.00	  686.26	-1735.91	  374.31
     61.5700	  712.00	  726.43	-1743.07	  374.43
     61.6700	  769.00	  791.43	-1751.08	  374.55
     61.7700	  900.00	  881.80	-1710.44	  374.67
     61.8700	  880.00	  994.80	-1843.45	  374.79
     61.9700	 1102.00	 1122.34	-1748.99	  374.91
     62.0700	 1189.00	 1249.26	-1788.91	  375.03
     62.1700	 1268.00	 1353.23	-1813.88	  375.15
     62.2700	 1315.00	 1408.31	-1821.96	  375.27
     62.3700	 1366.00	 1396.93	-1759.58	  375.40
     62.4700	 1248.00	 1322.21	-1802.86	  375.52
     62.5700	 1137.00	 1205.63	-1797.28	  375.64
     62.6700	 1013.00	 1072.94	-1788.58	  375.77
     62.7700	  854.00	  944.44	-1819.09	  375.89
     62.8700	  791.00	  832.76	-1770.41	  376.02
     62.9700	  719.00	  743.69	-1753.34	  376.15
     63.0700	  681.00	  677.80	-1725.45	  376.27
     63.1700	  654.00	  632.20	-1706.85	  376.40
     63.2700	  588.00	  602.55	-1743.20	  376.53
     63.3700	  601.00	  584.42	-1712.07	  376.65
     63.4700	  597.00	  574.33	-1705.98	  376.78
     63.5700	  560.00	  570.06	-1738.71	  376.91
     63.6700	  572.00	  570.61	-1727.26	  377.04
     63.7700	  607.00	  576.14	-1697.79	  377.17
     63.8700	  614.00	  587.67	-1702.32	  377.30
     63.9700	  614.00	  606.73	-1721.38	  377.43
     64.0700	  640.00	  634.89	-1723.54	  377.56
     64.1700	  713.00	  673.18	-1688.82	  377.69
     64.2700	  797.00	  721.44	-1653.09	  377.82
     64.3700	  826.00	  777.41	-1680.06	  377.95
     64.4700	  905.00	  836.44	-1660.09	  378.08
     64.5700	  950.00	  891.02	-1669.66	  378.21
     64.6700	  955.00	  931.81	-1705.46	  378.35
     64.7700	  974.00	  950.82	-1705.47	  378.48
     64.8700	  991.00	  945.01	-1682.66	  378.61
     64.9700	  948.00	  917.25	-1697.90	  378.74
     65.0700	  954.00	  873.88	-1648.53	  378.87
     65.1700	  779.00	  824.07	-1773.72	  379.01
     65.2700	  805.00	  774.53	-1698.18	  379.14
     65.3700	  682.00	  729.73	-1776.38	  379.27
     65.4700	  640.00	  691.39	-1780.04	  379.41
     65.5700	  650.00	  659.51	-1738.16	  379.54
     65.6700	  590.00	  633.20	-1771.84	  379.67
     65.7700	  608.00	  611.99	-1732.64	  379.81
     65.8700	  562.00	  595.41	-1762.06	  379.94
     65.9700	  549.00	  582.92	-1762.56	  380.08
     66.0700	  573.00	  573.95	-1729.60	  380.21
     66.1700	  557.00	  568.04	-1739.69	  380.34
     66.2700	  590.00	  564.74	-1703.39	  380.48
     66.3700	  601.00	  563.67	-1691.32	  380.61
     66.4700	  566.00	  564.56	-1727.21	  380.75
     66.5700	  543.00	  567.28	-1752.93	  380.88
     66.6700	  561.00	  571.92	-1739.57	  381.01
     66.7700	  551.00	  579.04	-1756.69	  381.15
     66.8700	  563.00	  589.42	-1755.07	  381.28
     66.9700	  560.00	  605.03	-1773.67	  381.42
     67.0700	  616.00	  628.87	-1741.52	  381.55
     67.1700	  618.00	  665.60	-1776.24	  381.68
     67.2700	  742.00	  721.02	-1707.67	  381.82
     67.3700	  786.00	  802.64	-1745.29	  381.95
     67.4700	  841.00	  917.90	-1805.55	  382.08
     67.5700	 1065.00	 1072.68	-1736.33	  382.22
     67.6700	 1310.00	 1268.73	-1687.38	  382.35
     67.7700	 1556.00	 1500.91	-1673.56	  382.48
     67.8700	 1773.00	 1755.49	-1711.13	  382.62
     67.9700	 2130.00	 2008.06	-1606.71	  382.75
     68.0700	 2213.00	 2223.74	-1739.38	  382.88
     68.1700	 2345.00	 2361.25	-1744.90	  383.02
     68.2700	 2377.00	 2387.07	-1738.71	  383.15
     68.3700	 2274.00	 2294.14	-1748.79	  383.28
     68.4700	 2087.00	 2106.77	-1748.42	  383.41
     68.5700	 1820.00	 1865.24	-1773.89	  383.54
     68.6700	 1660.00	 1608.26	-1676.90	  383.67
     68.7700	 1379.00	 1364.80	-1714.45	  383.81
     68.8700	 1101.00	 1152.93	-1780.58	  383.94
     68.9700	  970.00	  981.18	-1739.83	  384.07
     69.0700	  796.00	  850.12	-1782.77	  384.20
     69.1700	  739.00	  755.73	-1745.38	  384.33
     69.2700	  692.00	  690.73	-1727.38	  384.46
     69.3700	  628.00	  647.55	-1748.20	  384.58
     69.4700	  680.00	  619.49	-1668.14	  384.71
     69.5700	  596.00	  601.34	-1733.99	  384.84
     69.6700	  629.00	  589.49	-1689.14	  384.97
     69.7700	  617.00	  581.53	-1693.18	  385.10
     69.8700	  596.00	  576.04	-1708.69	  385.22
     69.9700	  589.00	  572.25	-1711.90	  385.35
     70.0700	  589.00	  569.71	-1709.36	  385.48
     70.1700	  575.00	  568.21	-1721.86	  385.60
     70.2700	  570.00	  567.66	-1726.31	  385.73
     70.3700	  542.00	  568.06	-1754.71	  385.85
     70.4700	  531.00	  569.54	-1767.19	  385.98
     70.5700	  601.00	  572.38	-1700.03	  386.10
     70.6700	  562.00	  577.09	-1743.74	  386.23
     70.7700	  573.00	  584.58	-1740.23	  386.35
     70.8700	  574.00	  596.35	-1751.00	  386.47
     70.9700	  578.00	  615.56	-1766.21	  386.59
     71.0700	  660.00	  643.56	-1712.20	  386.71
     71.1700	  669.00	  685.29	-1744.94	  386.84
     71.2700	  785.00	  745.38	-1689.02	  386.96
     71.3700	  818.00	  828.38	-1739.03	  387.08
     71.4700	  907.00	  937.57	-1759.22	  387.19
     71.5700	 1057.00	 1073.74	-1745.39	  387.31
     71.6700	 1210.00	 1233.68	-1752.33	  387.43
     71.7700	 1398.00	 1409.05	-1739.70	  387.55
     71.8700	 1566.00	 1585.68	-1748.33	  387.66
     71.9700	 1778.00	 1743.22	-1693.87	  387.78
     72.0700	 1844.00	 1857.05	-1741.70	  387.89
     72.1700	 1888.00	 1904.16	-1744.81	  388.01
     72.2700	 1844.00	 1873.47	-1758.12	  388.12
     72.3700	 1740.00	 1772.32	-1760.96	  388.24
     72.4700	 1591.00	 1622.05	-1759.70	  388.35
     72.5700	 1451.00	 1447.65	-1725.30	  388.46
     72.6700	 1274.00	 1270.55	-1725.20	  388.57
     72.7700	 1080.00	 1106.27	-1754.91	  388.68
     72.8700	 1032.00	  964.17	-1660.81	  388.79
     72.9700	  862.00	  848.42	-1715.07	  388.90
     73.0700	  808.00	  758.96	-1679.61	  389.01
     73.1700	  704.00	  692.94	-1717.59	  389.11
     73.2700	  709.00	  646.07	-1665.72	  389.22
     73.3700	  662.00	  613.27	-1679.92	  389.33
     73.4700	  679.00	  591.36	-1641.01	  389.43
     73.5700	  633.00	  576.54	-1672.19	  389.53
     73.6700	  613.00	  566.41	-1682.05	  389.64
     73.7700	  625.00	  559.34	-1662.99	  389.74
     73.8700	  588.00	  554.31	-1694.96	  389.84
     73.9700	  545.00	  550.71	-1734.36	  389.94
     74.0700	  537.00	  548.16	-1739.81	  390.04
     74.1700	  553.00	  546.42	-1722.07	  390.14
     74.2700	  552.00	  545.31	-1721.96	  390.23
     74.3700	  611.00	  544.67	-1662.31	  390.33
     74.4700	  595.00	  544.32	-1677.97	  390.43
     74.5700	  586.00	  544.07	-1686.71	  390.52
     74.6700	  629.00	  543.71	-1643.36	  390.62
     74.7700	  651.00	  543.07	-1620.71	  390.71
     74.8700	  662.00	  542.06	-1608.71	  390.80
     74.9700	  659.00	  540.77	-1610.42	  390.89
     75.0700	  604.00	  539.37	-1664.01	  390.98
     75.1700	  563.00	  538.10	-1703.75	  391.07
     75.2700	  602.00	  537.26	-1663.91	  391.16
     75.3700	  565.00	  537.15	-1700.80	  391.24
     75.4700	  577.00	  538.11	-1689.76	  391.33
     75.5700	  598.00	  540.56	-1671.20	  391.41
     75.6700	  554.00	  544.92	-1719.57	  391.50
     75.7700	  525.00	  551.63	-1755.28	  391.58
     75.8700	  572.00	  561.19	-1717.84	  391.66
     75.9700	  595.00	  573.82	-1707.47	  391.74
     76.0700	  591.00	  589.52	-1727.17	  391.82
     76.1700	  614.00	  607.91	-1722.56	  391.90
     76.2700	  642.00	  628.05	-1714.69	  391.98
     76.3700	  613.00	  648.70	-1764.35	  392.05
     76.4700	  679.00	  667.83	-1717.48	  392.13
     76.5700	  694.00	  683.00	-1717.65	  392.20
     76.6700	  744.00	  691.68	-1676.33	  392.27
     76.7700	  673.00	  692.24	-1747.89	  392.34
     76.8700	  679.00	  684.48	-1734.13	  392.41
     76.9700	  637.00	  669.89	-1761.54	  392.48
     77.0700	  679.00	  650.88	-1700.53	  392.55
     77.1700	  630.00	  629.92	-1728.57	  392.62
     77.2700	  573.00	  609.05	-1764.70	  392.68
     77.3700	  560.00	  589.76	-1758.41	  392.74
     77.4700	  554.00	  572.97	-1747.62	  392.81
     77.5700	  529.00	  559.11	-1758.76	  392.87
     77.6700	  517.00	  548.20	-1759.85	  392.93
     77.7700	  523.00	  539.78	-1745.43	  392.99
     77.8700	  499.00	  533.82	-1763.46	  393.05
     77.9700	  498.00	  529.62	-1760.27	  393.10
     78.0700	  502.00	  526.75	-1753.40	  393.16
     78.1700	  489.00	  524.81	-1764.46	  393.21
     78.2700	  521.00	  523.50	-1731.15	  393.26
     78.3700	  537.00	  522.63	-1714.28	  393.31
     78.4700	  540.00	  522.04	-1710.69	  393.36
     78.5700	  513.00	  521.66	-1737.31	  393.41
     78.6700	  462.00	  521.43	-1788.08	  393.46
     78.7700	  526.00	  521.34	-1723.98	  393.51
     78.8700	  490.00	  521.37	-1760.02	  393.55
     78.9700	  544.00	  521.55	-1706.19	  393.59
     79.0700	  502.00	  521.88	-1748.53	  393.63
     79.1700	  495.00	  522.41	-1756.06	  393.68
     79.2700	  520.00	  523.17	-1731.82	  393.71
     79.3700	  505.00	  524.21	-1747.86	  393.75
     79.4700	  496.00	  525.56	-1758.21	  393.79
     79.5700	  513.00	  527.28	-1742.92	  393.82
     79.6700	  496.00	  529.41	-1762.06	  393.86
     79.7700	  538.00	  532.03	-1722.68	  393.89
     79.8700	  545.00	  535.21	-1718.86	  393.92
     79.9700	  508.00	  539.04	-1759.69	  393.95
     80.0700	  567.00	  543.64	-1705.29	  393.97
     80.1700	  558.00	  548.97	-1719.61	  394.00
     80.2700	  552.00	  555.60	-1732.25	  394.03
     80.3700	  564.00	  563.60	-1728.25	  394.05
     80.4700	  561.00	  573.24	-1740.89	  394.07
     80.5700	  548.00	  584.71	-1765.36	  394.09
     80.6700	  628.00	  598.04	-1698.69	  394.11
     80.7700	  651.00	  613.02	-1690.66	  394.13
     80.8700	  656.00	  629.13	-1701.77	  394.14
     80.9700	  653.00	  645.55	-1721.20	  394.16
     81.0700	  662.00	  661.24	-1727.89	  394.17
     81.1700	  638.00	  675.10	-1765.75	  394.18
     81.2700	  686.00	  686.19	-1728.84	  394.19
     81.3700	  678.00	  693.83	-1744.48	  394.20
     81.4700	  739.00	  697.59	-1687.24	  394.20
     81.5700	  738.00	  697.30	-1687.95	  394.21
     81.6700	  762.00	  693.07	-1659.71	  394.21
     81.7700	  620.00	  685.20	-1793.85	  394.21
     81.8700	  727.00	  674.15	-1675.80	  394.22
     81.9700	  689.00	  660.56	-1700.20	  394.21
     82.0700	  671.00	  645.29	-1702.94	  394.21
     82.1700	  673.00	  629.37	-1685.02	  394.21
     82.2700	  641.00	  613.70	-1701.35	  394.20
     82.3700	  645.00	  598.98	-1682.63	  394.19
     82.4700	  580.00	  585.65	-1734.30	  394.18
     82.5700	  610.00	  573.95	-1692.60	  394.17
     82.6700	  612.00	  564.03	-1680.68	  394.16
     82.7700	  557.00	  555.93	-1727.58	  394.15
     82.8700	  575.00	  549.68	-1703.33	  394.13
     82.9700	  534.00	  545.23	-1739.88	  394.11
     83.0700	  590.00	  542.51	-1681.16	  394.09
     83.1700	  519.00	  541.44	-1751.09	  394.07
     83.2700	  495.00	  541.86	-1775.51	  394.05
     83.3700	  552.00	  543.76	-1720.41	  394.03
     83.4700	  493.00	  546.91	-1782.56	  394.00
     83.5700	  571.00	  551.06	-1708.71	  393.98
     83.6700	  514.00	  555.96	-1770.61	  393.95
     83.7700	  539.00	  561.20	-1750.84	  393.92
     83.8700	  546.00	  566.27	-1748.92	  393.88
     83.9700	  574.00	  570.63	-1725.28	  393.85
     84.0700	  559.00	  573.68	-1743.32	  393.82
     84.1700	  549.00	  574.91	-1754.55	  393.78
     84.2700	  551.00	  574.08	-1751.73	  393.74
     84.3700	  559.00	  571.27	-1740.92	  393.70
     84.4700	  567.00	  566.87	-1728.51	  393.66
     84.5700	  570.00	  561.39	-1720.04	  393.61
     84.6700	  568.00	  555.39	-1716.04	  393.57
     84.7700	  508.00	  549.34	-1769.99	  393.52
     84.8700	  530.00	  543.59	-1742.24	  393.47
     84.9700	  562.00	  538.40	-1705.05	  393.42
     85.0700	  475.00	  533.93	-1787.58	  393.37
     85.1700	  507.00	  530.24	-1751.89	  393.31
     85.2700	  500.00	  527.32	-1755.97	  393.26
     85.3700	  508.00	  525.10	-1745.75	  393.20
     85.4700	  532.00	  523.51	-1720.16	  393.14
     85.5700	  556.00	  522.45	-1695.09	  393.08
     85.6700	  521.00	  521.83	-1729.48	  393.02
     85.7700	  544.00	  521.60	-1706.25	  392.95
     85.8700	  525.00	  521.74	-1725.39	  392.89
     85.9700	  496.00	  522.25	-1754.90	  392.82
     86.0700	  502.00	  523.18	-1749.83	  392.75
     86.1700	  499.00	  524.64	-1754.29	  392.68
     86.2700	  521.00	  526.74	-1734.39	  392.61
     86.3700	  488.00	  529.63	-1770.28	  392.53
     86.4700	  549.00	  533.50	-1713.15	  392.46
     86.5700	  555.00	  538.49	-1712.13	  392.38
     86.6700	  555.00	  544.72	-1718.37	  392.30
     86.7700	  587.00	  552.27	-1693.92	  392.22
     86.8700	  577.00	  561.08	-1712.73	  392.13
     86.9700	  543.00	  570.98	-1756.63	  392.05
     87.0700	  618.00	  581.65	-1692.30	  391.96
     87.1700	  603.00	  592.59	-1718.24	  391.87
     87.2700	  619.00	  603.16	-1712.81	  391.78
     87.3700	  599.00	  612.56	-1742.21	  391.69
     87.4700	  639.00	  619.90	-1709.55	  391.60
     87.5700	  608.00	  624.36	-1745.01	  391.50
     87.6700	  620.00	  625.41	-1734.06	  391.40
     87.7700	  678.00	  622.98	-1673.62	  391.31
     87.8700	  591.00	  617.49	-1755.13	  391.20
     87.9700	  605.00	  609.36	-1733.01	  391.10
     88.0700	  686.00	  600.31	-1642.96	  391.00
     88.1700	  581.00	  590.86	-1738.51	  390.89
     88.2700	  576.00	  581.84	-1734.49	  390.78
     88.3700	  568.00	  573.90	-1734.55	  390.68
     88.4700	  534.00	  567.56	-1762.21	  390.56
     88.5700	  600.00	  563.13	-1691.78	  390.45
     88.6700	  584.00	  560.77	-1705.41	  390.34
     88.7700	  609.00	  560.44	-1680.09	  390.22
     88.8700	  561.00	  561.99	-1729.64	  390.10
     88.9700	  555.00	  565.09	-1738.74	  389.98
     89.0700	  600.00	  569.34	-1697.99	  389.86
     89.1700	  590.00	  574.22	-1712.87	  389.74
     89.2700	  599.00	  579.14	-1708.79	  389.61
     89.3700	  579.00	  583.47	-1733.12	  389.49
     89.4700	  603.00	  586.58	-1712.23	  389.36
     89.5700	  589.00	  587.97	-1727.62	  389.23
     89.6700	  563.00	  587.33	-1752.98	  389.10
     89.7700	  570.00	  584.68	-1743.33	  388.96
     89.8700	  541.00	  580.30	-1767.95	  388.83
     89.9700	  571.00	  574.65	-1732.30	  388.69
     90.0700	  535.00	  568.24	-1761.89	  388.55
     90.1700	  540.00	  561.53	-1750.18	  388.41
     90.2700	  536.00	  554.94	-1747.58	  388.27
     90.3700	  508.00	  548.76	-1769.40	  388.13
     90.4700	  532.00	  543.22	-1739.86	  387.98
     90.5700	  549.00	  538.44	-1718.09	  387.83
     90.6700	  523.00	  534.49	-1740.14	  387.69
     90.7700	  442.00	  531.36	-1818.01	  387.54
     90.8700	  511.00	  529.00	-1746.65	  387.38
     90.9700	  552.00	  527.33	-1703.98	  387.23
     91.0700	  524.00	  526.28	-1730.93	  387.07
     91.1700	  493.00	  525.77	-1761.42	  386.92
     91.2700	  485.00	  525.75	-1769.40	  386.76
     91.3700	  514.00	  526.21	-1740.85	  386.60
     91.4700	  514.00	  527.15	-1741.80	  386.44
     91.5700	  480.00	  528.64	-1777.29	  386.27
     91.6700	  504.00	  530.77	-1755.42	  386.11
     91.7700	  561.00	  533.67	-1701.32	  385.94
     91.8700	  520.00	  537.52	-1746.17	  385.77
     91.9700	  525.00	  542.49	-1746.14	  385.60
     92.0700	  545.00	  548.80	-1732.45	  385.43
     92.1700	  550.00	  556.62	-1735.26	  385.26
     92.2700	  565.00	  566.11	-1729.75	  385.08
     92.3700	  594.00	  577.37	-1712.02	  384.91
     92.4700	  564.00	  590.43	-1755.08	  384.73
     92.5700	  559.00	  605.20	-1774.85	  384.55
     92.6700	  611.00	  621.49	-1739.14	  384.37
     92.7700	  615.00	  638.97	-1752.62	  384.19
     92.8700	  616.00	  657.17	-1769.82	  384.00
     92.9700	  700.00	  675.49	-1704.14	  383.82
     93.0700	  650.00	  693.22	-1771.86	  383.63
     93.1700	  686.00	  709.38	-1752.03	  383.44
     93.2700	  736.00	  723.93	-1716.58	  383.25
     93.3700	  721.00	  736.35	-1744.00	  383.06
     93.4700	  774.00	  746.71	-1701.36	  382.86
     93.5700	  730.00	  755.45	-1754.10	  382.67
     93.6700	  812.00	  763.12	-1679.77	  382.47
     93.7700	  777.00	  770.25	-1721.89	  382.27
     93.8700	  805.00	  777.28	-1700.93	  382.08
     93.9700	  811.00	  784.58	-1702.23	  381.87
     94.0700	  848.00	  792.53	-1673.18	  381.67
     94.1700	  845.00	  801.52	-1685.17	  381.47
     94.2700	  831.00	  811.90	-1709.55	  381.26
     94.3700	  859.00	  823.85	-1693.50	  381.06
     94.4700	  877.00	  837.22	-1688.87	  380.85
     94.5700	  904.00	  851.47	-1676.11	  380.64
     94.6700	  868.00	  865.60	-1726.25	  380.43
     94.7700	  913.00	  878.26	-1693.91	  380.22
     94.8700	  889.00	  887.83	-1727.48	  380.00
     94.9700	  899.00	  892.68	-1722.33	  379.79
     95.0700	  911.00	  891.47	-1709.11	  379.57
     95.1700	  931.00	  883.56	-1681.21	  379.35
     95.2700	  838.00	  869.20	-1759.84	  379.13
     95.3700	  826.00	  849.44	-1752.09	  378.91
     95.4700	  828.00	  825.91	-1726.56	  378.69
     95.5700	  815.00	  800.44	-1714.09	  378.47
     95.6700	  729.00	  774.90	-1774.54	  378.24
     95.7700	  720.00	  751.03	-1759.68	  378.02
     95.8700	  716.00	  730.43	-1743.08	  377.79
     95.9700	  721.00	  714.56	-1722.21	  377.56
     96.0700	  718.00	  704.67	-1715.32	  377.33
     96.1700	  655.00	  701.90	-1775.55	  377.10
     96.2700	  705.00	  707.17	-1730.82	  376.87
     96.3700	  707.00	  721.25	-1742.90	  376.64
     96.4700	  720.00	  744.67	-1753.32	  376.40
     96.5700	  740.00	  777.70	-1766.35	  376.17
     96.6700	  820.00	  820.30	-1728.95	  375.93
     96.7700	  848.00	  872.01	-1752.66	  375.69
     96.8700	  908.00	  931.94	-1752.58	  375.45
     96.9700	 1052.00	  998.61	-1675.26	  375.21
     97.0700	 1037.00	 1069.99	-1761.64	  374.97
     97.1700	 1074.00	 1143.43	-1798.08	  374.73
     97.2700	 1178.00	 1215.68	-1766.33	  374.49
     97.3700	 1308.00	 1282.98	-1703.63	  374.24
     97.4700	 1294.00	 1341.17	-1775.81	  374.00
     97.5700	 1404.00	 1386.09	-1710.74	  373.75
     97.6700	 1386.00	 1414.20	-1756.85	  373.50
     97.7700	 1359.00	 1423.25	-1792.90	  373.25
     97.8700	 1417.00	 1412.79	-1724.44	  373.00
     97.9700	 1433.00	 1384.32	-1679.97	  372.75
     98.0700	 1282.00	 1340.78	-1787.43	  372.50
     98.1700	 1196.00	 1285.97	-1818.62	  372.25
     98.2700	 1183.00	 1223.92	-1769.57	  372.00
     98.3700	 1183.00	 1158.52	-1704.17	  371.74
     98.4700	 1097.00	 1093.30	-1724.95	  371.49
     98.5700	 1045.00	 1031.37	-1715.02	  371.23
     98.6700	 1009.00	  975.35	-1695.00	  370.97
     98.7700	  913.00	  927.39	-1743.04	  370.71
     98.8700	  879.00	  889.21	-1738.85	  370.45
     98.9700	  828.00	  862.16	-1762.81	  370.19
     99.0700	  767.00	  847.27	-1808.92	  369.93
     99.1700	  906.00	  845.25	-1667.90	  369.67
     99.2700	  891.00	  856.54	-1694.19	  369.41
     99.3700	  863.00	  881.33	-1746.98	  369.15
     99.4700	  919.00	  919.68	-1729.33	  368.88
     99.5700	  966.00	  971.29	-1733.93	  368.62
     99.6700	 1011.00	 1035.58	-1753.23	  368.35
     99.7700	 1139.00	 1111.61	-1701.26	  368.09
     99.8700	 1149.00	 1198.02	-1777.67	  367.82
     99.9700	 1302.00	 1292.87	-1719.52	  367.55
    100.0700	 1326.00	 1393.68	-1796.33	  367.29
    100.1700	 1496.00	 1497.33	-1729.98	  367.02
    100.2700	 1560.00	 1600.12	-1768.77	  366.75
    100.3700	 1646.00	 1698.01	-1780.66	  366.48
    100.4700	 1809.00	 1786.93	-1706.57	  366.21
    100.5700	 1904.00	 1863.29	-1687.94	  365.94
    100.6700	 1944.00	 1924.29	-1708.94	  365.67
    100.7700	 1988.00	 1968.01	-1708.66	  365.39
    100.8700	 2006.00	 1993.22	-1715.86	  365.12
    100.9700	 2027.00	 1999.18	-1700.83	  364.85
    101.0700	 2051.00	 1985.63	-1663.28	  364.58
    101.1700	 1934.00	 1952.98	-1747.63	  364.30
    101.2700	 1907.00	 1902.73	-1724.37	  364.03
    101.3700	 1893.00	 1837.60	-1673.24	  363.75
    101.4700	 1753.00	 1761.49	-1737.14	  363.48
    101.5700	 1658.00	 1678.91	-1749.56	  363.20
    101.6700	 1625.00	 1594.40	-1698.05	  362.93
    101.7700	 1514.00	 1512.07	-1726.72	  362.65
    101.8700	 1421.00	 1435.24	-1742.89	  362.38
    101.9700	 1426.00	 1366.33	-1668.97	  362.10
    102.0700	 1289.00	 1306.75	-1746.39	  361.82
    102.1700	 1246.00	 1257.02	-1739.67	  361.55
    102.2700	 1207.00	 1216.84	-1738.49	  361.27
    102.3700	 1204.00	 1185.07	-1709.71	  360.99
    102.4700	 1211.00	 1159.96	-1677.61	  360.72
    102.5700	 1124.00	 1139.27	-1743.92	  360.44
    102.6700	 1064.00	 1120.53	-1785.18	  360.16
    102.7700	 1071.00	 1101.31	-1758.96	  359.89
    102.8700	 1046.00	 1079.60	-1762.25	  359.61
    102.9700	 1057.00	 1054.05	-1725.70	  359.33
    103.0700	  993.00	 1024.11	-1759.76	  359.05
    103.1700	 1016.00	  989.99	-1702.64	  358.78
    103.2700	  930.00	  952.47	-1751.12	  358.50
    103.3700	  931.00	  912.61	-1710.26	  358.22
    103.4700	  828.00	  871.61	-1772.26	  357.94
    103.5700	  838.00	  830.64	-1721.29	  357.67
    103.6700	  790.00	  790.74	-1729.38	  357.39
    103.7700	  793.00	  752.79	-1688.44	  357.11
    103.8700	  747.00	  717.53	-1699.18	  356.84
    103.9700	  707.00	  685.46	-1707.11	  356.56
    104.0700	  712.00	  656.91	-1673.56	  356.29
    104.1700	  672.00	  632.01	-1688.66	  356.01
    104.2700	  650.00	  610.72	-1689.37	  355.74
    104.3700	  598.00	  592.89	-1723.54	  355.46
    104.4700	  571.00	  578.26	-1735.91	  355.19
    104.5700	  586.00	  566.50	-1709.15	  354.91
    104.6700	  545.00	  557.27	-1740.92	  354.64
    104.7700	  562.00	  550.19	-1716.84	  354.37
    104.8700	  569.00	  544.94	-1704.59	  354.09
    104.9700	  549.00	  541.21	-1720.86	  353.82
    105.0700	  576.00	  538.72	-1691.37	  353.55
    105.1700	  493.00	  537.26	-1772.91	  353.28
    105.2700	  496.00	  536.65	-1769.30	  353.01
    105.3700	  501.00	  536.75	-1764.40	  352.74
    105.4700	  574.00	  537.47	-1692.12	  352.47
    105.5700	  521.00	  538.75	-1746.40	  352.20
    105.6700	  515.00	  540.58	-1754.23	  351.93
    105.7700	  526.00	  542.97	-1745.62	  351.67
    105.8700	  522.00	  545.95	-1752.60	  351.40
    105.9700	  573.00	  549.58	-1705.23	  351.13
    106.0700	  572.00	  553.92	-1710.57	  350.87
    106.1700	  591.00	  559.07	-1696.72	  350.61
    106.2700	  598.00	  565.05	-1695.70	  350.34
    106.3700	  535.00	  571.88	-1765.53	  350.08
    106.4700	  588.00	  579.53	-1720.18	  349.82
    106.5700	  602.00	  587.94	-1714.58	  349.56
    106.6700	  573.00	  596.96	-1752.61	  349.30
    106.7700	  601.00	  606.43	-1734.08	  349.04
    106.8700	  634.00	  616.12	-1710.77	  348.79
    106.9700	  611.00	  625.74	-1743.39	  348.53
    107.0700	  645.00	  634.99	-1718.63	  348.28
    107.1700	  625.00	  643.54	-1747.18	  348.03
    107.2700	  657.00	  651.07	-1722.72	  347.77
    107.3700	  709.00	  657.32	-1676.97	  347.52
    107.4700	  663.00	  662.11	-1727.76	  347.27
    107.5700	  658.00	  665.41	-1736.05	  347.03
    107.6700	  668.00	  667.33	-1727.98	  346.78
    107.7700	  632.00	  668.14	-1764.78	  346.53
    107.8700	  719.00	  668.17	-1677.82	  346.29
    107.9700	  684.00	  667.81	-1712.46	  346.05
    108.0700	  681.00	  667.43	-1715.08	  345.81
    108.1700	  692.00	  667.34	-1703.98	  345.57
    108.2700	  699.00	  667.75	-1697.40	  345.33
    108.3700	  717.00	  668.79	-1680.44	  345.10
    108.4700	  640.00	  670.49	-1759.14	  344.86
    108.5700	  672.00	  672.76	-1729.40	  344.63
    108.6700	  666.00	  675.40	-1738.04	  344.40
    108.7700	  698.00	  678.13	-1708.78	  344.17
    108.8700	  734.00	  680.59	-1675.24	  343.94
    108.9700	  632.00	  682.37	-1779.02	  343.72
    109.0700	  696.00	  683.04	-1715.69	  343.49
    109.1700	  693.00	  682.25	-1717.90	  343.27
    109.2700	  719.00	  679.71	-1689.36	  343.05
    109.3700	  665.00	  675.31	-1738.96	  342.83
    109.4700	  690.00	  669.08	-1707.73	  342.62
    109.5700	  651.00	  661.20	-1738.84	  342.40
    109.6700	  618.00	  651.95	-1762.60	  342.19
    109.7700	  634.00	  641.68	-1736.32	  341.98
    109.8700	  639.00	  630.74	-1720.39	  341.78
    109.9700	  622.00	  619.51	-1726.15	  341.57
    110.0700	  645.00	  608.30	-1691.95	  341.37
    110.1700	  632.00	  597.41	-1694.06	  341.17
    110.2700	  592.00	  587.07	-1723.72	  340.97
    110.3700	  583.00	  577.49	-1723.14	  340.77
    110.4700	  604.00	  568.81	-1693.46	  340.58
    110.5700	  575.00	  561.13	-1714.77	  340.39
    110.6700	  580.00	  554.49	-1703.14	  340.20
    110.7700	  531.00	  548.91	-1746.56	  340.02
    110.8700	  595.00	  544.38	-1678.02	  339.83
    110.9700	  571.00	  540.82	-1698.47	  339.65
    111.0700	  535.00	  538.19	-1731.84	  339.47
    111.1700	  551.00	  536.39	-1714.04	  339.30
    111.2700	  561.00	  535.33	-1702.98	  339.13
    111.3700	  532.00	  534.94	-1731.58	  338.96
    111.4700	  524.00	  535.11	-1739.76	  338.79
    111.5700	  566.00	  535.77	-1698.42	  338.63
    111.6700	  520.00	  536.86	-1745.51	  338.47
    111.7700	  519.00	  538.31	-1747.96	  338.31
    111.8700	  526.00	  540.07	-1742.72	  338.15
    111.9700	  545.00	  542.10	-1725.75	  338.00
    112.0700	  544.00	  544.38	-1729.03	  337.85
    112.1700	  528.00	  546.89	-1747.54	  337.71
    112.2700	  561.00	  549.63	-1717.27	  337.57
    112.3700	  525.00	  552.59	-1756.24	  337.43
    112.4700	  551.00	  555.81	-1733.45	  337.29
    112.5700	  549.00	  559.30	-1738.95	  337.16
    112.6700	  551.00	  563.10	-1740.75	  337.03
    112.7700	  597.00	  567.27	-1698.92	  336.90
    112.8700	  572.00	  571.88	-1728.53	  336.78
    112.9700	  559.00	  577.00	-1746.65	  336.66
    113.0700	  574.00	  582.74	-1737.39	  336.55
    113.1700	  565.00	  589.25	-1752.89	  336.44
    113.2700	  575.00	  596.69	-1750.34	  336.33
    113.3700	  606.00	  605.30	-1727.95	  336.23
    113.4700	  609.00	  615.38	-1735.03	  336.13
    113.5700	  597.00	  627.28	-1758.93	  336.03
    113.6700	  710.00	  641.48	-1660.13	  335.94
    113.7700	  659.00	  658.56	-1728.21	  335.85
    113.8700	  725.00	  679.23	-1682.88	  335.76
    113.9700	  689.00	  704.38	-1744.03	  335.68
    114.0700	  731.00	  735.04	-1732.69	  335.61
    114.1700	  811.00	  772.46	-1690.11	  335.53
    114.2700	  851.00	  818.07	-1695.71	  335.47
    114.3700	  858.00	  873.51	-1744.16	  335.40
    114.4700	  981.00	  940.63	-1688.28	  335.34
    114.5700	 1018.00	 1021.41	-1732.06	  335.29
    114.6700	 1139.00	 1117.95	-1707.60	  335.24
    114.7700	 1313.00	 1232.50	-1648.15	  335.19
    114.8700	 1433.00	 1367.25	-1662.90	  335.15
    114.9700	 1631.00	 1524.27	-1621.92	  335.11
    115.0700	 1785.00	 1705.44	-1649.09	  335.08
    115.1700	 2022.00	 1912.22	-1618.87	  335.05
    115.2700	 2306.00	 2145.68	-1568.33	  335.02
    115.3700	 2421.00	 2406.24	-1713.89	  335.01
    115.4700	 2783.00	 2693.49	-1639.14	  334.99
    115.5700	 3011.00	 3006.15	-1723.80	  334.98
    115.6700	 3349.00	 3341.89	-1721.54	  334.98
    115.7700	 3548.00	 3697.39	-1878.03	  334.98
    115.8700	 4119.00	 4068.20	-1677.85	  334.98
    115.9700	 4436.00	 4448.62	-1741.27	  334.99
    116.0700	 4695.00	 4831.84	-1865.49	  335.01
    116.1700	 5042.00	 5209.91	-1896.56	  335.03
    116.2700	 5585.00	 5573.98	-1717.63	  335.06
    116.3700	 5837.00	 5914.39	-1806.03	  335.09
    116.4700	 6218.00	 6220.77	-1731.42	  335.12
    116.5700	 6447.00	 6482.75	-1764.39	  335.17
    116.6700	 6669.00	 6690.43	-1750.07	  335.21
    116.7700	 6815.00	 6835.33	-1748.98	  335.27
    116.8700	 6888.00	 6911.17	-1751.82	  335.33
    116.9700	 6858.00	 6914.59	-1785.24	  335.39
    117.0700	 6910.00	 6845.70	-1664.35	  335.46
    117.1700	 6552.00	 6708.02	-1884.67	  335.54
    117.2700	 6483.00	 6508.01	-1753.66	  335.62
    117.3700	 6206.00	 6254.19	-1776.84	  335.71
    117.4700	 5879.00	 5956.44	-1806.09	  335.80
    117.5700	 5590.00	 5625.08	-1763.73	  335.90
    117.6700	 5284.00	 5270.32	-1714.97	  336.00
    117.7700	 4741.00	 4901.67	-1889.32	  336.11
    117.8700	 4524.00	 4527.76	-1732.41	  336.23
    117.9700	 4240.00	 4156.34	-1644.98	  336.36
    118.0700	 3939.00	 3793.94	-1583.59	  336.49
    118.1700	 3454.00	 3446.03	-1720.68	  336.62
    118.2700	 3204.00	 3116.82	-1641.47	  336.76
    118.3700	 2970.00	 2809.40	-1568.05	  336.91
    118.4700	 2667.00	 2525.95	-1587.60	  337.07
    118.5700	 2190.00	 2267.65	-1806.30	  337.23
    118.6700	 2096.00	 2034.89	-1667.53	  337.40
    118.7700	 1816.00	 1827.28	-1739.93	  337.58
    118.8700	 1644.00	 1643.89	-1728.54	  337.76
    118.9700	 1422.00	 1483.39	-1790.04	  337.95
    119.0700	 1269.00	 1344.12	-1803.76	  338.14
    119.1700	 1246.00	 1224.20	-1706.84	  338.35
    119.2700	 1076.00	 1121.63	-1774.27	  338.56
    119.3700	 1054.00	 1034.40	-1709.05	  338.78
    119.4700	  965.00	  960.59	-1724.24	  339.00
    119.5700	  868.00	  898.37	-1759.02	  339.23
    119.6700	  881.00	  846.09	-1693.73	  339.47
    119.7700	  839.00	  802.21	-1691.85	  339.72
    119.8700	  812.00	  765.40	-1682.05	  339.97
    119.9700	  728.00	  734.54	-1735.19	  340.23
    120.0700	  676.00	  708.63	-1761.28	  340.50
    120.1700	  625.00	  686.86	-1790.50	  340.78
    120.2700	  684.00	  668.53	-1713.17	  341.06
    120.3700	  646.00	  653.07	-1735.72	  341.35
    120.4700	  645.00	  640.03	-1723.68	  341.65
    120.5700	  602.00	  629.03	-1755.68	  341.96
    120.6700	  604.00	  619.78	-1744.42	  342.28
    120.7700	  589.00	  612.01	-1751.66	  342.60
    120.8700	  608.00	  605.55	-1726.19	  342.93
    120.9700	  580.00	  600.22	-1748.87	  343.27
    121.0700	  523.00	  595.92	-1801.57	  343.62
    121.1700	  566.00	  592.53	-1755.18	  343.98
    121.2700	  557.00	  589.98	-1761.63	  344.34
    121.3700	  595.00	  588.20	-1721.84	  344.71
    121.4700	  571.00	  587.12	-1744.76	  345.10
    121.5700	  542.00	  586.69	-1773.34	  345.49
    121.6700	  582.00	  586.86	-1733.51	  345.88
    121.7700	  611.00	  587.58	-1705.23	  346.29
    121.8700	  596.00	  588.80	-1721.45	  346.71
    121.9700	  550.00	  590.46	-1769.11	  347.13
    122.0700	  580.00	  592.50	-1741.15	  347.57
    122.1700	  558.00	  594.86	-1765.51	  348.01
    122.2700	  567.00	  597.45	-1759.10	  348.46
    122.3700	  606.00	  600.21	-1722.86	  348.93
    122.4700	  609.00	  603.04	-1722.69	  349.40
    122.5700	  609.00	  605.87	-1725.52	  349.88
    122.6700	  668.00	  608.59	-1669.23	  350.37
    122.7700	  625.00	  611.11	-1714.76	  350.87
    122.8700	  603.00	  613.34	-1738.99	  351.37
    122.9700	  619.00	  615.21	-1724.86	  351.89
    123.0700	  588.00	  616.64	-1757.29	  352.42
    123.1700	  643.00	  617.56	-1703.21	  352.96
    123.2700	  624.00	  617.99	-1722.64	  353.50
    123.3700	  611.00	  617.90	-1735.55	  354.06
    123.4700	  687.00	  617.29	-1658.94	  354.63
    123.5700	  609.00	  616.21	-1735.86	  355.21
    123.6700	  653.00	  614.70	-1690.35	  355.79
    123.7700	  620.00	  612.81	-1721.46	  356.39
    123.8700	  604.00	  610.61	-1735.25	  357.00
    123.9700	  578.00	  608.14	-1758.79	  357.62
    124.0700	  599.00	  605.49	-1735.14	  358.25
    124.1700	  597.00	  602.69	-1734.34	  358.89
    124.2700	  607.00	  599.83	-1721.48	  359.54
    124.3700	  624.00	  596.95	-1701.60	  360.20
    124.4700	  556.00	  594.10	-1766.75	  360.87
    124.5700	  618.00	  591.32	-1701.97	  361.55
    124.6700	  609.00	  588.64	-1708.29	  362.24
    124.7700	  617.00	  586.10	-1697.75	  362.95
    124.8700	  580.00	  583.71	-1732.36	  363.66
    124.9700	  569.00	  476.05	-1635.70	  364.39
    125.0700	  556.00	  476.79	-1728.65	  365.13
    125.1700	  590.00	  477.54	-1728.65	  365.88
    125.2700	  608.00	  478.30	-1728.65	  366.64
    125.3700	  580.00	  479.07	-1728.65	  367.41
    125.4700	  540.00	  479.85	-1728.65	  368.19
    125.5700	  575.00	  480.65	-1728.65	  368.99
    125.6700	  615.00	  481.46	-1728.65	  369.80
    125.7700	  586.00	  482.27	-1728.65	  370.62
    125.8700	  536.00	  483.11	-1728.65	  371.45
    125.9700	  604.00	  483.95	-1728.65	  372.29
    126.0700	  551.00	  484.80	-1728.65	  373.14
    126.1700	  540.00	  485.67	-1728.65	  374.01
    126.2700	  571.00	  486.55	-1728.65	  374.89
    126.3700	  564.00	  487.44	-1728.65	  375.78
    126.4700	  581.00	  488.35	-1728.65	  376.69
    126.5700	  589.00	  489.26	-1728.65	  377.60
    126.6700	  564.00	  490.19	-1728.65	  378.53
    126.7700	  578.00	  491.13	-1728.65	  379.47
    126.8700	  552.00	  492.09	-1728.65	  380.43
    126.9700	  607.00	  493.06	-1728.65	  381.40
    127.0700	  565.00	  494.04	-1728.65	  382.38
    127.1700	  579.00	  495.03	-1728.65	  383.37
    127.2700	  576.00	  496.04	-1728.65	  384.38
    127.3700	  635.00	  497.06	-1728.65	  385.40
    127.4700	  687.00	  498.09	-1728.65	  386.43
    127.5700	  658.00	  499.14	-1728.65	  387.48
    127.6700	  634.00	  500.20	-1728.65	  388.54
    127.7700	  605.00	  501.27	-1728.65	  389.61
    127.8700	  663.00	  502.36	-1728.65	  390.70
    127.9700	  671.00	  503.46	-1728.65	  391.80
    128.0700	  709.00	  504.58	-1728.65	  392.92
    128.1700	  656.00	  505.71	-1728.65	  394.05
    128.2700	  747.00	  506.85	-1728.65	  395.19
    128.3700	  735.00	  508.01	-1728.65	  396.35
    128.4700	  736.00	  509.18	-1728.65	  397.52
    128.5700	    0.00	  510.36	-1728.65	  398.70
    128.6700	    0.00	  511.56	-1728.65	  399.90
     12.3288	        	        	        	        	       0	(  0  0  2)	  0  1
     24.9293	        	        	        	        	       0	(  0  0  4)	  0  1
     28.3775	        	        	        	        	       0	(  1  0  0)	  0  1
     29.0757	        	        	        	        	       0	(  1  0  1)	  0  1
     31.0847	        	        	        	        	       0	(  1  0  2)	  0  1
     34.1974	        	        	        	        	       0	(  1  0  3)	  0  1
     37.8471	        	        	        	        	       0	(  0  0  6)	  0  1
     38.1802	        	        	        	        	       0	(  1  0  4)	  0  1
     42.8373	        	        	        	        	       0	(  1  0  5)	  0  1
     48.0293	        	        	        	        	       0	(  1  0  6)	  0  1
     50.3490	        	        	        	        	       0	(  1  1  0)	  0  1
     51.2895	        	        	        	        	       0	(  0  0  8)	  0  1
     52.0748	        	        	        	        	       0	(  1  1  2)	  0  1
     53.6688	        	        	        	        	       0	(  1  0  7)	  0  1
     57.0308	        	        	        	        	       0	(  1  1  4)	  0  1
     58.8610	        	        	        	        	       0	(  2  0  0)	  0  1
     59.2532	        	        	        	        	       0	(  2  0  1)	  0  1
     59.7094	        	        	        	        	       0	(  1  0  8)	  0  1
     60.4206	        	        	        	        	       0	(  2  0  2)	  0  1
     62.3372	        	        	        	        	       0	(  2  0  3)	  0  1
     64.7391	        	        	        	        	       0	(  1  1  6)	  0  1
     64.9661	        	        	        	        	       0	(  2  0  4)	  0  1
     65.5432	        	        	        	        	       0	(  0  0 10)	  0  1
     66.1373	        	        	        	        	       0	(  1  0  9)	  0  1
     68.2665	        	        	        	        	       0	(  2  0  5)	  0  1
     72.2017	        	        	        	        	       0	(  2  0  6)	  0  1
     72.9666	        	        	        	        	       0	(  1  0 10)	  0  1
     74.7963	        	        	        	        	       0	(  1  1  8)	  0  1
     76.7452	        	        	        	        	       0	(  2  0  7)	  0  1
     80.2397	        	        	        	        	       0	(  1  0 11)	  0  1
     81.0551	        	        	        	        	       0	(  0  0 12)	  0  1
     81.1487	        	        	        	        	       0	(  2  1  0)	  0  1
     81.4893	        	        	        	        	       0	(  2  1  1)	  0  1
     81.8869	        	        	        	        	       0	(  2  0  8)	  0  1
     82.5096	        	        	        	        	       0	(  2  1  2)	  0  1
     84.2049	        	        	        	        	       0	(  2  1  3)	  0  1
     86.5703	        	        	        	        	       0	(  2  1  4)	  0  1
     87.0956	        	        	        	        	       0	(  1  1 10)	  0  1
     87.6387	        	        	        	        	       0	(  2  0  9)	  0  1
     88.0324	        	        	        	        	       0	(  1  0 12)	  0  1
     89.6038	        	        	        	        	       0	(  2  1  5)	  0  1
     93.3113	        	        	        	        	       0	(  2  1  6)	  0  1
     94.0432	        	        	        	        	       0	(  2  0 10)	  0  1
     95.0752	        	        	        	        	       0	(  3  0  0)	  0  1
     95.4135	        	        	        	        	       0	(  3  0  1)	  0  1
     96.4298	        	        	        	        	       0	(  3  0  2)	  0  1
     96.4687	        	        	        	        	       0	(  1  0 13)	  0  1
     97.7128	        	        	        	        	       0	(  2  1  7)	  0  1
     98.1283	        	        	        	        	       0	(  3  0  3)	  0  1
     98.6405	        	        	        	        	       0	(  0  0 14)	  0  1
    100.5188	        	        	        	        	       0	(  3  0  4)	  0  1
    101.1868	        	        	        	        	       0	(  2  0 11)	  0  1
    102.0088	        	        	        	        	       0	(  1  1 12)	  0  1
    102.8518	        	        	        	        	       0	(  2  1  8)	  0  1
    103.6209	        	        	        	        	       0	(  3  0  5)	  0  1
    105.7515	        	        	        	        	       0	(  1  0 14)	  0  1
    107.4700	        	        	        	        	       0	(  3  0  6)	  0  1
    108.8104	        	        	        	        	       0	(  2  1  9)	  0  1
    109.2268	        	        	        	        	       0	(  2  0 12)	  0  1
    112.1291	        	        	        	        	       0	(  3  0  7)	  0  1
    115.7370	        	        	        	        	       0	(  2  1 10)	  0  1
    116.2382	        	        	        	        	       0	(  1  0 15)	  0  1
    116.8856	        	        	        	        	       0	(  2  2  0)	  0  1
    117.7083	        	        	        	        	       0	(  3  0  8)	  0  1
    118.4084	        	        	        	        	       0	(  2  2  2)	  0  1
    118.4524	        	        	        	        	       0	(  2  0 13)	  0  1
    120.2156	        	        	        	        	       0	(  0  0 16)	  0  1
    120.9332	        	        	        	        	       0	(  1  1 14)	  0  1
    123.1199	        	        	        	        	       0	(  2  2  4)	  0  1
    123.9076	        	        	        	        	       0	(  2  1 11)	  0  1
    124.4055	        	        	        	        	       0	(  3  0  9)	  0  1
    124.9974	        	        	        	        	       0	(  3  1  0)	  0  1
    125.4103	        	        	        	        	       0	(  3  1  1)	  0  1
    126.6620	        	        	        	        	       0	(  3  1  2)	  0  1
    128.6533	        	        	        	        	       0	(  1  0 16)	  0  1
    128.7951	        	        	        	        	       0	(  3  1  3)	  0  1
    129.4493	        	        	        	        	       0	(  2  0 14)	  0  1
    131.6186	        	        	        	        	       0	(  2  2  6)	  0  1
    131.8949	        	        	        	        	       0	(  3  1  4)	  0  1
    132.6050	        	        	        	        	       0	(  3  0 10)	  0  1
    133.8927	        	        	        	        	       0	(  2  1 12)	  0  1
    136.1196	        	        	        	        	       0	(  3  1  5)	  0  1
    141.7779	        	        	        	        	       0	(  3  1  6)	  0  1
    143.1966	        	        	        	        	       0	(  3  0 11)	  0  1
    143.7338	        	        	        	        	       0	(  2  0 15)	  0  1
    144.9910	        	        	        	        	       0	(  1  0 17)	  0  1
    146.0155	        	        	        	        	       0	(  2  2  8)	  0  1
    147.2110	        	        	        	        	       0	(  2  1 13)	  0  1
    149.5743	        	        	        	        	       0	(  3  1  7)	  0  1
    150.1762	        	        	        	        	       0	(  1  1 16)	  0  1
    154.6849	        	        	        	        	       0	(  0  0 18)	  0  1
    159.4629	        	        	        	        	       0	(  3  0 12)	  0  1
    159.7297	        	        	        	        	       0	(  4  0  0)	  0  1
    160.7316	        	        	        	        	       0	(  4  0  1)	  0  1
    161.9698	        	        	        	        	       0	(  3  1  8)	  0  1
    164.0997	        	        	        	        	       0	(  4  0  2)	  0  1
    171.6828	        	        	        	        	       0	(  2  0 16)	  0  1
    172.4979	        	        	        	        	       0	(  4  0  3)	  0  1
