MSG Master    CELL:    5.91925   5.91925  23.26966   90.0000   90.0000  120.0000   SPGR: P 63/m m c             TEMP:   1074.85
  1   1280     2.52000     0.00000    -0.12474     0.00000     0.00000    0
    99     0     2
       0.00000      10.00000
     125.00000     130.00000
 2Theta	Yobs	Ycal	Yobs-Ycal	Backg	Posr	(hkl)	K
      0.7700	    0.00	  563.75	-1771.25	  446.76
      0.8700	    0.00	  564.32	-1771.25	  447.33
      0.9700	   50.00	  564.88	-1771.25	  447.90
      1.0700	   53.00	  565.44	-1771.25	  448.45
      1.1700	   41.00	  565.98	-1771.25	  449.00
      1.2700	   37.00	  566.52	-1771.25	  449.53
      1.3700	   39.00	  567.04	-1771.25	  450.06
      1.4700	   88.00	  567.56	-1771.25	  450.57
      1.5700	  308.00	  568.06	-1771.25	  451.08
      1.6700	  445.00	  568.56	-1771.25	  451.57
      1.7700	  580.00	  569.05	-1771.25	  452.06
      1.8700	  655.00	  569.52	-1771.25	  452.54
      1.9700	  730.00	  569.99	-1771.25	  453.00
      2.0700	  740.00	  570.45	-1771.25	  453.46
      2.1700	  750.00	  570.90	-1771.25	  453.91
      2.2700	  767.00	  571.34	-1771.25	  454.35
      2.3700	  783.00	  571.77	-1771.25	  454.78
      2.4700	  712.00	  572.19	-1771.25	  455.21
      2.5700	  744.00	  572.61	-1771.25	  455.62
      2.6700	  691.00	  573.01	-1771.25	  456.02
      2.7700	  635.00	  573.41	-1771.25	  456.42
      2.8700	  648.00	  573.79	-1771.25	  456.81
      2.9700	  659.00	  574.17	-1771.25	  457.19
      3.0700	  615.00	  574.54	-1771.25	  457.56
      3.1700	  596.00	  574.90	-1771.25	  457.92
      3.2700	  585.00	  575.26	-1771.25	  458.27
      3.3700	  682.00	  575.60	-1771.25	  458.61
      3.4700	  736.00	  575.94	-1771.25	  458.95
      3.5700	  803.00	  576.26	-1771.25	  459.28
      3.6700	  833.00	  576.58	-1771.25	  459.60
      3.7700	  951.00	  576.90	-1771.25	  459.91
      3.8700	  976.00	  577.20	-1771.25	  460.21
      3.9700	 1039.00	  577.50	-1771.25	  460.51
      4.0700	  998.00	  577.78	-1771.25	  460.80
      4.1700	 1032.00	  578.06	-1771.25	  461.08
      4.2700	 1091.00	  578.33	-1771.25	  461.35
      4.3700	 1113.00	  578.60	-1771.25	  461.61
      4.4700	 1050.00	  578.86	-1771.25	  461.87
      4.5700	 1017.00	  579.10	-1771.25	  462.12
      4.6700	 1068.00	  579.35	-1771.25	  462.36
      4.7700	 1048.00	  579.58	-1771.25	  462.59
      4.8700	  972.00	  579.81	-1771.25	  462.82
      4.9700	 1012.00	  580.02	-1771.25	  463.04
      5.0700	  988.00	  580.24	-1771.25	  463.25
      5.1700	  900.00	  580.44	-1771.25	  463.45
      5.2700	  902.00	  580.64	-1771.25	  463.65
      5.3700	  842.00	  580.83	-1771.25	  463.84
      5.4700	  905.00	  581.01	-1771.25	  464.02
      5.5700	  805.00	  581.19	-1771.25	  464.20
      5.6700	  875.00	  581.35	-1771.25	  464.37
      5.7700	  877.00	  581.52	-1771.25	  464.53
      5.8700	  782.00	  581.67	-1771.25	  464.69
      5.9700	  817.00	  581.82	-1771.25	  464.83
      6.0700	  824.00	  581.96	-1771.25	  464.98
      6.1700	  835.00	  582.10	-1771.25	  465.11
      6.2700	  792.00	  582.23	-1771.25	  465.24
      6.3700	  750.00	  582.35	-1771.25	  465.36
      6.4700	  757.00	  582.46	-1771.25	  465.48
      6.5700	  744.00	  582.57	-1771.25	  465.59
      6.6700	  734.00	  582.67	-1771.25	  465.69
      6.7700	  725.00	  582.77	-1771.25	  465.78
      6.8700	  734.00	  582.86	-1771.25	  465.87
      6.9700	  740.00	  582.94	-1771.25	  465.96
      7.0700	  701.00	  583.02	-1771.25	  466.03
      7.1700	  674.00	  583.09	-1771.25	  466.11
      7.2700	  718.00	  583.16	-1771.25	  466.17
      7.3700	  653.00	  583.22	-1771.25	  466.23
      7.4700	  704.00	  583.27	-1771.25	  466.28
      7.5700	  710.00	  583.32	-1771.25	  466.33
      7.6700	  639.00	  583.36	-1771.25	  466.37
      7.7700	  705.00	  583.39	-1771.25	  466.41
      7.8700	  676.00	  583.42	-1771.25	  466.44
      7.9700	  658.00	  583.45	-1771.25	  466.46
      8.0700	  625.00	  583.47	-1771.25	  466.48
      8.1700	  585.00	  583.48	-1771.25	  466.49
      8.2700	  680.00	  583.49	-1771.25	  466.50
      8.3700	  645.00	  583.49	-1771.25	  466.50
      8.4700	  660.00	  583.49	-1771.25	  466.50
      8.5700	  596.00	  583.48	-1771.25	  466.49
      8.6700	  624.00	  583.46	-1771.25	  466.48
      8.7700	  632.00	  583.44	-1771.25	  466.46
      8.8700	  620.00	  583.42	-1771.25	  466.43
      8.9700	  634.00	  583.39	-1771.25	  466.40
      9.0700	  636.00	  583.35	-1771.25	  466.37
      9.1700	  600.00	  583.31	-1771.25	  466.33
      9.2700	  584.00	  583.27	-1771.25	  466.28
      9.3700	  599.00	  583.22	-1771.25	  466.23
      9.4700	  608.00	  583.17	-1771.25	  466.18
      9.5700	  610.00	  583.11	-1771.25	  466.12
      9.6700	  596.00	  583.04	-1771.25	  466.06
      9.7700	  591.00	  582.97	-1771.25	  465.99
      9.8700	  590.00	  582.90	-1771.25	  465.91
      9.9700	  592.00	  582.82	-1771.25	  465.83
     10.0700	  625.00	  583.35	-1729.60	  465.75
     10.1700	  581.00	  583.32	-1773.57	  465.66
     10.2700	  589.00	  583.30	-1765.55	  465.57
     10.3700	  564.00	  583.30	-1790.55	  465.47
     10.4700	  583.00	  583.34	-1771.59	  465.37
     10.5700	  584.00	  583.47	-1770.72	  465.27
     10.6700	  569.00	  583.76	-1786.01	  465.16
     10.7700	  610.00	  584.33	-1745.58	  465.04
     10.8700	  579.00	  585.25	-1777.50	  464.93
     10.9700	  655.00	  586.50	-1702.75	  464.80
     11.0700	  583.00	  588.04	-1776.29	  464.68
     11.1700	  567.00	  589.87	-1794.12	  464.55
     11.2700	  564.00	  592.01	-1799.26	  464.41
     11.3700	  570.00	  594.54	-1795.79	  464.27
     11.4700	  610.00	  597.56	-1758.81	  464.13
     11.5700	  576.00	  601.24	-1796.49	  463.98
     11.6700	  615.00	  605.88	-1762.13	  463.83
     11.7700	  598.00	  612.01	-1785.26	  463.68
     11.8700	  643.00	  620.53	-1748.78	  463.52
     11.9700	  632.00	  632.32	-1771.57	  463.36
     12.0700	  696.00	  646.38	-1721.63	  463.19
     12.1700	  713.00	  657.04	-1715.29	  463.02
     12.2700	  673.00	  654.62	-1752.87	  462.85
     12.3700	  640.00	  635.68	-1766.93	  462.67
     12.4700	  612.00	  612.25	-1771.50	  462.49
     12.5700	  601.00	  595.54	-1765.79	  462.31
     12.6700	  661.00	  586.97	-1697.22	  462.12
     12.7700	  601.00	  583.36	-1753.61	  461.93
     12.8700	  587.00	  581.78	-1766.03	  461.74
     12.9700	  572.00	  580.87	-1780.12	  461.54
     13.0700	  558.00	  580.22	-1793.47	  461.34
     13.1700	  567.00	  579.70	-1783.95	  461.14
     13.2700	  549.00	  579.25	-1801.50	  460.93
     13.3700	  559.00	  578.86	-1791.11	  460.72
     13.4700	  543.00	  578.51	-1806.76	  460.51
     13.5700	  557.00	  578.18	-1792.43	  460.30
     13.6700	  594.00	  577.86	-1755.11	  460.08
     13.7700	  562.00	  577.57	-1786.82	  459.86
     13.8700	  595.00	  577.28	-1753.53	  459.63
     13.9700	  592.00	  577.00	-1756.25	  459.40
     14.0700	  576.00	  576.72	-1771.97	  459.17
     14.1700	  591.00	  576.45	-1756.70	  458.94
     14.2700	  556.00	  576.18	-1791.43	  458.70
     14.3700	  561.00	  575.91	-1786.16	  458.47
     14.4700	  583.00	  575.65	-1763.90	  458.22
     14.5700	  542.00	  575.38	-1804.63	  457.98
     14.6700	  587.00	  575.11	-1759.36	  457.73
     14.7700	  520.00	  574.85	-1826.10	  457.48
     14.8700	  555.00	  574.58	-1790.83	  457.23
     14.9700	  556.00	  574.31	-1789.56	  456.98
     15.0700	  577.00	  574.04	-1768.29	  456.72
     15.1700	  541.00	  573.77	-1804.02	  456.46
     15.2700	  563.00	  573.50	-1781.75	  456.20
     15.3700	  567.00	  573.23	-1777.48	  455.94
     15.4700	  602.00	  572.95	-1742.20	  455.67
     15.5700	  537.00	  572.68	-1806.93	  455.40
     15.6700	  536.00	  572.40	-1807.65	  455.13
     15.7700	  613.00	  572.12	-1730.37	  454.86
     15.8700	  578.00	  571.84	-1765.09	  454.59
     15.9700	  544.00	  571.56	-1798.81	  454.31
     16.0700	  587.00	  571.27	-1755.52	  454.03
     16.1700	  632.00	  570.99	-1710.24	  453.75
     16.2700	  523.00	  570.70	-1818.95	  453.47
     16.3700	  571.00	  570.41	-1770.66	  453.18
     16.4700	  564.00	  570.12	-1777.37	  452.89
     16.5700	  578.00	  569.85	-1763.10	  452.60
     16.6700	  539.00	  569.56	-1801.81	  452.31
     16.7700	  506.00	  569.26	-1834.51	  452.02
     16.8700	  571.00	  568.97	-1769.22	  451.73
     16.9700	  564.00	  568.67	-1775.92	  451.43
     17.0700	  547.00	  568.37	-1792.62	  451.13
     17.1700	  566.00	  568.07	-1773.32	  450.83
     17.2700	  558.00	  567.76	-1781.01	  450.53
     17.3700	  572.00	  567.46	-1766.71	  450.23
     17.4700	  625.00	  567.15	-1713.40	  449.92
     17.5700	  605.00	  566.85	-1733.10	  449.62
     17.6700	  550.00	  566.54	-1787.79	  449.31
     17.7700	  548.00	  566.23	-1789.48	  449.00
     17.8700	  540.00	  566.02	-1797.27	  448.69
     17.9700	  604.00	  565.71	-1732.96	  448.38
     18.0700	  597.00	  565.40	-1739.65	  448.06
     18.1700	  591.00	  565.08	-1745.33	  447.75
     18.2700	  618.00	  564.77	-1718.02	  447.43
     18.3700	  534.00	  564.45	-1801.70	  447.12
     18.4700	  560.00	  564.14	-1775.39	  446.80
     18.5700	  597.00	  563.82	-1738.07	  446.48
     18.6700	  565.00	  563.50	-1769.75	  446.16
     18.7700	  578.00	  563.18	-1756.43	  445.83
     18.8700	  600.00	  562.95	-1734.20	  445.51
     18.9700	  561.00	  562.63	-1772.88	  445.19
     19.0700	  534.00	  562.31	-1799.56	  444.86
     19.1700	  538.00	  561.99	-1795.24	  444.53
     19.2700	  535.00	  561.67	-1797.92	  444.20
     19.3700	  556.00	  561.34	-1776.59	  443.88
     19.4700	  556.00	  561.02	-1776.27	  443.55
     19.5700	  570.00	  560.70	-1761.95	  443.22
     19.6700	  528.00	  560.37	-1803.62	  442.88
     19.7700	  544.00	  560.05	-1787.30	  442.55
     19.8700	  534.00	  559.72	-1796.97	  442.22
     19.9700	  556.00	  559.40	-1774.65	  441.88
     20.0700	  533.00	  559.07	-1797.32	  441.55
     20.1700	  523.00	  558.74	-1806.99	  441.21
     20.2700	  518.00	  558.39	-1811.64	  440.88
     20.3700	  529.00	  558.07	-1800.32	  440.54
     20.4700	  550.00	  557.74	-1778.99	  440.20
     20.5700	  543.00	  557.41	-1785.66	  439.86
     20.6700	  562.00	  557.09	-1766.34	  439.52
     20.7700	  551.00	  556.76	-1777.01	  439.18
     20.8700	  557.00	  556.43	-1770.68	  438.84
     20.9700	  576.00	  556.14	-1751.39	  438.50
     21.0700	  575.00	  555.81	-1752.06	  438.16
     21.1700	  553.00	  555.49	-1773.74	  437.82
     21.2700	  535.00	  555.16	-1791.41	  437.47
     21.3700	  566.00	  554.84	-1760.09	  437.13
     21.4700	  540.00	  554.52	-1785.77	  436.79
     21.5700	  542.00	  554.20	-1783.45	  436.45
     21.6700	  549.00	  553.87	-1776.12	  436.10
     21.7700	  546.00	  553.55	-1778.80	  435.76
     21.8700	  549.00	  553.24	-1775.49	  435.41
     21.9700	  543.00	  552.92	-1781.17	  435.07
     22.0700	  522.00	  552.60	-1801.85	  434.72
     22.1700	  508.00	  552.29	-1815.54	  434.38
     22.2700	  568.00	  551.98	-1755.23	  434.03
     22.3700	  556.00	  551.67	-1766.92	  433.68
     22.4700	  584.00	  551.37	-1738.62	  433.34
     22.5700	  523.00	  551.07	-1799.32	  432.99
     22.6700	  550.00	  550.77	-1772.02	  432.65
     22.7700	  573.00	  550.48	-1748.73	  432.30
     22.8700	  564.00	  550.20	-1757.45	  431.95
     22.9700	  598.00	  549.93	-1723.18	  431.61
     23.0700	  584.00	  549.66	-1736.91	  431.26
     23.1700	  556.00	  549.41	-1764.66	  430.91
     23.2700	  621.00	  549.18	-1699.43	  430.57
     23.3700	  530.00	  548.96	-1790.21	  430.22
     23.4700	  568.00	  548.77	-1752.02	  429.87
     23.5700	  572.00	  548.62	-1747.87	  429.53
     23.6700	  557.00	  548.52	-1762.77	  429.18
     23.7700	  585.00	  548.50	-1734.75	  428.83
     23.8700	  569.00	  548.78	-1751.03	  428.49
     23.9700	  548.00	  549.28	-1772.53	  428.14
     24.0700	  556.00	  550.54	-1765.79	  427.80
     24.1700	  582.00	  553.16	-1742.41	  427.45
     24.2700	  586.00	  557.96	-1743.21	  427.11
     24.3700	  559.00	  565.85	-1778.10	  426.76
     24.4700	  581.00	  577.95	-1768.20	  426.42
     24.5700	  573.00	  594.95	-1793.20	  426.07
     24.6700	  645.00	  614.60	-1740.85	  425.73
     24.7700	  620.00	  629.12	-1780.37	  425.39
     24.8700	  657.00	  627.23	-1741.48	  425.04
     24.9700	  585.00	  606.64	-1792.89	  424.70
     25.0700	  551.00	  581.06	-1801.31	  424.36
     25.1700	  551.00	  562.23	-1782.48	  424.02
     25.2700	  535.00	  552.11	-1788.36	  423.67
     25.3700	  532.00	  547.68	-1786.93	  423.33
     25.4700	  606.00	  545.78	-1711.03	  422.99
     25.5700	  560.00	  544.79	-1756.04	  422.65
     25.6700	  529.00	  544.13	-1786.38	  422.31
     25.7700	  547.00	  543.64	-1767.89	  421.97
     25.8700	  584.00	  543.27	-1730.52	  421.64
     25.9700	  571.00	  542.99	-1743.24	  421.30
     26.0700	  577.00	  542.78	-1737.03	  420.96
     26.1700	  583.00	  542.65	-1730.90	  420.62
     26.2700	  553.00	  542.58	-1760.83	  420.29
     26.3700	  561.00	  542.59	-1752.84	  419.95
     26.4700	  555.00	  542.68	-1758.93	  419.62
     26.5700	  587.00	  542.87	-1727.12	  419.28
     26.6700	  550.00	  543.17	-1764.42	  418.95
     26.7700	  512.00	  543.60	-1802.85	  418.62
     26.8700	  570.00	  544.21	-1745.46	  418.29
     26.9700	  579.00	  545.05	-1737.30	  417.95
     27.0700	  618.00	  546.20	-1699.45	  417.62
     27.1700	  543.00	  547.78	-1776.03	  417.30
     27.2700	  564.00	  550.06	-1757.31	  416.97
     27.3700	  580.00	  553.54	-1744.79	  416.64
     27.4700	  528.00	  559.18	-1802.43	  416.31
     27.5700	  560.00	  568.70	-1779.95	  415.99
     27.6700	  586.00	  584.78	-1770.03	  415.66
     27.7700	  563.00	  610.85	-1819.10	  415.34
     27.8700	  643.00	  649.78	-1778.03	  415.01
     27.9700	  669.00	  701.58	-1803.83	  414.69
     28.0700	  760.00	  760.31	-1771.56	  414.37
     28.1700	  874.00	  811.57	-1708.82	  414.05
     28.2700	  954.00	  833.82	-1651.07	  413.73
     28.3700	  932.00	  814.48	-1653.73	  413.41
     28.4700	  846.00	  774.05	-1699.30	  413.09
     28.5700	  685.00	  746.66	-1832.91	  412.78
     28.6700	  737.00	  748.14	-1782.39	  412.46
     28.7700	  732.00	  773.85	-1813.10	  412.15
     28.8700	  854.00	  803.81	-1721.06	  411.83
     28.9700	  765.00	  809.36	-1815.61	  411.52
     29.0700	  790.00	  771.91	-1753.16	  411.21
     29.1700	  690.00	  707.23	-1788.48	  410.90
     29.2700	  653.00	  645.20	-1763.45	  410.59
     29.3700	  550.00	  600.27	-1821.52	  410.28
     29.4700	  619.00	  573.02	-1725.27	  409.97
     29.5700	  561.00	  558.26	-1768.51	  409.67
     29.6700	  583.00	  550.46	-1738.71	  409.36
     29.7700	  609.00	  546.03	-1708.28	  409.06
     29.8700	  613.00	  543.25	-1701.50	  408.76
     29.9700	  571.00	  541.45	-1741.70	  408.46
     30.0700	  546.00	  540.46	-1765.71	  408.16
     30.1700	  558.00	  540.41	-1753.66	  407.86
     30.2700	  549.00	  541.79	-1764.04	  407.56
     30.3700	  563.00	  545.61	-1753.86	  407.26
     30.4700	  538.00	  553.43	-1786.68	  406.97
     30.5700	  576.00	  566.93	-1762.18	  406.68
     30.6700	  564.00	  586.68	-1793.93	  406.38
     30.7700	  588.00	  610.31	-1793.56	  406.09
     30.8700	  597.00	  631.15	-1805.40	  405.80
     30.9700	  577.00	  638.85	-1833.10	  405.51
     31.0700	  604.00	  626.11	-1793.36	  405.23
     31.1700	  607.00	  599.54	-1763.79	  404.94
     31.2700	  544.00	  572.72	-1799.97	  404.66
     31.3700	  546.00	  552.98	-1778.23	  404.38
     31.4700	  516.00	  541.01	-1796.26	  404.09
     31.5700	  569.00	  534.67	-1736.92	  403.81
     31.6700	  546.00	  531.42	-1756.67	  403.53
     31.7700	  477.00	  529.63	-1823.88	  403.26
     31.8700	  532.00	  528.49	-1767.74	  402.98
     31.9700	  537.00	  527.69	-1761.94	  402.71
     32.0700	  570.00	  527.11	-1728.36	  402.43
     32.1700	  561.00	  526.70	-1736.95	  402.16
     32.2700	  556.00	  526.45	-1741.70	  401.89
     32.3700	  544.00	  526.33	-1753.58	  401.62
     32.4700	  565.00	  526.36	-1732.61	  401.36
     32.5700	  517.00	  526.55	-1780.80	  401.09
     32.6700	  583.00	  526.92	-1715.17	  400.83
     32.7700	  561.00	  527.51	-1737.76	  400.56
     32.8700	  530.00	  528.40	-1769.65	  400.30
     32.9700	  541.00	  529.67	-1759.92	  400.04
     33.0700	  539.00	  531.52	-1763.77	  399.78
     33.1700	  567.00	  534.37	-1738.62	  399.53
     33.2700	  554.00	  539.18	-1756.43	  399.27
     33.3700	  539.00	  548.07	-1780.32	  399.02
     33.4700	  563.00	  565.34	-1773.59	  398.77
     33.5700	  571.00	  597.93	-1798.18	  398.52
     33.6700	  615.00	  654.18	-1810.43	  398.27
     33.7700	  786.00	  738.53	-1723.78	  398.02
     33.8700	  844.00	  842.56	-1769.81	  397.77
     33.9700	 1047.00	  938.69	-1662.94	  397.53
     34.0700	 1067.00	  983.44	-1687.69	  397.29
     34.1700	 1064.00	  943.34	-1650.59	  397.05
     34.2700	  862.00	  838.86	-1748.11	  396.81
     34.3700	  769.00	  725.28	-1727.53	  396.57
     34.4700	  638.00	  637.54	-1770.79	  396.33
     34.5700	  610.00	  582.96	-1744.21	  396.10
     34.6700	  540.00	  553.95	-1785.20	  395.87
     34.7700	  541.00	  539.69	-1769.94	  395.64
     34.8700	  505.00	  532.38	-1798.63	  395.41
     34.9700	  541.00	  528.05	-1758.30	  395.18
     35.0700	  516.00	  525.06	-1780.31	  394.95
     35.1700	  543.00	  522.80	-1751.05	  394.73
     35.2700	  507.00	  521.01	-1785.26	  394.51
     35.3700	  519.00	  519.56	-1771.81	  394.29
     35.4700	  522.00	  518.37	-1767.62	  394.07
     35.5700	  569.00	  517.35	-1719.60	  393.85
     35.6700	  540.00	  516.47	-1747.72	  393.63
     35.7700	  548.00	  515.71	-1738.96	  393.42
     35.8700	  497.00	  515.53	-1789.78	  393.21
     35.9700	  575.00	  514.94	-1711.19	  393.00
     36.0700	  508.00	  514.41	-1777.66	  392.79
     36.1700	  475.00	  513.93	-1810.18	  392.58
     36.2700	  534.00	  513.50	-1750.75	  392.38
     36.3700	  516.00	  513.10	-1768.35	  392.17
     36.4700	  482.00	  512.74	-1801.99	  391.97
     36.5700	  506.00	  512.42	-1777.67	  391.77
     36.6700	  489.00	  512.13	-1794.38	  391.57
     36.7700	  517.00	  511.88	-1766.13	  391.37
     36.8700	  537.00	  511.69	-1745.94	  391.18
     36.9700	  536.00	  511.60	-1746.85	  390.99
     37.0700	  533.00	  511.71	-1749.96	  390.79
     37.1700	  505.00	  512.24	-1778.49	  390.60
     37.2700	  496.00	  513.57	-1788.82	  390.42
     37.3700	  546.00	  516.10	-1741.35	  390.23
     37.4700	  526.00	  519.95	-1765.20	  390.05
     37.5700	  487.00	  524.54	-1808.79	  389.86
     37.6700	  566.00	  528.47	-1733.72	  389.68
     37.7700	  540.00	  530.01	-1761.26	  389.50
     37.8700	  559.00	  528.56	-1740.81	  389.33
     37.9700	  519.00	  525.34	-1777.59	  389.15
     38.0700	  520.00	  521.60	-1772.85	  388.98
     38.1700	  536.00	  517.83	-1753.08	  388.81
     38.2700	  509.00	  514.44	-1776.69	  388.64
     38.3700	  487.00	  511.80	-1796.05	  388.47
     38.4700	  483.00	  509.95	-1798.20	  388.30
     38.5700	  517.00	  508.78	-1763.03	  388.14
     38.6700	  522.00	  508.06	-1757.31	  387.98
     38.7700	  524.00	  507.51	-1754.76	  387.82
     38.8700	  517.00	  507.20	-1761.45	  387.66
     38.9700	  513.00	  506.95	-1765.20	  387.50
     39.0700	  496.00	  506.73	-1781.98	  387.34
     39.1700	  510.00	  506.54	-1767.79	  387.19
     39.2700	  450.00	  506.28	-1827.53	  387.04
     39.3700	  539.00	  506.11	-1738.36	  386.89
     39.4700	  488.00	  505.96	-1789.21	  386.74
     39.5700	  504.00	  505.82	-1773.07	  386.59
     39.6700	  441.00	  505.69	-1835.94	  386.45
     39.7700	  504.00	  505.56	-1772.81	  386.31
     39.8700	  474.00	  505.56	-1802.81	  386.17
     39.9700	  503.00	  505.46	-1773.71	  386.03
     40.0700	  495.00	  505.36	-1781.61	  385.89
     40.1700	  494.00	  505.28	-1782.53	  385.76
     40.2700	  498.00	  505.20	-1778.45	  385.62
     40.3700	  531.00	  505.14	-1745.39	  385.49
     40.4700	  477.00	  505.09	-1799.34	  385.36
     40.5700	  473.00	  505.05	-1803.30	  385.23
     40.6700	  496.00	  505.02	-1780.27	  385.11
     40.7700	  471.00	  505.02	-1805.27	  384.98
     40.8700	  498.00	  505.04	-1778.29	  384.86
     40.9700	  477.00	  505.08	-1799.33	  384.74
     41.0700	  518.00	  505.15	-1758.40	  384.62
     41.1700	  491.00	  505.22	-1785.47	  384.50
     41.2700	  470.00	  505.37	-1806.62	  384.39
     41.3700	  486.00	  505.58	-1790.83	  384.28
     41.4700	  498.00	  505.87	-1779.12	  384.17
     41.5700	  495.00	  506.26	-1782.51	  384.06
     41.6700	  511.00	  507.22	-1767.47	  383.95
     41.7700	  512.00	  508.03	-1767.28	  383.84
     41.8700	  448.00	  509.39	-1832.64	  383.74
     41.9700	  502.00	  511.94	-1781.19	  383.64
     42.0700	  477.00	  517.01	-1811.26	  383.54
     42.1700	  543.00	  526.90	-1755.15	  383.44
     42.2700	  547.00	  544.31	-1768.56	  383.34
     42.3700	  553.00	  571.16	-1789.41	  383.25
     42.4700	  559.00	  605.85	-1818.10	  383.15
     42.5700	  578.00	  641.01	-1834.26	  383.06
     42.6700	  634.00	  664.12	-1801.37	  382.97
     42.7700	  626.00	  662.99	-1808.24	  382.88
     42.8700	  599.00	  637.49	-1809.74	  382.80
     42.9700	  569.00	  600.64	-1802.89	  382.72
     43.0700	  569.00	  565.88	-1768.13	  382.63
     43.1700	  521.00	  540.01	-1790.26	  382.55
     43.2700	  535.00	  523.90	-1760.15	  382.47
     43.3700	  501.00	  515.17	-1785.42	  382.40
     43.4700	  506.00	  510.82	-1776.07	  382.32
     43.5700	  480.00	  508.64	-1799.89	  382.25
     43.6700	  492.00	  507.44	-1786.69	  382.18
     43.7700	  470.00	  506.86	-1808.11	  382.11
     43.8700	  516.00	  506.31	-1761.56	  382.04
     43.9700	  514.00	  505.90	-1763.15	  381.97
     44.0700	  549.00	  505.59	-1727.84	  381.91
     44.1700	  490.00	  505.36	-1786.61	  381.85
     44.2700	  519.00	  505.18	-1757.43	  381.79
     44.3700	  496.00	  505.09	-1780.34	  381.73
     44.4700	  499.00	  504.88	-1777.13	  381.67
     44.5700	  520.00	  504.83	-1756.08	  381.62
     44.6700	  503.00	  504.81	-1773.06	  381.56
     44.7700	  485.00	  504.81	-1791.06	  381.51
     44.8700	  542.00	  504.84	-1734.09	  381.46
     44.9700	  488.00	  504.90	-1788.15	  381.41
     45.0700	  538.00	  504.97	-1738.22	  381.37
     45.1700	  505.00	  505.06	-1771.31	  381.32
     45.2700	  502.00	  505.36	-1774.61	  381.28
     45.3700	  505.00	  505.50	-1771.75	  381.24
     45.4700	  496.00	  505.66	-1780.91	  381.20
     45.5700	  506.00	  505.85	-1771.10	  381.16
     45.6700	  499.00	  506.05	-1778.30	  381.12
     45.7700	  490.00	  506.29	-1787.54	  381.09
     45.8700	  520.00	  506.55	-1757.80	  381.06
     45.9700	  493.00	  506.84	-1785.09	  381.03
     46.0700	  524.00	  507.16	-1754.41	  381.00
     46.1700	  526.00	  507.52	-1752.77	  380.97
     46.2700	  510.00	  507.92	-1769.17	  380.94
     46.3700	  530.00	  508.37	-1749.62	  380.92
     46.4700	  514.00	  508.87	-1766.12	  380.90
     46.5700	  509.00	  509.44	-1771.69	  380.88
     46.6700	  525.00	  510.09	-1756.34	  380.86
     46.7700	  511.00	  510.83	-1771.08	  380.84
     46.8700	  452.00	  511.73	-1830.98	  380.82
     46.9700	  484.00	  512.86	-1800.11	  380.81
     47.0700	  492.00	  514.46	-1793.71	  380.80
     47.1700	  525.00	  517.01	-1763.26	  380.79
     47.2700	  488.00	  521.36	-1804.61	  380.78
     47.3700	  523.00	  528.71	-1776.96	  380.77
     47.4700	  543.00	  540.33	-1768.58	  380.76
     47.5700	  572.00	  556.53	-1755.78	  380.76
     47.6700	  592.00	  575.89	-1755.14	  380.76
     47.7700	  607.00	  594.41	-1758.66	  380.76
     47.8700	  618.00	  606.15	-1759.40	  380.76
     47.9700	  590.00	  606.27	-1787.52	  380.76
     48.0700	  550.00	  595.39	-1816.64	  380.76
     48.1700	  519.00	  579.30	-1831.55	  380.77
     48.2700	  610.00	  563.97	-1725.22	  380.78
     48.3700	  533.00	  552.78	-1791.03	  380.78
     48.4700	  538.00	  546.72	-1779.97	  380.79
     48.5700	  538.00	  545.14	-1778.39	  380.81
     48.6700	  495.00	  546.87	-1823.12	  380.82
     48.7700	  509.00	  550.96	-1813.21	  380.84
     48.8700	  579.00	  556.95	-1749.20	  380.85
     48.9700	  544.00	  564.96	-1792.21	  380.87
     49.0700	  578.00	  575.74	-1768.99	  380.89
     49.1700	  590.00	  591.05	-1772.30	  380.91
     49.2700	  642.00	  614.53	-1743.78	  380.93
     49.3700	  672.00	  652.99	-1752.24	  380.96
     49.4700	  722.00	  717.70	-1766.95	  380.98
     49.5700	  810.00	  824.56	-1785.81	  381.01
     49.6700	  945.00	  991.69	-1817.94	  381.04
     49.7700	 1133.00	 1231.41	-1869.66	  381.07
     49.8700	 1473.00	 1541.76	-1840.01	  381.10
     49.9700	 1862.00	 1893.82	-1803.07	  381.13
     50.0700	 2262.00	 2222.88	-1732.13	  381.17
     50.1700	 2536.00	 2433.00	-1668.25	  381.20
     50.2700	 2493.00	 2438.31	-1716.56	  381.24
     50.3700	 2235.00	 2234.16	-1770.41	  381.28
     50.4700	 1871.00	 1905.43	-1805.68	  381.32
     50.5700	 1469.00	 1553.28	-1855.53	  381.36
     50.6700	 1054.00	 1244.73	-1961.98	  381.41
     50.7700	  862.00	 1009.63	-1918.88	  381.45
     50.8700	  712.00	  850.13	-1909.38	  381.50
     50.9700	  667.00	  751.97	-1856.22	  381.54
     51.0700	  658.00	  694.79	-1808.04	  381.59
     51.1700	  639.00	  659.80	-1792.05	  381.64
     51.2700	  600.00	  634.25	-1805.50	  381.69
     51.3700	  561.00	  612.53	-1822.78	  381.75
     51.4700	  599.00	  593.70	-1765.95	  381.80
     51.5700	  584.00	  578.23	-1765.48	  381.86
     51.6700	  553.00	  566.44	-1784.69	  381.92
     51.7700	  579.00	  558.05	-1750.30	  381.97
     51.8700	  570.00	  552.34	-1753.59	  382.03
     51.9700	  522.00	  548.53	-1797.78	  382.09
     52.0700	  539.00	  546.03	-1778.28	  382.16
     52.1700	  514.00	  544.49	-1801.74	  382.22
     52.2700	  568.00	  543.78	-1747.03	  382.29
     52.3700	  588.00	  543.96	-1727.21	  382.35
     52.4700	  578.00	  545.57	-1738.82	  382.42
     52.5700	  541.00	  549.05	-1779.30	  382.49
     52.6700	  537.00	  556.50	-1790.75	  382.56
     52.7700	  605.00	  571.67	-1737.92	  382.63
     52.8700	  638.00	  600.65	-1733.90	  382.70
     52.9700	  664.00	  651.45	-1758.70	  382.78
     53.0700	  743.00	  731.52	-1759.77	  382.85
     53.1700	  903.00	  842.92	-1711.17	  382.93
     53.2700	 1060.00	  976.76	-1688.01	  383.01
     53.3700	 1145.00	 1109.60	-1735.85	  383.08
     53.4700	 1207.00	 1205.23	-1769.48	  383.16
     53.5700	 1201.00	 1227.85	-1798.10	  383.24
     53.6700	 1111.00	 1166.98	-1827.23	  383.33
     53.7700	  982.00	 1047.98	-1837.23	  383.41
     53.8700	  859.00	  910.34	-1822.59	  383.50
     53.9700	  728.00	  785.26	-1828.51	  383.58
     54.0700	  691.00	  688.91	-1769.16	  383.67
     54.1700	  618.00	  624.18	-1777.43	  383.76
     54.2700	  575.00	  585.53	-1781.78	  383.85
     54.3700	  595.00	  564.71	-1740.96	  383.94
     54.4700	  605.00	  554.34	-1720.59	  384.03
     54.5700	  568.00	  549.47	-1752.72	  384.12
     54.6700	  592.00	  547.37	-1726.62	  384.21
     54.7700	  571.00	  546.74	-1746.99	  384.31
     54.8700	  555.00	  547.04	-1763.29	  384.40
     54.9700	  579.00	  548.05	-1740.30	  384.50
     55.0700	  624.00	  549.74	-1696.99	  384.60
     55.1700	  558.00	  552.11	-1765.36	  384.70
     55.2700	  587.00	  555.22	-1739.47	  384.80
     55.3700	  589.00	  559.20	-1741.45	  384.90
     55.4700	  544.00	  564.27	-1791.52	  385.00
     55.5700	  585.00	  570.75	-1757.00	  385.10
     55.6700	  567.00	  579.41	-1783.66	  385.21
     55.7700	  555.00	  591.78	-1808.03	  385.31
     55.8700	  603.00	  611.01	-1779.26	  385.42
     55.9700	  584.00	  643.09	-1830.34	  385.52
     56.0700	  703.00	  698.25	-1766.50	  385.63
     56.1700	  697.00	  791.60	-1865.85	  385.74
     56.2700	  833.00	  941.61	-1879.86	  385.85
     56.3700	 1087.00	 1164.92	-1849.17	  385.96
     56.4700	 1429.00	 1467.41	-1809.66	  386.07
     56.5700	 1757.00	 1833.97	-1848.22	  386.18
     56.6700	 2205.00	 2220.15	-1786.40	  386.30
     56.7700	 2450.00	 2549.83	-1871.08	  386.41
     56.8700	 2600.00	 2728.96	-1900.21	  386.53
     56.9700	 2625.00	 2691.37	-1837.62	  386.64
     57.0700	 2370.00	 2451.60	-1852.85	  386.76
     57.1700	 2097.00	 2093.24	-1767.49	  386.88
     57.2700	 1677.00	 1708.81	-1803.06	  386.99
     57.3700	 1320.00	 1364.08	-1815.33	  387.11
     57.4700	  969.00	 1092.63	-1894.88	  387.23
     57.5700	  871.00	  901.28	-1801.53	  387.35
     57.6700	  825.00	  779.54	-1725.79	  387.48
     57.7700	  711.00	  710.06	-1770.31	  387.60
     57.8700	  685.00	  676.43	-1762.68	  387.72
     57.9700	  666.00	  667.20	-1772.45	  387.85
     58.0700	  690.00	  676.32	-1757.57	  387.97
     58.1700	  702.00	  701.83	-1771.08	  388.10
     58.2700	  769.00	  743.86	-1746.11	  388.22
     58.3700	  837.00	  802.73	-1736.98	  388.35
     58.4700	  940.00	  877.22	-1708.47	  388.48
     58.5700	 1145.00	  962.97	-1589.22	  388.60
     58.6700	 1293.00	 1051.86	-1530.11	  388.73
     58.7700	 1380.00	 1134.16	-1525.41	  388.86
     58.8700	 1535.00	 1202.93	-1439.18	  388.99
     58.9700	 1615.00	 1254.12	-1410.37	  389.12
     59.0700	 1641.00	 1282.44	-1412.69	  389.25
     59.1700	 1609.00	 1283.14	-1445.39	  389.39
     59.2700	 1497.00	 1259.86	-1534.11	  389.52
     59.3700	 1368.00	 1225.27	-1628.52	  389.65
     59.4700	 1288.00	 1192.56	-1675.81	  389.79
     59.5700	 1135.00	 1170.43	-1806.68	  389.92
     59.6700	 1232.00	 1165.78	-1705.03	  390.06
     59.7700	 1181.00	 1186.81	-1777.06	  390.19
     59.8700	 1254.00	 1239.35	-1756.60	  390.33
     59.9700	 1309.00	 1320.30	-1782.55	  390.46
     60.0700	 1448.00	 1413.94	-1737.19	  390.60
     60.1700	 1579.00	 1492.32	-1684.57	  390.74
     60.2700	 1609.00	 1521.98	-1684.23	  390.88
     60.3700	 1564.00	 1481.38	-1688.63	  391.02
     60.4700	 1446.00	 1376.20	-1701.45	  391.16
     60.5700	 1343.00	 1233.29	-1661.54	  391.30
     60.6700	 1138.00	 1082.00	-1715.25	  391.44
     60.7700	  921.00	  944.06	-1794.31	  391.58
     60.8700	  817.00	  831.81	-1786.06	  391.72
     60.9700	  731.00	  749.62	-1789.87	  391.86
     61.0700	  638.00	  696.47	-1829.72	  392.00
     61.1700	  640.00	  669.01	-1800.26	  392.14
     61.2700	  666.00	  664.42	-1769.67	  392.29
     61.3700	  629.00	  682.13	-1824.38	  392.43
     61.4700	  712.00	  724.10	-1783.35	  392.57
     61.5700	  709.00	  793.60	-1855.85	  392.72
     61.6700	  795.00	  892.69	-1868.94	  392.86
     61.7700	  947.00	 1019.33	-1843.58	  393.01
     61.8700	 1108.00	 1164.45	-1827.70	  393.15
     61.9700	 1231.00	 1310.25	-1850.50	  393.30
     62.0700	 1416.00	 1430.11	-1785.36	  393.44
     62.1700	 1388.00	 1493.52	-1876.77	  393.59
     62.2700	 1317.00	 1479.89	-1934.14	  393.73
     62.3700	 1366.00	 1393.22	-1798.47	  393.88
     62.4700	 1175.00	 1259.04	-1855.29	  394.03
     62.5700	 1058.00	 1107.78	-1821.03	  394.17
     62.6700	  911.00	  963.42	-1823.67	  394.32
     62.7700	  718.00	  840.63	-1893.88	  394.47
     62.8700	  634.00	  745.59	-1882.84	  394.62
     62.9700	  631.00	  677.80	-1818.05	  394.76
     63.0700	  583.00	  632.81	-1821.06	  394.91
     63.1700	  615.00	  604.75	-1761.00	  395.06
     63.2700	  597.00	  588.18	-1762.43	  395.21
     63.3700	  581.00	  579.03	-1769.28	  395.36
     63.4700	  639.00	  574.87	-1707.12	  395.51
     63.5700	  615.00	  574.73	-1730.98	  395.66
     63.6700	  556.00	  578.91	-1794.16	  395.80
     63.7700	  584.00	  588.73	-1775.98	  395.95
     63.8700	  620.00	  606.20	-1757.45	  396.10
     63.9700	  653.00	  633.53	-1751.78	  396.25
     64.0700	  699.00	  672.30	-1744.55	  396.40
     64.1700	  745.00	  722.47	-1748.72	  396.55
     64.2700	  825.00	  781.41	-1727.66	  396.70
     64.3700	  947.00	  843.29	-1667.54	  396.85
     64.4700	  943.00	  899.05	-1727.30	  397.00
     64.5700	 1007.00	  937.82	-1702.07	  397.15
     64.6700	 1012.00	  950.50	-1709.75	  397.30
     64.7700	  986.00	  936.17	-1721.42	  397.45
     64.8700	  989.00	  899.35	-1681.60	  397.60
     64.9700	  901.00	  849.00	-1719.25	  397.75
     65.0700	  903.00	  794.64	-1662.89	  397.90
     65.1700	  779.00	  743.81	-1736.06	  398.05
     65.2700	  741.00	  700.64	-1730.89	  398.20
     65.3700	  653.00	  666.00	-1784.25	  398.35
     65.4700	  651.00	  638.82	-1759.07	  398.50
     65.5700	  651.00	  617.51	-1737.76	  398.65
     65.6700	  572.00	  600.84	-1800.09	  398.79
     65.7700	  609.00	  587.98	-1750.23	  398.94
     65.8700	  581.00	  578.40	-1768.65	  399.09
     65.9700	  560.00	  571.67	-1782.92	  399.24
     66.0700	  568.00	  567.44	-1770.69	  399.39
     66.1700	  548.00	  565.32	-1788.57	  399.54
     66.2700	  547.00	  564.93	-1789.18	  399.69
     66.3700	  546.00	  565.98	-1791.23	  399.84
     66.4700	  575.00	  568.27	-1764.52	  399.98
     66.5700	  554.00	  571.83	-1789.08	  400.13
     66.6700	  571.00	  576.97	-1777.22	  400.28
     66.7700	  585.00	  584.49	-1770.74	  400.43
     66.8700	  593.00	  596.09	-1774.34	  400.57
     66.9700	  598.00	  614.34	-1787.59	  400.72
     67.0700	  627.00	  643.85	-1788.10	  400.87
     67.1700	  669.00	  691.18	-1793.43	  401.02
     67.2700	  725.00	  764.80	-1811.05	  401.16
     67.3700	  831.00	  873.95	-1814.20	  401.31
     67.4700	 1138.00	 1026.80	-1660.05	  401.45
     67.5700	 1273.00	 1226.73	-1724.98	  401.60
     67.6700	 1454.00	 1468.78	-1786.03	  401.74
     67.7700	 1719.00	 1737.11	-1789.36	  401.89
     67.8700	 2019.00	 2003.20	-1755.45	  402.03
     67.9700	 2234.00	 2226.92	-1764.17	  402.18
     68.0700	 2412.00	 2362.85	-1722.10	  402.32
     68.1700	 2444.00	 2376.42	-1703.67	  402.46
     68.2700	 2230.00	 2263.79	-1805.04	  402.61
     68.3700	 2057.00	 2054.60	-1768.85	  402.75
     68.4700	 1783.00	 1793.89	-1782.14	  402.89
     68.5700	 1526.00	 1523.68	-1768.93	  403.03
     68.6700	 1234.00	 1274.97	-1812.22	  403.17
     68.7700	  997.00	 1066.22	-1840.47	  403.32
     68.8700	  895.00	  904.31	-1780.56	  403.46
     68.9700	  784.00	  787.33	-1774.58	  403.60
     69.0700	  685.00	  707.77	-1794.02	  403.74
     69.1700	  679.00	  656.34	-1748.59	  403.87
     69.2700	  680.00	  624.33	-1715.58	  404.01
     69.3700	  587.00	  604.73	-1788.98	  404.15
     69.4700	  648.00	  592.66	-1715.91	  404.29
     69.5700	  585.00	  584.99	-1771.24	  404.43
     69.6700	  564.00	  579.91	-1787.16	  404.56
     69.7700	  571.00	  576.42	-1776.67	  404.70
     69.8700	  584.00	  574.01	-1761.26	  404.83
     69.9700	  578.00	  572.42	-1765.67	  404.97
     70.0700	  584.00	  571.53	-1758.78	  405.10
     70.1700	  539.00	  571.28	-1803.53	  405.24
     70.2700	  599.00	  571.69	-1743.94	  405.37
     70.3700	  603.00	  572.87	-1741.12	  405.50
     70.4700	  585.00	  574.99	-1761.24	  405.63
     70.5700	  543.00	  578.50	-1806.75	  405.77
     70.6700	  564.00	  584.19	-1791.44	  405.90
     70.7700	  580.00	  593.48	-1784.73	  406.03
     70.8700	  588.00	  608.68	-1791.93	  406.15
     70.9700	  637.00	  633.26	-1767.51	  406.28
     71.0700	  669.00	  672.02	-1774.27	  406.41
     71.1700	  671.00	  730.76	-1831.01	  406.54
     71.2700	  822.00	  816.44	-1765.69	  406.67
     71.3700	  874.00	  932.19	-1829.44	  406.79
     71.4700	 1026.00	 1080.49	-1825.74	  406.92
     71.5700	 1274.00	 1257.64	-1754.89	  407.04
     71.6700	 1437.00	 1453.09	-1787.34	  407.16
     71.7700	 1504.00	 1648.69	-1915.94	  407.29
     71.8700	 1749.00	 1819.23	-1841.48	  407.41
     71.9700	 1905.00	 1935.64	-1801.89	  407.53
     72.0700	 1916.00	 1973.11	-1828.36	  407.65
     72.1700	 1942.00	 1922.69	-1751.94	  407.77
     72.2700	 1821.00	 1796.22	-1746.47	  407.89
     72.3700	 1732.00	 1620.87	-1660.12	  408.01
     72.4700	 1546.00	 1424.98	-1650.23	  408.13
     72.5700	 1359.00	 1232.63	-1644.88	  408.24
     72.6700	 1236.00	 1060.51	-1595.76	  408.36
     72.7700	 1080.00	  917.79	-1609.04	  408.47
     72.8700	  953.00	  806.96	-1625.21	  408.59
     72.9700	  860.00	  725.70	-1636.95	  408.70
     73.0700	  802.00	  668.98	-1638.23	  408.81
     73.1700	  761.00	  630.88	-1641.13	  408.92
     73.2700	  686.00	  605.91	-1691.16	  409.03
     73.3700	  721.00	  589.70	-1639.95	  409.14
     73.4700	  630.00	  579.10	-1720.35	  409.25
     73.5700	  647.00	  572.04	-1696.29	  409.36
     73.6700	  601.00	  567.26	-1737.51	  409.47
     73.7700	  576.00	  564.06	-1759.31	  409.57
     73.8700	  601.00	  562.01	-1732.26	  409.68
     73.9700	  636.00	  560.88	-1696.13	  409.78
     74.0700	  605.00	  560.50	-1726.75	  409.89
     74.1700	  616.00	  560.72	-1715.97	  409.99
     74.2700	  616.00	  561.35	-1716.60	  410.09
     74.3700	  643.00	  562.15	-1690.40	  410.19
     74.4700	  605.00	  562.83	-1729.08	  410.29
     74.5700	  646.00	  563.12	-1688.37	  410.39
     74.6700	  622.00	  562.77	-1712.02	  410.48
     74.7700	  644.00	  561.72	-1688.97	  410.58
     74.8700	  623.00	  560.10	-1708.35	  410.67
     74.9700	  596.00	  558.13	-1733.38	  410.77
     75.0700	  597.00	  556.22	-1730.47	  410.86
     75.1700	  615.00	  554.67	-1710.92	  410.95
     75.2700	  578.00	  553.83	-1747.08	  411.04
     75.3700	  562.00	  554.01	-1763.26	  411.13
     75.4700	  572.00	  555.75	-1755.00	  411.22
     75.5700	  581.00	  559.47	-1749.72	  411.31
     75.6700	  559.00	  565.59	-1777.84	  411.39
     75.7700	  559.00	  574.81	-1787.06	  411.48
     75.8700	  577.00	  587.35	-1781.60	  411.56
     75.9700	  617.00	  603.26	-1757.51	  411.65
     76.0700	  600.00	  622.09	-1793.34	  411.73
     76.1700	  600.00	  642.80	-1814.05	  411.81
     76.2700	  689.00	  663.70	-1745.95	  411.89
     76.3700	  676.00	  682.50	-1777.75	  411.97
     76.4700	  708.00	  696.56	-1759.81	  412.04
     76.5700	  642.00	  703.40	-1832.65	  412.12
     76.6700	  751.00	  701.62	-1721.87	  412.19
     76.7700	  681.00	  691.55	-1781.80	  412.27
     76.8700	  623.00	  675.14	-1823.39	  412.34
     76.9700	  668.00	  654.84	-1758.09	  412.41
     77.0700	  645.00	  633.54	-1759.79	  412.48
     77.1700	  587.00	  613.13	-1797.38	  412.55
     77.2700	  532.00	  595.01	-1834.26	  412.62
     77.3700	  572.00	  579.97	-1779.22	  412.68
     77.4700	  567.00	  568.20	-1772.45	  412.75
     77.5700	  476.00	  559.48	-1854.73	  412.81
     77.6700	  542.00	  553.32	-1782.57	  412.87
     77.7700	  542.00	  549.17	-1778.42	  412.94
     77.8700	  537.00	  546.46	-1780.71	  413.00
     77.9700	  504.00	  544.74	-1811.99	  413.05
     78.0700	  575.00	  543.67	-1739.92	  413.11
     78.1700	  550.00	  543.01	-1764.26	  413.17
     78.2700	  546.00	  542.60	-1767.85	  413.22
     78.3700	  488.00	  542.36	-1825.61	  413.27
     78.4700	  598.00	  542.23	-1715.48	  413.33
     78.5700	  546.00	  542.20	-1767.45	  413.38
     78.6700	  493.00	  542.25	-1820.50	  413.43
     78.7700	  534.00	  542.40	-1779.65	  413.47
     78.8700	  513.00	  542.66	-1800.91	  413.52
     78.9700	  487.00	  543.08	-1827.33	  413.57
     79.0700	  515.00	  543.68	-1799.93	  413.61
     79.1700	  541.00	  544.52	-1774.77	  413.65
     79.2700	  524.00	  545.50	-1792.75	  413.69
     79.3700	  522.00	  547.02	-1796.27	  413.73
     79.4700	  534.00	  548.99	-1786.24	  413.77
     79.5700	  507.00	  551.48	-1815.73	  413.81
     79.6700	  544.00	  554.57	-1781.82	  413.84
     79.7700	  516.00	  558.36	-1813.61	  413.88
     79.8700	  574.00	  562.99	-1760.24	  413.91
     79.9700	  542.00	  568.60	-1797.85	  413.94
     80.0700	  572.00	  575.42	-1774.67	  413.97
     80.1700	  565.00	  583.69	-1789.94	  414.00
     80.2700	  572.00	  593.71	-1792.96	  414.03
     80.3700	  556.00	  605.71	-1820.96	  414.05
     80.4700	  607.00	  619.81	-1784.06	  414.08
     80.5700	  585.00	  635.82	-1822.07	  414.10
     80.6700	  576.00	  653.26	-1848.51	  414.12
     80.7700	  648.00	  671.25	-1794.50	  414.14
     80.8700	  666.00	  688.57	-1793.82	  414.16
     80.9700	  682.00	  703.83	-1793.08	  414.17
     81.0700	  664.00	  715.76	-1823.01	  414.19
     81.1700	  709.00	  723.40	-1785.65	  414.20
     81.2700	  767.00	  726.21	-1730.46	  414.21
     81.3700	  754.00	  724.05	-1741.30	  414.22
     81.4700	  807.00	  717.21	-1681.46	  414.23
     81.5700	  742.00	  706.41	-1735.66	  414.24
     81.6700	  713.00	  692.54	-1750.79	  414.25
     81.7700	  723.00	  676.59	-1724.84	  414.25
     81.8700	  702.00	  659.48	-1728.73	  414.25
     81.9700	  704.00	  642.31	-1709.56	  414.26
     82.0700	  667.00	  625.89	-1730.14	  414.26
     82.1700	  660.00	  610.89	-1722.14	  414.25
     82.2700	  668.00	  597.69	-1700.94	  414.25
     82.3700	  615.00	  586.48	-1742.73	  414.25
     82.4700	  631.00	  577.27	-1717.52	  414.24
     82.5700	  632.00	  569.97	-1709.22	  414.23
     82.6700	  583.00	  564.51	-1752.76	  414.22
     82.7700	  575.00	  560.74	-1756.99	  414.21
     82.8700	  574.00	  558.52	-1755.77	  414.20
     82.9700	  519.00	  557.76	-1810.01	  414.18
     83.0700	  584.00	  558.37	-1745.62	  414.17
     83.1700	  545.00	  560.27	-1786.52	  414.15
     83.2700	  563.00	  563.35	-1771.60	  414.13
     83.3700	  558.00	  567.47	-1780.72	  414.11
     83.4700	  547.00	  572.40	-1796.65	  414.09
     83.5700	  525.00	  577.81	-1824.06	  414.07
     83.6700	  565.00	  583.28	-1789.53	  414.04
     83.7700	  583.00	  588.28	-1776.53	  414.01
     83.8700	  567.00	  592.23	-1796.48	  413.99
     83.9700	  601.00	  594.57	-1764.82	  413.96
     84.0700	  592.00	  594.90	-1774.15	  413.92
     84.1700	  553.00	  593.11	-1811.36	  413.89
     84.2700	  589.00	  589.47	-1771.72	  413.86
     84.3700	  576.00	  584.46	-1779.71	  413.82
     84.4700	  591.00	  578.65	-1758.90	  413.78
     84.5700	  542.00	  572.57	-1801.82	  413.74
     84.6700	  555.00	  566.65	-1782.90	  413.70
     84.7700	  547.00	  561.22	-1785.47	  413.66
     84.8700	  523.00	  556.48	-1804.73	  413.61
     84.9700	  525.00	  552.54	-1798.79	  413.56
     85.0700	  574.00	  549.40	-1746.65	  413.52
     85.1700	  532.00	  547.02	-1786.27	  413.47
     85.2700	  475.00	  545.31	-1841.56	  413.42
     85.3700	  527.00	  544.16	-1788.41	  413.36
     85.4700	  507.00	  543.47	-1807.72	  413.31
     85.5700	  493.00	  543.16	-1821.41	  413.25
     85.6700	  487.00	  543.16	-1827.41	  413.19
     85.7700	  497.00	  543.44	-1817.69	  413.13
     85.8700	  502.00	  544.01	-1813.26	  413.07
     85.9700	  490.00	  544.90	-1826.15	  413.01
     86.0700	  514.00	  546.18	-1803.43	  412.95
     86.1700	  535.00	  547.95	-1784.20	  412.88
     86.2700	  543.00	  550.34	-1778.59	  412.81
     86.3700	  551.00	  553.50	-1773.75	  412.74
     86.4700	  548.00	  557.57	-1780.82	  412.67
     86.5700	  539.00	  562.69	-1794.94	  412.60
     86.6700	  573.00	  568.91	-1767.16	  412.52
     86.7700	  520.00	  575.92	-1827.17	  412.45
     86.8700	  592.00	  584.09	-1763.34	  412.37
     86.9700	  636.00	  592.81	-1728.06	  412.29
     87.0700	  641.00	  601.55	-1731.80	  412.21
     87.1700	  630.00	  609.69	-1750.94	  412.12
     87.2700	  636.00	  616.47	-1751.72	  412.04
     87.3700	  625.00	  621.14	-1767.39	  411.95
     87.4700	  665.00	  623.13	-1729.38	  411.87
     87.5700	  660.00	  622.16	-1733.41	  411.78
     87.6700	  651.00	  618.42	-1738.68	  411.68
     87.7700	  609.00	  612.49	-1774.74	  411.59
     87.8700	  655.00	  605.13	-1721.38	  411.50
     87.9700	  654.00	  597.21	-1714.46	  411.40
     88.0700	  610.00	  589.51	-1750.76	  411.30
     88.1700	  560.00	  582.70	-1793.95	  411.20
     88.2700	  592.00	  577.32	-1756.57	  411.10
     88.3700	  585.00	  573.72	-1759.97	  411.00
     88.4700	  555.00	  572.10	-1788.35	  410.89
     88.5700	  552.00	  572.48	-1791.73	  410.79
     88.6700	  593.00	  574.70	-1752.95	  410.68
     88.7700	  571.00	  578.49	-1778.74	  410.57
     88.8700	  627.00	  583.47	-1727.72	  410.46
     88.9700	  636.00	  589.12	-1724.37	  410.35
     89.0700	  595.00	  594.88	-1771.13	  410.23
     89.1700	  598.00	  600.13	-1773.38	  410.11
     89.2700	  607.00	  604.23	-1768.48	  410.00
     89.3700	  588.00	  606.61	-1789.86	  409.88
     89.4700	  651.00	  606.91	-1727.16	  409.76
     89.5700	  603.00	  605.03	-1773.28	  409.63
     89.6700	  579.00	  601.19	-1793.44	  409.51
     89.7700	  587.00	  595.84	-1780.09	  409.38
     89.8700	  572.00	  589.49	-1788.74	  409.25
     89.9700	  539.00	  582.69	-1814.94	  409.12
     90.0700	  564.00	  575.89	-1783.14	  408.99
     90.1700	  538.00	  569.46	-1802.71	  408.86
     90.2700	  514.00	  563.66	-1820.91	  408.73
     90.3700	  482.00	  558.65	-1847.90	  408.59
     90.4700	  553.00	  554.50	-1772.75	  408.45
     90.5700	  536.00	  551.21	-1786.46	  408.31
     90.6700	  526.00	  548.72	-1793.97	  408.17
     90.7700	  547.00	  546.93	-1771.18	  408.03
     90.8700	  500.00	  545.74	-1816.99	  407.89
     90.9700	  526.00	  545.06	-1790.31	  407.74
     91.0700	  521.00	  544.81	-1795.06	  407.59
     91.1700	  509.00	  544.95	-1807.20	  407.44
     91.2700	  497.00	  545.47	-1819.72	  407.29
     91.3700	  522.00	  546.40	-1795.65	  407.14
     91.4700	  513.00	  547.82	-1806.07	  406.99
     91.5700	  526.00	  549.84	-1795.09	  406.83
     91.6700	  526.00	  552.61	-1797.86	  406.68
     91.7700	  536.00	  556.32	-1791.57	  406.52
     91.8700	  520.00	  560.96	-1812.21	  406.36
     91.9700	  577.00	  567.13	-1761.39	  406.20
     92.0700	  549.00	  574.83	-1797.08	  406.03
     92.1700	  541.00	  584.16	-1814.41	  405.87
     92.2700	  580.00	  595.20	-1786.45	  405.70
     92.3700	  600.00	  607.89	-1779.14	  405.53
     92.4700	  622.00	  622.07	-1771.32	  405.36
     92.5700	  673.00	  637.46	-1735.71	  405.19
     92.6700	  694.00	  653.62	-1730.87	  405.02
     92.7700	  704.00	  670.01	-1737.26	  404.85
     92.8700	  705.00	  686.00	-1752.25	  404.67
     92.9700	  776.00	  700.94	-1696.19	  404.49
     93.0700	  782.00	  714.26	-1703.51	  404.31
     93.1700	  797.00	  725.67	-1699.92	  404.13
     93.2700	  779.00	  735.26	-1727.51	  403.95
     93.3700	  832.00	  743.46	-1682.71	  403.77
     93.4700	  820.00	  750.88	-1702.13	  403.59
     93.5700	  803.00	  758.23	-1726.48	  403.40
     93.6700	  841.00	  766.12	-1696.37	  403.21
     93.7700	  868.00	  775.09	-1678.34	  403.02
     93.8700	  841.00	  785.58	-1715.83	  402.83
     93.9700	  811.00	  797.97	-1758.22	  402.64
     94.0700	  847.00	  812.54	-1736.79	  402.45
     94.1700	  853.00	  829.34	-1747.59	  402.25
     94.2700	  897.00	  848.05	-1722.30	  402.06
     94.3700	  871.00	  867.96	-1768.21	  401.86
     94.4700	  874.00	  887.89	-1785.14	  401.66
     94.5700	  947.00	  906.26	-1730.51	  401.46
     94.6700	  954.00	  921.18	-1738.43	  401.26
     94.7700	  904.00	  930.70	-1797.95	  401.05
     94.8700	  892.00	  933.18	-1812.43	  400.85
     94.9700	  903.00	  927.66	-1795.91	  400.64
     95.0700	  895.00	  914.21	-1790.46	  400.44
     95.1700	  856.00	  893.84	-1809.09	  400.23
     95.2700	  892.00	  868.27	-1747.52	  400.02
     95.3700	  813.00	  839.55	-1797.80	  399.81
     95.4700	  801.00	  809.79	-1780.04	  399.59
     95.5700	  729.00	  780.96	-1823.21	  399.38
     95.6700	  769.00	  754.92	-1757.17	  399.16
     95.7700	  729.00	  733.30	-1775.55	  398.95
     95.8700	  695.00	  717.59	-1793.84	  398.73
     95.9700	  703.00	  709.08	-1777.33	  398.51
     96.0700	  693.00	  708.88	-1787.13	  398.29
     96.1700	  695.00	  717.97	-1794.22	  398.07
     96.2700	  735.00	  737.11	-1773.36	  397.84
     96.3700	  715.00	  766.79	-1823.04	  397.62
     96.4700	  758.00	  807.20	-1820.45	  397.39
     96.5700	  826.00	  858.04	-1803.29	  397.17
     96.6700	  860.00	  918.53	-1829.78	  396.94
     96.7700	  998.00	  987.23	-1760.48	  396.71
     96.8700	 1064.00	 1061.96	-1769.21	  396.48
     96.9700	 1114.00	 1139.85	-1797.10	  396.25
     97.0700	 1179.00	 1217.31	-1809.56	  396.01
     97.1700	 1330.00	 1290.16	-1731.41	  395.78
     97.2700	 1404.00	 1353.86	-1721.11	  395.55
     97.3700	 1366.00	 1403.80	-1809.05	  395.31
     97.4700	 1450.00	 1435.97	-1757.22	  395.07
     97.5700	 1422.00	 1447.68	-1796.93	  394.83
     97.6700	 1308.00	 1438.18	-1901.43	  394.59
     97.7700	 1390.00	 1408.80	-1790.05	  394.35
     97.8700	 1334.00	 1362.57	-1799.82	  394.11
     97.9700	 1329.00	 1303.57	-1745.82	  393.87
     98.0700	 1187.00	 1236.27	-1820.52	  393.62
     98.1700	 1157.00	 1165.03	-1779.28	  393.38
     98.2700	 1109.00	 1093.88	-1756.13	  393.13
     98.3700	 1060.00	 1026.36	-1737.61	  392.89
     98.4700	 1010.00	  965.40	-1726.65	  392.64
     98.5700	  911.00	  913.37	-1773.62	  392.39
     98.6700	  848.00	  872.07	-1795.32	  392.14
     98.7700	  822.00	  842.83	-1792.08	  391.89
     98.8700	  758.00	  826.60	-1839.85	  391.64
     98.9700	  778.00	  824.02	-1817.27	  391.38
     99.0700	  826.00	  835.50	-1780.75	  391.13
     99.1700	  807.00	  861.24	-1825.49	  390.88
     99.2700	  819.00	  901.23	-1853.48	  390.62
     99.3700	  936.00	  955.28	-1790.53	  390.36
     99.4700	  967.00	 1022.86	-1827.11	  390.11
     99.5700	 1120.00	 1103.12	-1754.37	  389.85
     99.6700	 1200.00	 1194.74	-1765.99	  389.59
     99.7700	 1240.00	 1295.79	-1827.04	  389.33
     99.8700	 1405.00	 1403.71	-1769.96	  389.07
     99.9700	 1499.00	 1515.17	-1787.42	  388.81
    100.0700	 1684.00	 1626.26	-1713.51	  388.54
    100.1700	 1711.00	 1732.50	-1792.75	  388.28
    100.2700	 1868.00	 1829.33	-1732.58	  388.02
    100.3700	 2050.00	 1912.64	-1633.89	  387.75
    100.4700	 2022.00	 1979.09	-1728.34	  387.49
    100.5700	 2092.00	 2026.42	-1705.67	  387.22
    100.6700	 2136.00	 2053.13	-1688.38	  386.96
    100.7700	 2032.00	 2058.38	-1797.63	  386.69
    100.8700	 2109.00	 2041.93	-1704.18	  386.42
    100.9700	 2022.00	 2004.28	-1753.53	  386.15
    101.0700	 1879.00	 1947.08	-1839.33	  385.88
    101.1700	 1909.00	 1873.35	-1735.60	  385.61
    101.2700	 1794.00	 1787.35	-1764.60	  385.34
    101.3700	 1618.00	 1694.09	-1847.34	  385.07
    101.4700	 1581.00	 1598.69	-1788.94	  384.80
    101.5700	 1502.00	 1505.81	-1775.06	  384.53
    101.6700	 1462.00	 1419.34	-1728.59	  384.26
    101.7700	 1402.00	 1342.20	-1711.45	  383.98
    101.8700	 1379.00	 1276.15	-1668.40	  383.71
    101.9700	 1193.00	 1221.89	-1800.14	  383.43
    102.0700	 1221.00	 1179.02	-1729.27	  383.16
    102.1700	 1229.00	 1146.29	-1688.54	  382.89
    102.2700	 1078.00	 1121.64	-1814.89	  382.61
    102.3700	 1141.00	 1102.47	-1732.72	  382.33
    102.4700	 1068.00	 1085.96	-1789.21	  382.06
    102.5700	 1004.00	 1069.35	-1836.60	  381.78
    102.6700	 1016.00	 1050.34	-1805.59	  381.51
    102.7700	 1010.00	 1027.40	-1788.65	  381.23
    102.8700	 1036.00	  999.83	-1735.08	  380.95
    102.9700	  939.00	  967.77	-1800.02	  380.67
    103.0700	  934.00	  931.99	-1769.24	  380.40
    103.1700	  954.00	  893.60	-1710.85	  380.12
    103.2700	  881.00	  853.88	-1744.13	  379.84
    103.3700	  781.00	  814.10	-1804.35	  379.56
    103.4700	  775.00	  775.45	-1771.70	  379.28
    103.5700	  756.00	  738.93	-1754.18	  379.00
    103.6700	  702.00	  705.32	-1774.57	  378.72
    103.7700	  665.00	  675.16	-1781.41	  378.45
    103.8700	  671.00	  648.79	-1749.04	  378.17
    103.9700	  642.00	  626.28	-1755.53	  377.89
    104.0700	  600.00	  607.56	-1778.81	  377.61
    104.1700	  556.00	  592.39	-1807.64	  377.33
    104.2700	  554.00	  580.44	-1797.69	  377.05
    104.3700	  568.00	  571.35	-1774.60	  376.77
    104.4700	  630.00	  564.69	-1705.94	  376.49
    104.5700	  553.00	  560.09	-1778.34	  376.21
    104.6700	  553.00	  557.18	-1775.43	  375.93
    104.7700	  538.00	  555.62	-1788.87	  375.65
    104.8700	  564.00	  555.14	-1762.39	  375.37
    104.9700	  563.00	  555.50	-1763.75	  375.10
    105.0700	  514.00	  556.51	-1813.76	  374.82
    105.1700	  547.00	  558.03	-1782.28	  374.54
    105.2700	  550.00	  559.96	-1781.21	  374.26
    105.3700	  516.00	  562.20	-1817.45	  373.98
    105.4700	  530.00	  564.77	-1806.02	  373.71
    105.5700	  557.00	  567.68	-1781.93	  373.43
    105.6700	  564.00	  570.98	-1778.23	  373.15
    105.7700	  544.00	  574.77	-1802.02	  372.87
    105.8700	  546.00	  579.18	-1804.43	  372.60
    105.9700	  607.00	  584.30	-1748.55	  372.32
    106.0700	  591.00	  590.25	-1770.50	  372.05
    106.1700	  584.00	  597.07	-1784.32	  371.77
    106.2700	  557.00	  604.76	-1819.01	  371.50
    106.3700	  611.00	  613.26	-1773.51	  371.22
    106.4700	  602.00	  622.44	-1791.69	  370.95
    106.5700	  614.00	  632.07	-1789.32	  370.68
    106.6700	  622.00	  641.89	-1791.14	  370.40
    106.7700	  587.00	  651.56	-1835.81	  370.13
    106.8700	  624.00	  660.71	-1807.96	  369.86
    106.9700	  660.00	  668.96	-1780.21	  369.59
    107.0700	  660.00	  675.92	-1787.17	  369.32
    107.1700	  686.00	  681.32	-1766.57	  369.05
    107.2700	  647.00	  684.97	-1809.22	  368.78
    107.3700	  702.00	  686.88	-1756.13	  368.52
    107.4700	  688.00	  687.21	-1770.46	  368.25
    107.5700	  688.00	  686.30	-1769.55	  367.98
    107.6700	  692.00	  684.55	-1763.80	  367.72
    107.7700	  721.00	  682.44	-1732.69	  367.45
    107.8700	  687.00	  680.38	-1764.63	  367.19
    107.9700	  623.00	  678.74	-1826.99	  366.93
    108.0700	  736.00	  677.79	-1713.04	  366.66
    108.1700	  677.00	  677.67	-1771.92	  366.40
    108.2700	  718.00	  678.40	-1731.65	  366.14
    108.3700	  704.00	  679.88	-1747.13	  365.89
    108.4700	  688.00	  681.89	-1765.14	  365.63
    108.5700	  710.00	  684.11	-1745.36	  365.37
    108.6700	  677.00	  686.13	-1780.38	  365.12
    108.7700	  691.00	  687.51	-1767.76	  364.86
    108.8700	  710.00	  687.82	-1749.07	  364.61
    108.9700	  636.00	  686.67	-1821.92	  364.36
    109.0700	  659.00	  683.83	-1796.08	  364.11
    109.1700	  718.00	  679.15	-1732.40	  363.86
    109.2700	  680.00	  672.70	-1763.95	  363.61
    109.3700	  651.00	  664.65	-1784.90	  363.36
    109.4700	  627.00	  655.30	-1799.55	  363.12
    109.5700	  646.00	  645.00	-1770.25	  362.87
    109.6700	  639.00	  634.12	-1766.37	  362.63
    109.7700	  606.00	  623.02	-1788.27	  362.39
    109.8700	  605.00	  612.06	-1778.31	  362.15
    109.9700	  578.00	  601.53	-1794.78	  361.91
    110.0700	  609.00	  591.69	-1753.94	  361.68
    110.1700	  582.00	  582.72	-1771.97	  361.44
    110.2700	  581.00	  574.75	-1765.00	  361.21
    110.3700	  552.00	  567.87	-1787.12	  360.98
    110.4700	  560.00	  562.09	-1773.34	  360.75
    110.5700	  539.00	  557.40	-1789.65	  360.52
    110.6700	  556.00	  553.73	-1768.98	  360.29
    110.7700	  554.00	  551.01	-1768.26	  360.07
    110.8700	  519.00	  549.15	-1801.40	  359.84
    110.9700	  560.00	  548.04	-1759.29	  359.62
    111.0700	  524.00	  547.58	-1794.83	  359.40
    111.1700	  532.00	  547.68	-1786.93	  359.19
    111.2700	  543.00	  548.25	-1776.50	  358.97
    111.3700	  583.00	  549.23	-1737.48	  358.76
    111.4700	  547.00	  550.55	-1774.80	  358.55
    111.5700	  579.00	  552.16	-1744.41	  358.34
    111.6700	  566.00	  554.03	-1759.28	  358.13
    111.7700	  589.00	  556.13	-1738.38	  357.92
    111.8700	  551.00	  558.45	-1778.70	  357.72
    111.9700	  524.00	  560.98	-1808.23	  357.52
    112.0700	  548.00	  563.73	-1786.98	  357.32
    112.1700	  543.00	  566.71	-1794.96	  357.13
    112.2700	  559.00	  569.93	-1782.18	  356.93
    112.3700	  548.00	  573.44	-1796.69	  356.74
    112.4700	  591.00	  577.26	-1757.51	  356.55
    112.5700	  607.00	  581.46	-1745.71	  356.36
    112.6700	  624.00	  586.10	-1733.35	  356.18
    112.7700	  666.00	  591.26	-1696.51	  356.00
    112.8700	  687.00	  597.07	-1681.32	  355.82
    112.9700	  659.00	  603.66	-1715.91	  355.64
    113.0700	  663.00	  611.25	-1719.50	  355.47
    113.1700	  762.00	  620.07	-1629.32	  355.30
    113.2700	  747.00	  630.46	-1654.71	  355.13
    113.3700	  741.00	  642.82	-1673.07	  354.96
    113.4700	  784.00	  657.67	-1644.92	  354.80
    113.5700	  843.00	  675.66	-1603.91	  354.64
    113.6700	  935.00	  697.60	-1533.85	  354.48
    113.7700	  888.00	  724.44	-1607.69	  354.32
    113.8700	  941.00	  757.35	-1587.60	  354.17
    113.9700	 1050.00	  797.70	-1518.95	  354.02
    114.0700	 1053.00	  847.08	-1565.33	  353.88
    114.1700	 1144.00	  907.28	-1534.53	  353.73
    114.2700	 1138.00	  980.27	-1613.52	  353.59
    114.3700	 1184.00	 1068.23	-1655.48	  353.46
    114.4700	 1355.00	 1173.39	-1589.64	  353.32
    114.5700	 1502.00	 1298.10	-1567.35	  353.19
    114.6700	 1627.00	 1444.59	-1588.84	  353.07
    114.7700	 1800.00	 1614.93	-1586.18	  352.94
    114.8700	 2019.00	 1810.97	-1563.22	  352.82
    114.9700	 2122.00	 2033.99	-1683.24	  352.70
    115.0700	 2317.00	 2284.81	-1739.06	  352.59
    115.1700	 2572.00	 2563.41	-1762.66	  352.48
    115.2700	 2837.00	 2868.85	-1803.10	  352.37
    115.3700	 3248.00	 3199.31	-1722.56	  352.27
    115.4700	 3339.00	 3551.69	-1983.94	  352.17
    115.5700	 3792.00	 3921.88	-1901.13	  352.07
    115.6700	 4098.00	 4304.42	-1977.67	  351.98
    115.7700	 4405.00	 4692.64	-2058.89	  351.89
    115.8700	 4715.00	 5078.86	-2135.11	  351.81
    115.9700	 5256.00	 5454.09	-1969.34	  351.73
    116.0700	 5558.00	 5808.68	-2021.93	  351.65
    116.1700	 5892.00	 6132.08	-2011.33	  351.57
    116.2700	 6186.00	 6413.55	-1998.80	  351.50
    116.3700	 6510.00	 6642.75	-1904.00	  351.44
    116.4700	 6666.00	 6810.30	-1915.55	  351.38
    116.5700	 6952.00	 6908.97	-1728.22	  351.32
    116.6700	 7085.00	 6934.29	-1620.54	  351.27
    116.7700	 7017.00	 6885.25	-1639.50	  351.22
    116.8700	 7067.00	 6764.42	-1468.67	  351.17
    116.9700	 6578.00	 6577.64	-1770.89	  351.13
    117.0700	 6545.00	 6333.11	-1559.36	  351.09
    117.1700	 6084.00	 6040.74	-1727.99	  351.06
    117.2700	 5738.00	 5711.14	-1744.39	  351.03
    117.3700	 5294.00	 5354.81	-1832.06	  351.01
    117.4700	 5045.00	 4981.96	-1708.21	  350.99
    117.5700	 4583.00	 4601.76	-1790.01	  350.97
    117.6700	 4329.00	 4222.53	-1664.78	  350.96
    117.7700	 4083.00	 3851.45	-1539.70	  350.96
    117.8700	 3723.00	 3494.34	-1542.59	  350.96
    117.9700	 3302.00	 3156.00	-1625.25	  350.96
    118.0700	 2981.00	 2839.87	-1630.12	  350.97
    118.1700	 2546.00	 2548.38	-1773.63	  350.98
    118.2700	 2227.00	 2282.95	-1827.20	  351.00
    118.3700	 1891.00	 2043.97	-1924.22	  351.02
    118.4700	 1738.00	 1831.20	-1864.45	  351.05
    118.5700	 1506.00	 1643.66	-1908.91	  351.09
    118.6700	 1376.00	 1479.96	-1875.21	  351.12
    118.7700	 1251.00	 1338.35	-1858.60	  351.17
    118.8700	 1137.00	 1216.81	-1851.06	  351.22
    118.9700	 1001.00	 1113.28	-1883.53	  351.27
    119.0700	  917.00	 1025.62	-1879.87	  351.33
    119.1700	  881.00	  951.81	-1842.06	  351.39
    119.2700	  836.00	  889.93	-1825.18	  351.46
    119.3700	  757.00	  838.22	-1852.47	  351.54
    119.4700	  717.00	  795.10	-1849.35	  351.62
    119.5700	  712.00	  759.19	-1818.44	  351.70
    119.6700	  610.00	  729.28	-1890.53	  351.79
    119.7700	  638.00	  704.38	-1837.63	  351.89
    119.8700	  608.00	  683.60	-1846.85	  351.99
    119.9700	  613.00	  666.25	-1824.50	  352.10
    120.0700	  544.00	  651.74	-1878.99	  352.22
    120.1700	  622.00	  639.59	-1788.84	  352.34
    120.2700	  599.00	  629.41	-1801.66	  352.46
    120.3700	  587.00	  620.90	-1805.15	  352.59
    120.4700	  561.00	  613.80	-1824.05	  352.73
    120.5700	  618.00	  607.93	-1761.18	  352.87
    120.6700	  580.00	  603.13	-1794.38	  353.02
    120.7700	  523.00	  599.28	-1847.53	  353.18
    120.8700	  557.00	  596.27	-1810.52	  353.34
    120.9700	  555.00	  594.05	-1810.30	  353.51
    121.0700	  592.00	  592.55	-1771.80	  353.69
    121.1700	  553.00	  591.71	-1809.96	  353.87
    121.2700	  570.00	  591.50	-1792.75	  354.05
    121.3700	  584.00	  591.87	-1779.12	  354.25
    121.4700	  579.00	  592.78	-1785.03	  354.45
    121.5700	  549.00	  594.18	-1816.43	  354.66
    121.6700	  624.00	  596.01	-1743.26	  354.87
    121.7700	  574.00	  598.21	-1795.46	  355.09
    121.8700	  581.00	  600.73	-1790.98	  355.32
    121.9700	  631.00	  603.49	-1743.74	  355.55
    122.0700	  592.00	  606.39	-1785.64	  355.79
    122.1700	  591.00	  609.36	-1789.61	  356.04
    122.2700	  621.00	  612.28	-1762.53	  356.29
    122.3700	  623.00	  615.07	-1763.32	  356.56
    122.4700	  622.00	  617.62	-1766.87	  356.83
    122.5700	  620.00	  619.83	-1771.08	  357.10
    122.6700	  631.00	  621.61	-1761.86	  357.39
    122.7700	  640.00	  622.89	-1754.14	  357.68
    122.8700	  670.00	  623.62	-1724.87	  357.97
    122.9700	  593.00	  623.76	-1802.01	  358.28
    123.0700	  665.00	  623.31	-1729.56	  358.59
    123.1700	  627.00	  622.28	-1766.53	  358.91
    123.2700	  639.00	  620.72	-1752.97	  359.24
    123.3700	  646.00	  618.68	-1743.93	  359.58
    123.4700	  650.00	  616.22	-1737.47	  359.92
    123.5700	  661.00	  613.42	-1723.67	  360.27
    123.6700	  634.00	  610.33	-1747.58	  360.63
    123.7700	  637.00	  607.04	-1741.29	  361.00
    123.8700	  633.00	  603.61	-1741.86	  361.37
    123.9700	  634.00	  600.11	-1737.36	  361.75
    124.0700	  591.00	  596.59	-1776.84	  362.14
    124.1700	  623.00	  593.12	-1741.37	  362.54
    124.2700	  605.00	  589.73	-1755.98	  362.95
    124.3700	  557.00	  586.46	-1800.71	  363.37
    124.4700	  620.00	  583.34	-1734.59	  363.79
    124.5700	  621.00	  580.40	-1730.65	  364.22
    124.6700	  579.00	  577.65	-1769.90	  364.66
    124.7700	  582.00	  575.11	-1764.36	  365.11
    124.8700	  565.00	  572.79	-1779.04	  365.57
    124.9700	  563.00	  483.02	-1691.27	  366.03
    125.0700	  600.00	  483.50	-1771.25	  366.51
    125.1700	  584.00	  483.98	-1771.25	  366.99
    125.2700	  547.00	  484.47	-1771.25	  367.49
    125.3700	  558.00	  484.97	-1771.25	  367.99
    125.4700	  547.00	  485.48	-1771.25	  368.50
    125.5700	  569.00	  486.00	-1771.25	  369.02
    125.6700	  640.00	  486.53	-1771.25	  369.55
    125.7700	  573.00	  487.07	-1771.25	  370.08
    125.8700	  588.00	  487.62	-1771.25	  370.63
    125.9700	  584.00	  488.17	-1771.25	  371.19
    126.0700	  566.00	  488.74	-1771.25	  371.75
    126.1700	  573.00	  489.31	-1771.25	  372.33
    126.2700	  611.00	  489.90	-1771.25	  372.91
    126.3700	  590.00	  490.49	-1771.25	  373.51
    126.4700	  632.00	  491.10	-1771.25	  374.11
    126.5700	  594.00	  491.71	-1771.25	  374.72
    126.6700	  622.00	  492.33	-1771.25	  375.35
    126.7700	  613.00	  492.97	-1771.25	  375.98
    126.8700	  624.00	  493.61	-1771.25	  376.62
    126.9700	  643.00	  494.26	-1771.25	  377.28
    127.0700	  649.00	  494.93	-1771.25	  377.94
    127.1700	  690.00	  495.60	-1771.25	  378.61
    127.2700	  603.00	  496.28	-1771.25	  379.30
    127.3700	  660.00	  496.98	-1771.25	  379.99
    127.4700	  656.00	  497.68	-1771.25	  380.69
    127.5700	  661.00	  498.39	-1771.25	  381.41
    127.6700	  706.00	  499.12	-1771.25	  382.13
    127.7700	  698.00	  499.86	-1771.25	  382.87
    127.8700	  717.00	  500.60	-1771.25	  383.62
    127.9700	  770.00	  501.36	-1771.25	  384.37
    128.0700	  750.00	  502.13	-1771.25	  385.14
    128.1700	  751.00	  502.90	-1771.25	  385.92
    128.2700	  833.00	  503.69	-1771.25	  386.71
    128.3700	  789.00	  504.49	-1771.25	  387.51
    128.4700	  810.00	  505.31	-1771.25	  388.32
    128.5700	    0.00	  506.13	-1771.25	  389.14
    128.6700	    0.00	  506.96	-1771.25	  389.98
     12.3095	        	        	        	        	       0	(  0  0  2)	  0  1
     24.8933	        	        	        	        	       0	(  0  0  4)	  0  1
     28.3330	        	        	        	        	       0	(  1  0  0)	  0  1
     29.0303	        	        	        	        	       0	(  1  0  1)	  0  1
     31.0367	        	        	        	        	       0	(  1  0  2)	  0  1
     34.1454	        	        	        	        	       0	(  1  0  3)	  0  1
     37.7930	        	        	        	        	       0	(  0  0  6)	  0  1
     38.1228	        	        	        	        	       0	(  1  0  4)	  0  1
     42.7732	        	        	        	        	       0	(  1  0  5)	  0  1
     47.9576	        	        	        	        	       0	(  1  0  6)	  0  1
     50.2691	        	        	        	        	       0	(  1  1  0)	  0  1
     51.2151	        	        	        	        	       0	(  0  0  8)	  0  1
     51.9923	        	        	        	        	       0	(  1  1  2)	  0  1
     53.5883	        	        	        	        	       0	(  1  0  7)	  0  1
     56.9406	        	        	        	        	       0	(  1  1  4)	  0  1
     58.7657	        	        	        	        	       0	(  2  0  0)	  0  1
     59.1573	        	        	        	        	       0	(  2  0  1)	  0  1
     59.6190	        	        	        	        	       0	(  1  0  8)	  0  1
     60.3228	        	        	        	        	       0	(  2  0  2)	  0  1
     62.2362	        	        	        	        	       0	(  2  0  3)	  0  1
     64.6359	        	        	        	        	       0	(  1  1  6)	  0  1
     64.8606	        	        	        	        	       0	(  2  0  4)	  0  1
     65.4445	        	        	        	        	       0	(  0  0 10)	  0  1
     66.0356	        	        	        	        	       0	(  1  0  9)	  0  1
     68.1551	        	        	        	        	       0	(  2  0  5)	  0  1
     72.0828	        	        	        	        	       0	(  2  0  6)	  0  1
     72.8519	        	        	        	        	       0	(  1  0 10)	  0  1
     74.6742	        	        	        	        	       0	(  1  1  8)	  0  1
     76.6173	        	        	        	        	       0	(  2  0  7)	  0  1
     80.1097	        	        	        	        	       0	(  1  0 11)	  0  1
     80.9252	        	        	        	        	       0	(  0  0 12)	  0  1
     81.0058	        	        	        	        	       0	(  2  1  0)	  0  1
     81.3457	        	        	        	        	       0	(  2  1  1)	  0  1
     81.7478	        	        	        	        	       0	(  2  0  8)	  0  1
     82.3637	        	        	        	        	       0	(  2  1  2)	  0  1
     84.0551	        	        	        	        	       0	(  2  1  3)	  0  1
     86.4149	        	        	        	        	       0	(  2  1  4)	  0  1
     86.9462	        	        	        	        	       0	(  1  1 10)	  0  1
     87.4861	        	        	        	        	       0	(  2  0  9)	  0  1
     87.8842	        	        	        	        	       0	(  1  0 12)	  0  1
     89.4409	        	        	        	        	       0	(  2  1  5)	  0  1
     93.1385	        	        	        	        	       0	(  2  1  6)	  0  1
     93.8738	        	        	        	        	       0	(  2  0 10)	  0  1
     94.8939	        	        	        	        	       0	(  3  0  0)	  0  1
     95.2312	        	        	        	        	       0	(  3  0  1)	  0  1
     96.2445	        	        	        	        	       0	(  3  0  2)	  0  1
     96.2978	        	        	        	        	       0	(  1  0 13)	  0  1
     97.5273	        	        	        	        	       0	(  2  1  7)	  0  1
     97.9379	        	        	        	        	       0	(  3  0  3)	  0  1
     98.4650	        	        	        	        	       0	(  0  0 14)	  0  1
    100.3210	        	        	        	        	       0	(  3  0  4)	  0  1
    100.9960	        	        	        	        	       0	(  2  0 11)	  0  1
    101.8171	        	        	        	        	       0	(  1  1 12)	  0  1
    102.6499	        	        	        	        	       0	(  2  1  8)	  0  1
    103.4127	        	        	        	        	       0	(  3  0  5)	  0  1
    105.5508	        	        	        	        	       0	(  1  0 14)	  0  1
    107.2479	        	        	        	        	       0	(  3  0  6)	  0  1
    108.5870	        	        	        	        	       0	(  2  1  9)	  0  1
    109.0076	        	        	        	        	       0	(  2  0 12)	  0  1
    111.8884	        	        	        	        	       0	(  3  0  7)	  0  1
    115.4841	        	        	        	        	       0	(  2  1 10)	  0  1
    115.9949	        	        	        	        	       0	(  1  0 15)	  0  1
    116.6172	        	        	        	        	       0	(  2  2  0)	  0  1
    117.4419	        	        	        	        	       0	(  3  0  8)	  0  1
    118.1323	        	        	        	        	       0	(  2  2  2)	  0  1
    118.1925	        	        	        	        	       0	(  2  0 13)	  0  1
    119.9548	        	        	        	        	       0	(  0  0 16)	  0  1
    120.6625	        	        	        	        	       0	(  1  1 14)	  0  1
    122.8178	        	        	        	        	       0	(  2  2  4)	  0  1
    123.6115	        	        	        	        	       0	(  2  1 11)	  0  1
    124.1020	        	        	        	        	       0	(  3  0  9)	  0  1
    124.6815	        	        	        	        	       0	(  3  1  0)	  0  1
    125.0917	        	        	        	        	       0	(  3  1  1)	  0  1
    126.3351	        	        	        	        	       0	(  3  1  2)	  0  1
    128.3400	        	        	        	        	       0	(  1  0 16)	  0  1
    128.4533	        	        	        	        	       0	(  3  1  3)	  0  1
    129.1235	        	        	        	        	       0	(  2  0 14)	  0  1
    131.2575	        	        	        	        	       0	(  2  2  6)	  0  1
    131.5291	        	        	        	        	       0	(  3  1  4)	  0  1
    132.2430	        	        	        	        	       0	(  3  0 10)	  0  1
    133.5247	        	        	        	        	       0	(  2  1 12)	  0  1
    135.7159	        	        	        	        	       0	(  3  1  5)	  0  1
    141.3110	        	        	        	        	       0	(  3  1  6)	  0  1
    142.7229	        	        	        	        	       0	(  3  0 11)	  0  1
    143.2679	        	        	        	        	       0	(  2  0 15)	  0  1
    144.5168	        	        	        	        	       0	(  1  0 17)	  0  1
    145.4914	        	        	        	        	       0	(  2  2  8)	  0  1
    146.6837	        	        	        	        	       0	(  2  1 13)	  0  1
    148.9840	        	        	        	        	       0	(  3  1  7)	  0  1
    149.6094	        	        	        	        	       0	(  1  1 16)	  0  1
    154.0280	        	        	        	        	       0	(  0  0 18)	  0  1
    158.6091	        	        	        	        	       0	(  3  0 12)	  0  1
    158.8299	        	        	        	        	       0	(  4  0  0)	  0  1
    159.7863	        	        	        	        	       0	(  4  0  1)	  0  1
    160.9785	        	        	        	        	       0	(  3  1  8)	  0  1
    162.9632	        	        	        	        	       0	(  4  0  2)	  0  1
    169.7829	        	        	        	        	       0	(  2  0 16)	  0  1
    170.3018	        	        	        	        	       0	(  4  0  3)	  0  1
    174.2448	        	        	        	        	       0	(  2  1 14)	  0  1
