MSG Master    CELL:    5.90351   5.90351  23.18921   90.0000   90.0000  120.0000   SPGR: P 63/m m c             TEMP:    826.15
  1   1280     2.52000     0.00000    -0.12448     0.00000     0.00000    0
    98     0     2
       0.00000      10.00000
     125.00000     130.00000
 2Theta	Yobs	Ycal	Yobs-Ycal	Backg	Posr	(hkl)	K
      0.7700	    0.00	  461.23	-1762.75	  352.09
      0.8700	    0.00	  463.12	-1762.75	  353.99
      0.9700	   47.00	  465.00	-1762.75	  355.86
      1.0700	   47.00	  466.85	-1762.75	  357.72
      1.1700	   33.00	  468.68	-1762.75	  359.55
      1.2700	   49.00	  470.50	-1762.75	  361.37
      1.3700	   57.00	  472.29	-1762.75	  363.16
      1.4700	   87.00	  474.07	-1762.75	  364.94
      1.5700	  316.00	  475.83	-1762.75	  366.69
      1.6700	  496.00	  477.56	-1762.75	  368.43
      1.7700	  650.00	  479.28	-1762.75	  370.15
      1.8700	  682.00	  480.98	-1762.75	  371.85
      1.9700	  753.00	  482.66	-1762.75	  373.53
      2.0700	  784.00	  484.32	-1762.75	  375.19
      2.1700	  780.00	  485.97	-1762.75	  376.83
      2.2700	  729.00	  487.59	-1762.75	  378.46
      2.3700	  740.00	  489.20	-1762.75	  380.06
      2.4700	  750.00	  490.78	-1762.75	  381.65
      2.5700	  721.00	  492.35	-1762.75	  383.22
      2.6700	  679.00	  493.90	-1762.75	  384.77
      2.7700	  636.00	  495.44	-1762.75	  386.30
      2.8700	  655.00	  496.95	-1762.75	  387.82
      2.9700	  617.00	  498.45	-1762.75	  389.32
      3.0700	  577.00	  499.93	-1762.75	  390.80
      3.1700	  625.00	  501.39	-1762.75	  392.26
      3.2700	  650.00	  502.84	-1762.75	  393.71
      3.3700	  774.00	  504.27	-1762.75	  395.13
      3.4700	  924.00	  505.68	-1762.75	  396.54
      3.5700	 1033.00	  507.07	-1762.75	  397.94
      3.6700	 1127.00	  508.45	-1762.75	  399.31
      3.7700	 1173.00	  509.81	-1762.75	  400.67
      3.8700	 1262.00	  511.15	-1762.75	  402.02
      3.9700	 1319.00	  512.47	-1762.75	  403.34
      4.0700	 1399.00	  513.78	-1762.75	  404.65
      4.1700	 1401.00	  515.08	-1762.75	  405.94
      4.2700	 1390.00	  516.35	-1762.75	  407.22
      4.3700	 1391.00	  517.61	-1762.75	  408.48
      4.4700	 1374.00	  518.86	-1762.75	  409.73
      4.5700	 1304.00	  520.09	-1762.75	  410.95
      4.6700	 1264.00	  521.30	-1762.75	  412.17
      4.7700	 1167.00	  522.50	-1762.75	  413.36
      4.8700	 1179.00	  523.68	-1762.75	  414.54
      4.9700	 1140.00	  524.84	-1762.75	  415.71
      5.0700	 1069.00	  525.99	-1762.75	  416.86
      5.1700	 1109.00	  527.12	-1762.75	  417.99
      5.2700	 1034.00	  528.24	-1762.75	  419.11
      5.3700	  959.00	  529.35	-1762.75	  420.21
      5.4700	  979.00	  530.44	-1762.75	  421.30
      5.5700	 1010.00	  531.51	-1762.75	  422.38
      5.6700	  870.00	  532.57	-1762.75	  423.43
      5.7700	  941.00	  533.61	-1762.75	  424.48
      5.8700	  971.00	  534.64	-1762.75	  425.51
      5.9700	  910.00	  535.65	-1762.75	  426.52
      6.0700	  875.00	  536.65	-1762.75	  427.52
      6.1700	  898.00	  537.64	-1762.75	  428.51
      6.2700	  920.00	  538.61	-1762.75	  429.48
      6.3700	  837.00	  539.57	-1762.75	  430.43
      6.4700	  834.00	  540.51	-1762.75	  431.38
      6.5700	  822.00	  541.44	-1762.75	  432.30
      6.6700	  831.00	  542.35	-1762.75	  433.22
      6.7700	  766.00	  543.25	-1762.75	  434.12
      6.8700	  736.00	  544.14	-1762.75	  435.01
      6.9700	  776.00	  545.01	-1762.75	  435.88
      7.0700	  774.00	  545.87	-1762.75	  436.74
      7.1700	  789.00	  546.72	-1762.75	  437.59
      7.2700	  747.00	  547.55	-1762.75	  438.42
      7.3700	  675.00	  548.37	-1762.75	  439.24
      7.4700	  661.00	  549.18	-1762.75	  440.05
      7.5700	  674.00	  549.97	-1762.75	  440.84
      7.6700	  665.00	  550.75	-1762.75	  441.62
      7.7700	  692.00	  551.52	-1762.75	  442.39
      7.8700	  673.00	  552.27	-1762.75	  443.14
      7.9700	  675.00	  553.02	-1762.75	  443.88
      8.0700	  698.00	  553.74	-1762.75	  444.61
      8.1700	  651.00	  554.46	-1762.75	  445.33
      8.2700	  664.00	  555.17	-1762.75	  446.03
      8.3700	  696.00	  555.86	-1762.75	  446.73
      8.4700	  633.00	  556.54	-1762.75	  447.40
      8.5700	  669.00	  557.20	-1762.75	  448.07
      8.6700	  619.00	  557.86	-1762.75	  448.73
      8.7700	  635.00	  558.50	-1762.75	  449.37
      8.8700	  654.00	  559.14	-1762.75	  450.00
      8.9700	  625.00	  559.75	-1762.75	  450.62
      9.0700	  583.00	  560.36	-1762.75	  451.23
      9.1700	  586.00	  560.96	-1762.75	  451.83
      9.2700	  624.00	  561.54	-1762.75	  452.41
      9.3700	  624.00	  562.12	-1762.75	  452.98
      9.4700	  625.00	  562.68	-1762.75	  453.55
      9.5700	  631.00	  563.23	-1762.75	  454.10
      9.6700	  567.00	  563.77	-1762.75	  454.64
      9.7700	  618.00	  564.30	-1762.75	  455.16
      9.8700	  616.00	  564.81	-1762.75	  455.68
      9.9700	  649.00	  565.32	-1762.75	  456.19
     10.0700	  593.00	  568.12	-1737.87	  456.68
     10.1700	  657.00	  568.81	-1674.56	  457.17
     10.2700	  597.00	  569.53	-1735.28	  457.64
     10.3700	  644.00	  570.31	-1689.06	  458.10
     10.4700	  595.00	  571.17	-1738.92	  458.56
     10.5700	  583.00	  572.17	-1751.92	  459.00
     10.6700	  570.00	  573.38	-1766.13	  459.43
     10.7700	  566.00	  574.89	-1771.64	  459.85
     10.8700	  574.00	  576.79	-1765.54	  460.26
     10.9700	  625.00	  579.12	-1716.87	  460.66
     11.0700	  604.00	  581.88	-1740.63	  461.05
     11.1700	  617.00	  585.09	-1730.84	  461.43
     11.2700	  586.00	  588.78	-1765.53	  461.81
     11.3700	  609.00	  593.03	-1746.78	  462.17
     11.4700	  596.00	  597.94	-1764.69	  462.52
     11.5700	  632.00	  603.74	-1734.49	  462.86
     11.6700	  592.00	  610.69	-1781.44	  463.19
     11.7700	  658.00	  619.17	-1723.92	  463.52
     11.8700	  657.00	  629.42	-1735.17	  463.83
     11.9700	  659.00	  641.24	-1744.99	  464.13
     12.0700	  710.00	  653.30	-1706.05	  464.43
     12.1700	  701.00	  662.49	-1724.24	  464.71
     12.2700	  673.00	  663.86	-1753.61	  464.99
     12.3700	  671.00	  653.67	-1745.42	  465.26
     12.4700	  602.00	  635.50	-1796.25	  465.52
     12.5700	  615.00	  617.32	-1765.07	  465.77
     12.6700	  588.00	  603.45	-1778.20	  466.01
     12.7700	  555.00	  594.32	-1802.07	  466.24
     12.8700	  585.00	  588.83	-1766.58	  466.46
     12.9700	  590.00	  585.65	-1758.40	  466.68
     13.0700	  586.00	  583.77	-1760.52	  466.88
     13.1700	  568.00	  582.60	-1777.35	  467.08
     13.2700	  582.00	  581.80	-1762.55	  467.27
     13.3700	  574.00	  581.24	-1769.99	  467.45
     13.4700	  583.00	  580.87	-1760.62	  467.63
     13.5700	  565.00	  580.58	-1778.33	  467.79
     13.6700	  576.00	  580.36	-1767.11	  467.95
     13.7700	  580.00	  580.21	-1762.96	  468.10
     13.8700	  548.00	  580.10	-1794.85	  468.24
     13.9700	  562.00	  580.02	-1780.77	  468.37
     14.0700	  581.00	  579.96	-1761.71	  468.50
     14.1700	  550.00	  579.93	-1792.68	  468.62
     14.2700	  602.00	  579.90	-1740.65	  468.73
     14.3700	  596.00	  579.89	-1746.64	  468.83
     14.4700	  524.00	  579.89	-1818.64	  468.92
     14.5700	  609.00	  579.89	-1733.64	  469.01
     14.6700	  579.00	  579.89	-1763.64	  469.09
     14.7700	  577.00	  579.89	-1765.64	  469.16
     14.8700	  543.00	  579.90	-1799.65	  469.23
     14.9700	  575.00	  579.90	-1767.65	  469.29
     15.0700	  561.00	  579.91	-1781.66	  469.34
     15.1700	  565.00	  579.91	-1777.66	  469.39
     15.2700	  618.00	  579.91	-1724.66	  469.42
     15.3700	  526.00	  579.90	-1816.65	  469.45
     15.4700	  556.00	  579.89	-1786.64	  469.48
     15.5700	  567.00	  579.88	-1775.63	  469.50
     15.6700	  590.00	  579.86	-1752.61	  469.51
     15.7700	  533.00	  579.84	-1809.59	  469.51
     15.8700	  543.00	  579.82	-1799.57	  469.51
     15.9700	  568.00	  579.79	-1774.54	  469.50
     16.0700	  542.00	  579.76	-1800.51	  469.48
     16.1700	  560.00	  579.72	-1782.47	  469.46
     16.2700	  581.00	  579.67	-1761.42	  469.43
     16.3700	  569.00	  579.62	-1773.37	  469.40
     16.4700	  535.00	  579.57	-1807.32	  469.36
     16.5700	  531.00	  579.51	-1811.26	  469.31
     16.6700	  553.00	  579.45	-1789.20	  469.26
     16.7700	  564.00	  579.38	-1778.13	  469.20
     16.8700	  529.00	  579.31	-1813.06	  469.14
     16.9700	  551.00	  579.23	-1790.98	  469.07
     17.0700	  567.00	  579.14	-1774.89	  468.99
     17.1700	  563.00	  579.05	-1778.80	  468.91
     17.2700	  560.00	  578.96	-1781.71	  468.82
     17.3700	  586.00	  578.86	-1755.61	  468.73
     17.4700	  563.00	  578.87	-1778.62	  468.63
     17.5700	  545.00	  578.76	-1796.51	  468.53
     17.6700	  583.00	  578.65	-1758.40	  468.42
     17.7700	  554.00	  578.53	-1787.28	  468.30
     17.8700	  565.00	  578.41	-1776.16	  468.18
     17.9700	  575.00	  578.40	-1766.15	  468.06
     18.0700	  611.00	  578.27	-1730.02	  467.93
     18.1700	  565.00	  578.14	-1775.89	  467.79
     18.2700	  552.00	  578.00	-1788.75	  467.65
     18.3700	  548.00	  577.86	-1792.61	  467.50
     18.4700	  553.00	  577.71	-1787.46	  467.35
     18.5700	  560.00	  577.56	-1780.31	  467.20
     18.6700	  580.00	  577.41	-1760.16	  467.04
     18.7700	  586.00	  577.25	-1754.00	  466.87
     18.8700	  532.00	  577.08	-1807.83	  466.70
     18.9700	  563.00	  576.92	-1776.67	  466.53
     19.0700	  576.00	  576.74	-1763.49	  466.35
     19.1700	  591.00	  576.57	-1748.32	  466.17
     19.2700	  543.00	  576.39	-1796.14	  465.98
     19.3700	  584.00	  576.21	-1754.96	  465.79
     19.4700	  581.00	  576.06	-1757.81	  465.59
     19.5700	  563.00	  575.87	-1775.62	  465.39
     19.6700	  550.00	  575.68	-1788.43	  465.18
     19.7700	  581.00	  575.48	-1757.23	  464.97
     19.8700	  552.00	  575.28	-1786.03	  464.76
     19.9700	  557.00	  575.08	-1780.83	  464.54
     20.0700	  537.00	  574.87	-1800.62	  464.32
     20.1700	  570.00	  574.66	-1767.41	  464.09
     20.2700	  576.00	  574.45	-1761.20	  463.86
     20.3700	  567.00	  574.23	-1769.98	  463.63
     20.4700	  560.00	  574.01	-1776.76	  463.39
     20.5700	  542.00	  573.79	-1794.54	  463.15
     20.6700	  556.00	  573.57	-1780.32	  462.91
     20.7700	  563.00	  573.34	-1773.09	  462.66
     20.8700	  556.00	  573.11	-1779.86	  462.41
     20.9700	  517.00	  572.88	-1818.63	  462.15
     21.0700	  500.00	  572.65	-1835.40	  461.89
     21.1700	  566.00	  572.42	-1769.17	  461.63
     21.2700	  590.00	  572.18	-1744.93	  461.36
     21.3700	  627.00	  571.94	-1707.69	  461.09
     21.4700	  598.00	  571.71	-1736.46	  460.82
     21.5700	  564.00	  571.47	-1770.22	  460.54
     21.6700	  592.00	  571.23	-1741.98	  460.26
     21.7700	  503.00	  570.99	-1830.74	  459.98
     21.8700	  581.00	  570.75	-1752.50	  459.69
     21.9700	  575.00	  570.51	-1758.26	  459.41
     22.0700	  528.00	  570.44	-1805.19	  459.11
     22.1700	  584.00	  570.21	-1748.96	  458.82
     22.2700	  568.00	  569.98	-1764.73	  458.52
     22.3700	  555.00	  569.76	-1777.51	  458.22
     22.4700	  607.00	  569.53	-1725.28	  457.92
     22.5700	  534.00	  569.32	-1798.07	  457.61
     22.6700	  615.00	  569.11	-1716.86	  457.30
     22.7700	  545.00	  568.91	-1786.66	  456.99
     22.8700	  616.00	  568.73	-1715.48	  456.67
     22.9700	  580.00	  568.56	-1751.31	  456.36
     23.0700	  563.00	  568.40	-1768.15	  456.04
     23.1700	  563.00	  568.27	-1768.02	  455.71
     23.2700	  537.00	  568.17	-1793.92	  455.39
     23.3700	  522.00	  568.06	-1808.81	  455.06
     23.4700	  539.00	  568.04	-1791.79	  454.73
     23.5700	  572.00	  568.10	-1758.85	  454.40
     23.6700	  562.00	  568.24	-1768.99	  454.07
     23.7700	  555.00	  568.53	-1776.28	  453.73
     23.8700	  580.00	  569.03	-1751.78	  453.39
     23.9700	  624.00	  569.89	-1708.64	  453.05
     24.0700	  604.00	  571.35	-1730.10	  452.71
     24.1700	  554.00	  573.75	-1782.50	  452.36
     24.2700	  572.00	  577.58	-1768.33	  452.01
     24.3700	  576.00	  583.38	-1770.13	  451.67
     24.4700	  666.00	  591.52	-1688.27	  451.31
     24.5700	  610.00	  601.93	-1754.68	  450.96
     24.6700	  627.00	  613.71	-1749.46	  450.61
     24.7700	  682.00	  624.59	-1705.34	  450.25
     24.8700	  660.00	  630.63	-1733.38	  449.89
     24.9700	  685.00	  627.58	-1705.33	  449.53
     25.0700	  660.00	  615.71	-1718.46	  449.17
     25.1700	  628.00	  600.85	-1735.60	  448.80
     25.2700	  599.00	  587.96	-1751.71	  448.44
     25.3700	  653.00	  578.63	-1688.38	  448.07
     25.4700	  589.00	  572.56	-1746.31	  447.70
     25.5700	  615.00	  568.85	-1716.60	  447.33
     25.6700	  602.00	  566.58	-1727.33	  446.96
     25.7700	  572.00	  565.13	-1755.88	  446.59
     25.8700	  593.00	  564.13	-1733.88	  446.21
     25.9700	  623.00	  563.40	-1703.15	  445.84
     26.0700	  554.00	  562.87	-1771.62	  445.46
     26.1700	  564.00	  562.48	-1761.23	  445.08
     26.2700	  586.00	  562.22	-1738.97	  444.70
     26.3700	  593.00	  562.07	-1731.82	  444.32
     26.4700	  583.00	  562.04	-1741.79	  443.94
     26.5700	  561.00	  562.13	-1763.88	  443.56
     26.6700	  584.00	  562.35	-1741.10	  443.17
     26.7700	  592.00	  562.73	-1733.48	  442.79
     26.8700	  601.00	  563.29	-1725.04	  442.40
     26.9700	  556.00	  564.08	-1770.83	  442.01
     27.0700	  581.00	  565.16	-1746.91	  441.62
     27.1700	  656.00	  566.65	-1673.40	  441.23
     27.2700	  604.00	  568.71	-1727.46	  440.84
     27.3700	  624.00	  571.69	-1710.44	  440.45
     27.4700	  618.00	  576.22	-1720.97	  440.06
     27.5700	  581.00	  583.49	-1765.24	  439.67
     27.6700	  607.00	  595.43	-1751.18	  439.27
     27.7700	  607.00	  614.90	-1770.65	  438.88
     27.8700	  638.00	  645.12	-1769.87	  438.48
     27.9700	  652.00	  688.14	-1798.89	  438.09
     28.0700	  786.00	  742.49	-1719.24	  437.69
     28.1700	  833.00	  800.68	-1730.43	  437.30
     28.2700	  889.00	  847.51	-1721.26	  436.90
     28.3700	  971.00	  863.32	-1655.07	  436.50
     28.4700	  907.00	  842.65	-1698.40	  436.10
     28.5700	  847.00	  810.29	-1726.04	  435.70
     28.6700	  766.00	  794.92	-1791.67	  435.30
     28.7700	  749.00	  805.80	-1819.55	  434.90
     28.8700	  822.00	  834.54	-1775.29	  434.50
     28.9700	  822.00	  860.17	-1800.92	  434.10
     29.0700	  851.00	  856.19	-1767.94	  433.70
     29.1700	  845.00	  811.03	-1728.78	  433.30
     29.2700	  761.00	  744.05	-1745.80	  432.90
     29.3700	  662.00	  681.38	-1782.13	  432.50
     29.4700	  623.00	  634.58	-1774.33	  432.10
     29.5700	  667.00	  604.18	-1699.93	  431.69
     29.6700	  642.00	  586.13	-1706.88	  431.29
     29.7700	  618.00	  575.80	-1720.55	  430.89
     29.8700	  614.00	  569.74	-1718.49	  430.49
     29.9700	  573.00	  566.03	-1755.78	  430.08
     30.0700	  574.00	  563.83	-1752.58	  429.68
     30.1700	  647.00	  562.91	-1678.66	  429.28
     30.2700	  620.00	  563.48	-1706.23	  428.88
     30.3700	  557.00	  566.15	-1771.90	  428.48
     30.4700	  583.00	  571.97	-1751.72	  428.07
     30.5700	  616.00	  582.22	-1728.97	  427.67
     30.6700	  600.00	  597.79	-1760.54	  427.27
     30.7700	  620.00	  618.12	-1760.87	  426.87
     30.8700	  652.00	  640.12	-1750.87	  426.47
     30.9700	  699.00	  657.57	-1721.32	  426.06
     31.0700	  713.00	  661.97	-1711.72	  425.66
     31.1700	  684.00	  648.67	-1727.42	  425.26
     31.2700	  588.00	  624.00	-1798.75	  424.86
     31.3700	  590.00	  598.69	-1771.44	  424.46
     31.4700	  623.00	  578.59	-1718.34	  424.06
     31.5700	  582.00	  564.83	-1745.58	  423.66
     31.6700	  578.00	  556.30	-1741.05	  423.26
     31.7700	  604.00	  551.26	-1710.01	  422.86
     31.8700	  547.00	  548.27	-1764.02	  422.47
     31.9700	  587.00	  546.38	-1722.13	  422.07
     32.0700	  569.00	  545.12	-1738.87	  421.67
     32.1700	  567.00	  544.26	-1740.01	  421.27
     32.2700	  609.00	  543.70	-1697.45	  420.88
     32.3700	  587.00	  543.40	-1719.15	  420.48
     32.4700	  532.00	  543.35	-1774.10	  420.09
     32.5700	  547.00	  543.55	-1759.30	  419.69
     32.6700	  567.00	  544.03	-1739.78	  419.30
     32.7700	  559.00	  544.83	-1748.58	  418.91
     32.8700	  595.00	  546.03	-1713.78	  418.51
     32.9700	  572.00	  547.74	-1738.49	  418.12
     33.0700	  602.00	  550.21	-1710.96	  417.73
     33.1700	  563.00	  553.74	-1753.49	  417.34
     33.2700	  586.00	  559.12	-1735.87	  416.95
     33.3700	  567.00	  567.73	-1763.48	  416.56
     33.4700	  552.00	  582.05	-1792.80	  416.17
     33.5700	  645.00	  605.92	-1723.67	  415.79
     33.6700	  618.00	  644.17	-1788.92	  415.40
     33.7700	  653.00	  700.85	-1810.60	  415.02
     33.8700	  781.00	  775.66	-1757.41	  414.63
     33.9700	  890.00	  859.75	-1732.50	  414.25
     34.0700	 1021.00	  933.03	-1674.78	  413.86
     34.1700	 1051.00	  966.35	-1678.10	  413.48
     34.2700	 1022.00	  937.92	-1678.67	  413.10
     34.3700	  893.00	  860.01	-1729.76	  412.72
     34.4700	  732.00	  768.74	-1799.49	  412.34
     34.5700	  622.00	  689.97	-1830.72	  411.97
     34.6700	  616.00	  632.33	-1779.08	  411.59
     34.7700	  581.00	  594.61	-1776.36	  411.21
     34.8700	  576.00	  571.63	-1758.38	  410.84
     34.9700	  556.00	  557.92	-1764.67	  410.47
     35.0700	  560.00	  549.43	-1752.18	  410.09
     35.1700	  521.00	  543.71	-1785.46	  409.72
     35.2700	  559.00	  539.53	-1743.28	  409.35
     35.3700	  545.00	  536.30	-1754.05	  408.98
     35.4700	  557.00	  533.66	-1739.41	  408.62
     35.5700	  536.00	  531.97	-1758.72	  408.25
     35.6700	  569.00	  530.13	-1723.88	  407.89
     35.7700	  511.00	  528.56	-1780.31	  407.52
     35.8700	  528.00	  527.19	-1761.94	  407.16
     35.9700	  514.00	  525.99	-1774.74	  406.80
     36.0700	  542.00	  524.93	-1745.68	  406.44
     36.1700	  497.00	  523.98	-1789.73	  406.08
     36.2700	  564.00	  523.13	-1721.88	  405.72
     36.3700	  525.00	  522.36	-1760.11	  405.37
     36.4700	  514.00	  521.63	-1770.38	  405.01
     36.5700	  511.00	  521.00	-1772.75	  404.66
     36.6700	  552.00	  520.44	-1731.19	  404.30
     36.7700	  508.00	  519.96	-1774.71	  403.95
     36.8700	  535.00	  519.56	-1747.31	  403.61
     36.9700	  490.00	  519.28	-1792.03	  403.26
     37.0700	  511.00	  519.18	-1770.93	  402.91
     37.1700	  514.00	  519.37	-1768.12	  402.57
     37.2700	  507.00	  520.17	-1775.92	  402.22
     37.3700	  516.00	  521.40	-1768.15	  401.88
     37.4700	  553.00	  523.35	-1733.10	  401.54
     37.5700	  537.00	  525.98	-1751.73	  401.20
     37.6700	  519.00	  528.93	-1772.68	  400.86
     37.7700	  551.00	  531.47	-1743.22	  400.53
     37.8700	  516.00	  532.57	-1779.32	  400.19
     37.9700	  538.00	  531.60	-1756.35	  399.86
     38.0700	  518.00	  528.96	-1773.71	  399.53
     38.1700	  477.00	  525.61	-1811.36	  399.20
     38.2700	  474.00	  522.19	-1810.94	  398.87
     38.3700	  527.00	  519.10	-1754.85	  398.55
     38.4700	  551.00	  516.58	-1728.33	  398.22
     38.5700	  512.00	  514.67	-1765.42	  397.90
     38.6700	  504.00	  513.28	-1772.03	  397.58
     38.7700	  481.00	  512.27	-1794.02	  397.26
     38.8700	  518.00	  511.50	-1756.25	  396.94
     38.9700	  541.00	  510.89	-1732.64	  396.62
     39.0700	  489.00	  510.38	-1784.13	  396.31
     39.1700	  472.00	  509.93	-1800.68	  395.99
     39.2700	  485.00	  509.52	-1787.27	  395.68
     39.3700	  490.00	  509.03	-1781.78	  395.37
     39.4700	  477.00	  508.68	-1794.43	  395.06
     39.5700	  495.00	  508.34	-1776.09	  394.76
     39.6700	  502.00	  508.02	-1768.77	  394.45
     39.7700	  524.00	  507.72	-1746.47	  394.15
     39.8700	  458.00	  507.44	-1812.19	  393.85
     39.9700	  529.00	  507.17	-1740.92	  393.55
     40.0700	  498.00	  506.91	-1771.66	  393.25
     40.1700	  521.00	  507.22	-1748.97	  392.96
     40.2700	  482.00	  507.00	-1787.75	  392.66
     40.3700	  443.00	  506.68	-1826.43	  392.37
     40.4700	  506.00	  506.55	-1763.30	  392.08
     40.5700	  468.00	  506.39	-1801.14	  391.79
     40.6700	  498.00	  506.25	-1771.00	  391.51
     40.7700	  492.00	  506.14	-1776.89	  391.22
     40.8700	  494.00	  506.05	-1774.80	  390.94
     40.9700	  495.00	  506.00	-1773.75	  390.66
     41.0700	  527.00	  505.98	-1741.73	  390.38
     41.1700	  491.00	  506.02	-1777.77	  390.10
     41.2700	  521.00	  506.11	-1747.86	  389.83
     41.3700	  488.00	  506.27	-1781.02	  389.55
     41.4700	  497.00	  506.53	-1772.28	  389.28
     41.5700	  500.00	  506.91	-1769.66	  389.01
     41.6700	  527.00	  507.51	-1743.26	  388.74
     41.7700	  489.00	  508.32	-1782.07	  388.48
     41.8700	  504.00	  509.60	-1768.35	  388.21
     41.9700	  520.00	  511.57	-1754.32	  387.95
     42.0700	  491.00	  514.91	-1786.66	  387.69
     42.1700	  529.00	  520.27	-1754.02	  387.43
     42.2700	  494.00	  528.83	-1797.58	  387.18
     42.3700	  524.00	  541.62	-1780.37	  386.92
     42.4700	  546.00	  559.15	-1775.90	  386.67
     42.5700	  561.00	  580.53	-1782.28	  386.42
     42.6700	  563.00	  602.65	-1802.40	  386.17
     42.7700	  565.00	  619.89	-1817.64	  385.93
     42.8700	  571.00	  625.06	-1816.81	  385.68
     42.9700	  598.00	  615.30	-1780.05	  385.44
     43.0700	  510.00	  595.01	-1847.76	  385.20
     43.1700	  573.00	  571.77	-1761.52	  384.96
     43.2700	  550.00	  550.89	-1763.64	  384.72
     43.3700	  547.00	  534.58	-1750.33	  384.49
     43.4700	  521.00	  523.05	-1764.80	  384.26
     43.5700	  541.00	  515.49	-1737.24	  384.03
     43.6700	  474.00	  510.75	-1799.50	  383.80
     43.7700	  499.00	  507.79	-1771.54	  383.57
     43.8700	  495.00	  505.85	-1773.60	  383.35
     43.9700	  500.00	  504.51	-1767.26	  383.13
     44.0700	  437.00	  503.71	-1829.46	  382.90
     44.1700	  454.00	  502.92	-1811.67	  382.69
     44.2700	  538.00	  502.28	-1727.03	  382.47
     44.3700	  522.00	  501.75	-1742.50	  382.26
     44.4700	  529.00	  501.31	-1735.06	  382.04
     44.5700	  461.00	  500.95	-1802.70	  381.83
     44.6700	  490.00	  500.64	-1773.39	  381.62
     44.7700	  454.00	  500.39	-1809.14	  381.42
     44.8700	  520.00	  500.18	-1742.93	  381.21
     44.9700	  490.00	  500.01	-1772.76	  381.01
     45.0700	  509.00	  499.88	-1753.63	  380.81
     45.1700	  465.00	  499.78	-1797.53	  380.61
     45.2700	  509.00	  499.71	-1753.46	  380.42
     45.3700	  478.00	  499.67	-1784.42	  380.22
     45.4700	  510.00	  499.74	-1752.49	  380.03
     45.5700	  510.00	  499.77	-1752.52	  379.84
     45.6700	  486.00	  499.84	-1776.59	  379.65
     45.7700	  490.00	  499.97	-1772.72	  379.47
     45.8700	  502.00	  500.10	-1760.85	  379.29
     45.9700	  487.00	  500.27	-1776.02	  379.10
     46.0700	  517.00	  500.47	-1746.22	  378.92
     46.1700	  501.00	  500.72	-1762.47	  378.75
     46.2700	  536.00	  501.02	-1727.77	  378.57
     46.3700	  502.00	  501.38	-1762.13	  378.40
     46.4700	  493.00	  501.64	-1771.39	  378.23
     46.5700	  501.00	  502.15	-1763.90	  378.06
     46.6700	  513.00	  502.74	-1752.49	  377.89
     46.7700	  533.00	  503.45	-1733.20	  377.72
     46.8700	  481.00	  504.32	-1786.07	  377.56
     46.9700	  538.00	  505.41	-1730.16	  377.40
     47.0700	  490.00	  506.85	-1779.60	  377.24
     47.1700	  513.00	  508.85	-1758.60	  377.08
     47.2700	  499.00	  511.77	-1775.52	  376.93
     47.3700	  513.00	  516.09	-1765.84	  376.78
     47.4700	  551.00	  522.37	-1734.12	  376.63
     47.5700	  524.00	  531.11	-1769.86	  376.48
     47.6700	  571.00	  542.46	-1734.21	  376.33
     47.7700	  526.00	  555.89	-1792.64	  376.18
     47.8700	  556.00	  569.78	-1776.53	  376.04
     47.9700	  576.00	  581.67	-1768.42	  375.90
     48.0700	  577.00	  587.22	-1772.97	  375.76
     48.1700	  577.00	  585.05	-1770.80	  375.63
     48.2700	  547.00	  576.86	-1792.61	  375.49
     48.3700	  542.00	  566.39	-1787.14	  375.36
     48.4700	  569.00	  556.71	-1750.46	  375.23
     48.5700	  504.00	  549.51	-1808.26	  375.10
     48.6700	  515.00	  545.41	-1793.16	  374.97
     48.7700	  525.00	  544.38	-1782.13	  374.85
     48.8700	  523.00	  546.09	-1785.84	  374.73
     48.9700	  576.00	  550.24	-1736.99	  374.61
     49.0700	  511.00	  556.78	-1808.53	  374.49
     49.1700	  568.00	  566.10	-1760.85	  374.37
     49.2700	  560.00	  579.46	-1782.21	  374.26
     49.3700	  569.00	  599.54	-1793.29	  374.14
     49.4700	  555.00	  631.39	-1839.14	  374.03
     49.5700	  582.00	  683.49	-1864.24	  373.92
     49.6700	  686.00	  768.05	-1844.80	  373.82
     49.7700	  788.00	  899.59	-1874.34	  373.71
     49.8700	 1016.00	 1090.55	-1837.30	  373.61
     49.9700	 1318.00	 1344.09	-1788.84	  373.51
     50.0700	 1626.00	 1645.26	-1782.01	  373.41
     50.1700	 1918.00	 1952.17	-1796.92	  373.31
     50.2700	 2210.00	 2192.46	-1745.21	  373.22
     50.3700	 2348.00	 2282.16	-1696.91	  373.13
     50.4700	 2356.00	 2180.78	-1587.53	  373.04
     50.5700	 1954.00	 1932.31	-1741.06	  372.95
     50.6700	 1594.00	 1624.25	-1793.00	  372.86
     50.7700	 1198.00	 1329.27	-1894.02	  372.78
     50.8700	  958.00	 1086.69	-1891.44	  372.69
     50.9700	  841.00	  909.06	-1830.81	  372.61
     51.0700	  747.00	  791.25	-1807.00	  372.53
     51.1700	  688.00	  719.09	-1793.84	  372.45
     51.2700	  654.00	  676.21	-1784.96	  372.38
     51.3700	  593.00	  648.72	-1818.47	  372.31
     51.4700	  612.00	  627.64	-1778.39	  372.23
     51.5700	  592.00	  609.23	-1779.98	  372.16
     51.6700	  593.00	  592.92	-1762.67	  372.10
     51.7700	  571.00	  579.06	-1770.81	  372.03
     51.8700	  584.00	  567.91	-1746.66	  371.97
     51.9700	  568.00	  559.49	-1754.24	  371.90
     52.0700	  582.00	  553.56	-1734.31	  371.84
     52.1700	  549.00	  549.78	-1763.53	  371.79
     52.2700	  574.00	  547.84	-1736.59	  371.73
     52.3700	  538.00	  547.52	-1772.27	  371.67
     52.4700	  572.00	  548.83	-1739.58	  371.62
     52.5700	  569.00	  552.09	-1745.84	  371.57
     52.6700	  576.00	  558.11	-1744.86	  371.52
     52.7700	  611.00	  568.36	-1720.11	  371.47
     52.8700	  568.00	  585.16	-1779.91	  371.43
     52.9700	  612.00	  611.68	-1762.43	  371.38
     53.0700	  642.00	  651.57	-1772.32	  371.34
     53.1700	  770.00	  708.07	-1700.82	  371.30
     53.2700	  797.00	  782.48	-1748.23	  371.26
     53.3700	  887.00	  872.54	-1748.29	  371.23
     53.4700	  985.00	  970.16	-1747.91	  371.19
     53.5700	 1144.00	 1059.79	-1678.54	  371.16
     53.6700	 1171.00	 1119.03	-1710.78	  371.13
     53.7700	 1164.00	 1127.37	-1726.12	  371.10
     53.8700	 1097.00	 1081.27	-1747.02	  371.07
     53.9700	 1023.00	  997.79	-1737.54	  371.04
     54.0700	  870.00	  900.70	-1793.45	  371.02
     54.1700	  799.00	  807.99	-1771.74	  370.99
     54.2700	  715.00	  729.55	-1777.30	  370.97
     54.3700	  656.00	  668.98	-1775.73	  370.95
     54.4700	  652.00	  625.71	-1736.46	  370.94
     54.5700	  592.00	  596.85	-1767.60	  370.92
     54.6700	  579.00	  578.71	-1762.46	  370.90
     54.7700	  607.00	  567.92	-1723.67	  370.89
     54.8700	  606.00	  561.89	-1718.64	  370.88
     54.9700	  605.00	  558.92	-1716.67	  370.87
     55.0700	  596.00	  558.00	-1724.75	  370.86
     55.1700	  549.00	  558.61	-1772.36	  370.86
     55.2700	  544.00	  560.51	-1779.26	  370.85
     55.3700	  619.00	  563.65	-1707.40	  370.85
     55.4700	  593.00	  568.13	-1737.88	  370.85
     55.5700	  519.00	  574.15	-1817.90	  370.85
     55.6700	  588.00	  582.15	-1756.90	  370.85
     55.7700	  591.00	  592.91	-1764.66	  370.85
     55.8700	  588.00	  607.95	-1782.70	  370.86
     55.9700	  593.00	  629.94	-1799.69	  370.86
     56.0700	  646.00	  663.42	-1780.17	  370.87
     56.1700	  687.00	  715.40	-1791.15	  370.88
     56.2700	  785.00	  795.52	-1773.27	  370.89
     56.3700	  799.00	  915.20	-1878.95	  370.91
     56.4700	 1024.00	 1085.14	-1823.89	  370.92
     56.5700	 1250.00	 1311.32	-1824.07	  370.93
     56.6700	 1602.00	 1590.04	-1750.79	  370.95
     56.7700	 1942.00	 1902.28	-1723.03	  370.97
     56.8700	 2230.00	 2208.73	-1741.48	  370.99
     56.9700	 2421.00	 2448.28	-1790.03	  371.01
     57.0700	 2580.00	 2552.06	-1734.81	  371.03
     57.1700	 2479.00	 2482.89	-1766.64	  371.06
     57.2700	 2285.00	 2266.05	-1743.80	  371.08
     57.3700	 1978.00	 1968.61	-1753.36	  371.11
     57.4700	 1631.00	 1656.00	-1787.75	  371.14
     57.5700	 1302.00	 1372.05	-1832.80	  371.17
     57.6700	 1106.00	 1139.14	-1795.89	  371.20
     57.7700	  979.00	  963.74	-1747.49	  371.23
     57.8700	  853.00	  841.72	-1751.47	  371.27
     57.9700	  726.00	  763.72	-1800.47	  371.30
     58.0700	  799.00	  719.47	-1683.22	  371.34
     58.1700	  744.00	  700.60	-1719.35	  371.38
     58.2700	  729.00	  701.69	-1735.44	  371.42
     58.3700	  738.00	  719.92	-1744.67	  371.46
     58.4700	  822.00	  754.06	-1694.81	  371.50
     58.5700	  783.00	  803.04	-1782.79	  371.54
     58.6700	  908.00	  864.61	-1719.36	  371.59
     58.7700	  942.00	  933.96	-1754.71	  371.63
     58.8700	 1062.00	 1003.78	-1704.53	  371.68
     58.9700	 1119.00	 1066.60	-1710.35	  371.73
     59.0700	 1219.00	 1117.65	-1661.40	  371.78
     59.1700	 1302.00	 1153.62	-1614.37	  371.83
     59.2700	 1334.00	 1170.12	-1598.87	  371.88
     59.3700	 1276.00	 1165.23	-1651.98	  371.93
     59.4700	 1272.00	 1145.12	-1635.87	  371.99
     59.5700	 1278.00	 1122.32	-1607.07	  372.04
     59.6700	 1207.00	 1108.34	-1664.09	  372.10
     59.7700	 1140.00	 1110.19	-1732.94	  372.16
     59.8700	 1172.00	 1131.74	-1722.49	  372.22
     59.9700	 1185.00	 1175.87	-1753.62	  372.28
     60.0700	 1314.00	 1242.87	-1691.62	  372.34
     60.1700	 1417.00	 1326.48	-1672.23	  372.40
     60.2700	 1472.00	 1411.01	-1701.76	  372.46
     60.3700	 1454.00	 1471.93	-1780.68	  372.53
     60.4700	 1468.00	 1483.10	-1777.85	  372.59
     60.5700	 1490.00	 1431.74	-1704.49	  372.66
     60.6700	 1445.00	 1328.03	-1645.78	  372.73
     60.7700	 1328.00	 1196.48	-1631.23	  372.80
     60.8700	 1059.00	 1061.05	-1764.80	  372.87
     60.9700	  928.00	  938.46	-1773.21	  372.94
     61.0700	  849.00	  838.02	-1751.77	  373.01
     61.1700	  754.00	  763.39	-1772.14	  373.08
     61.2700	  664.00	  714.52	-1813.27	  373.15
     61.3700	  710.00	  689.62	-1742.37	  373.23
     61.4700	  669.00	  687.02	-1780.77	  373.30
     61.5700	  731.00	  706.09	-1737.84	  373.38
     61.6700	  737.00	  747.38	-1773.13	  373.46
     61.7700	  742.00	  811.73	-1832.48	  373.54
     61.8700	  903.00	  898.70	-1758.45	  373.62
     61.9700	  961.00	 1004.90	-1806.65	  373.70
     62.0700	 1107.00	 1122.19	-1777.94	  373.78
     62.1700	 1142.00	 1236.37	-1857.12	  373.86
     62.2700	 1253.00	 1326.84	-1836.59	  373.94
     62.3700	 1287.00	 1370.72	-1846.47	  374.02
     62.4700	 1297.00	 1353.93	-1819.68	  374.11
     62.5700	 1220.00	 1281.24	-1823.99	  374.19
     62.6700	 1140.00	 1172.64	-1795.39	  374.28
     62.7700	  952.00	 1050.90	-1861.65	  374.37
     62.8700	  915.00	  933.38	-1781.13	  374.45
     62.9700	  757.00	  830.77	-1836.52	  374.54
     63.0700	  659.00	  748.06	-1851.81	  374.63
     63.1700	  686.00	  685.85	-1762.60	  374.72
     63.2700	  627.00	  641.96	-1777.71	  374.81
     63.3700	  606.00	  612.83	-1769.58	  374.90
     63.4700	  598.00	  594.75	-1759.50	  374.99
     63.5700	  567.00	  584.72	-1780.47	  375.09
     63.6700	  550.00	  580.79	-1793.54	  375.18
     63.7700	  597.00	  582.09	-1747.84	  375.27
     63.8700	  579.00	  588.73	-1772.48	  375.37
     63.9700	  670.00	  601.60	-1694.35	  375.46
     64.0700	  660.00	  622.06	-1724.81	  375.56
     64.1700	  685.00	  651.36	-1729.11	  375.66
     64.2700	  721.00	  690.43	-1732.18	  375.75
     64.3700	  812.00	  739.07	-1689.82	  375.85
     64.4700	  781.00	  795.39	-1777.14	  375.95
     64.5700	  916.00	  855.26	-1702.01	  376.05
     64.6700	  978.00	  912.03	-1696.78	  376.15
     64.7700	  997.00	  956.52	-1722.27	  376.25
     64.8700	 1006.00	  980.56	-1737.31	  376.35
     64.9700	 1089.00	  979.89	-1653.64	  376.45
     65.0700	  994.00	  955.89	-1724.64	  376.55
     65.1700	  976.00	  914.61	-1701.36	  376.65
     65.2700	  884.00	  864.34	-1743.09	  376.75
     65.3700	  811.00	  812.24	-1763.99	  376.85
     65.4700	  743.00	  764.53	-1784.28	  376.96
     65.5700	  700.00	  723.15	-1785.90	  377.06
     65.6700	  656.00	  688.43	-1795.18	  377.16
     65.7700	  673.00	  659.87	-1749.62	  377.27
     65.8700	  615.00	  636.43	-1784.18	  377.37
     65.9700	  628.00	  617.74	-1752.49	  377.48
     66.0700	  563.00	  603.30	-1803.05	  377.58
     66.1700	  556.00	  592.70	-1799.45	  377.69
     66.2700	  574.00	  585.22	-1773.97	  377.79
     66.3700	  559.00	  580.55	-1784.30	  377.90
     66.4700	  572.00	  578.40	-1769.15	  378.01
     66.5700	  584.00	  578.57	-1757.32	  378.11
     66.6700	  557.00	  581.07	-1786.82	  378.22
     66.7700	  602.00	  585.92	-1746.67	  378.33
     66.8700	  592.00	  593.72	-1764.47	  378.44
     66.9700	  556.00	  605.54	-1812.29	  378.54
     67.0700	  658.00	  623.27	-1728.02	  378.65
     67.1700	  680.00	  649.84	-1732.59	  378.76
     67.2700	  627.00	  689.49	-1825.24	  378.87
     67.3700	  725.00	  747.56	-1785.31	  378.98
     67.4700	  805.00	  830.37	-1788.12	  379.09
     67.5700	  962.00	  943.99	-1744.74	  379.19
     67.6700	 1035.00	 1092.87	-1820.62	  379.30
     67.7700	 1308.00	 1277.93	-1732.68	  379.41
     67.8700	 1511.00	 1494.63	-1746.38	  379.52
     67.9700	 1719.00	 1731.03	-1774.78	  379.63
     68.0700	 1973.00	 1966.30	-1756.05	  379.74
     68.1700	 2131.00	 2170.00	-1801.75	  379.85
     68.2700	 2319.00	 2305.41	-1749.16	  379.96
     68.3700	 2388.00	 2340.93	-1715.68	  380.07
     68.4700	 2207.00	 2267.12	-1822.87	  380.18
     68.5700	 2085.00	 2103.03	-1780.78	  380.29
     68.6700	 1859.00	 1884.15	-1787.90	  380.40
     68.7700	 1609.00	 1645.83	-1799.58	  380.51
     68.8700	 1384.00	 1415.05	-1793.80	  380.62
     68.9700	 1188.00	 1209.25	-1784.00	  380.73
     69.0700	 1003.00	 1037.51	-1797.26	  380.84
     69.1700	  875.00	  902.20	-1789.95	  380.95
     69.2700	  824.00	  800.85	-1739.60	  381.06
     69.3700	  727.00	  728.19	-1763.94	  381.17
     69.4700	  716.00	  677.93	-1724.68	  381.28
     69.5700	  648.00	  643.99	-1758.74	  381.39
     69.6700	  627.00	  621.35	-1757.10	  381.49
     69.7700	  584.00	  606.20	-1784.95	  381.60
     69.8700	  624.00	  595.94	-1734.69	  381.71
     69.9700	  613.00	  588.89	-1738.64	  381.82
     70.0700	  576.00	  584.03	-1770.78	  381.93
     70.1700	  611.00	  580.80	-1732.55	  382.04
     70.2700	  593.00	  578.69	-1748.44	  382.15
     70.3700	  598.00	  577.93	-1742.68	  382.25
     70.4700	  571.00	  578.33	-1770.08	  382.36
     70.5700	  617.00	  580.04	-1725.79	  382.47
     70.6700	  597.00	  584.30	-1750.05	  382.58
     70.7700	  628.00	  589.78	-1724.53	  382.68
     70.8700	  584.00	  598.35	-1777.10	  382.79
     70.9700	  635.00	  611.48	-1739.23	  382.89
     71.0700	  612.00	  631.27	-1782.02	  383.00
     71.1700	  652.00	  660.56	-1771.31	  383.11
     71.2700	  719.00	  702.91	-1746.66	  383.21
     71.3700	  719.00	  762.21	-1805.96	  383.32
     71.4700	  814.00	  842.22	-1790.97	  383.42
     71.5700	  961.00	  945.62	-1747.37	  383.53
     71.6700	 1066.00	 1073.07	-1769.82	  383.63
     71.7700	 1201.00	 1222.08	-1783.83	  383.73
     71.8700	 1300.00	 1386.02	-1848.77	  383.84
     71.9700	 1579.00	 1553.31	-1737.06	  383.94
     72.0700	 1765.00	 1706.87	-1704.62	  384.04
     72.1700	 1730.00	 1825.00	-1857.75	  384.14
     72.2700	 1851.00	 1885.67	-1797.42	  384.24
     72.3700	 1831.00	 1875.30	-1807.05	  384.34
     72.4700	 1769.00	 1796.34	-1790.09	  384.44
     72.5700	 1584.00	 1665.80	-1844.55	  384.54
     72.6700	 1587.00	 1506.33	-1682.08	  384.64
     72.7700	 1316.00	 1338.52	-1785.27	  384.74
     72.8700	 1195.00	 1177.80	-1745.55	  384.84
     72.9700	 1021.00	 1034.16	-1775.91	  384.94
     73.0700	  898.00	  912.84	-1777.59	  385.03
     73.1700	  850.00	  815.25	-1728.00	  385.13
     73.2700	  833.00	  740.03	-1669.78	  385.23
     73.3700	  751.00	  684.17	-1695.92	  385.32
     73.4700	  681.00	  643.89	-1725.64	  385.42
     73.5700	  645.00	  615.44	-1733.19	  385.51
     73.6700	  606.00	  595.54	-1752.29	  385.60
     73.7700	  606.00	  581.61	-1738.36	  385.70
     73.8700	  630.00	  571.77	-1704.52	  385.79
     73.9700	  602.00	  564.74	-1725.49	  385.88
     74.0700	  599.00	  559.70	-1723.45	  385.97
     74.1700	  628.00	  555.58	-1690.33	  386.06
     74.2700	  579.00	  553.11	-1736.86	  386.15
     74.3700	  583.00	  551.52	-1731.27	  386.24
     74.4700	  579.00	  550.58	-1734.33	  386.32
     74.5700	  585.00	  550.10	-1727.85	  386.41
     74.6700	  647.00	  549.84	-1665.59	  386.50
     74.7700	  634.00	  549.56	-1678.31	  386.58
     74.8700	  670.00	  549.02	-1641.77	  386.67
     74.9700	  631.00	  548.04	-1679.79	  386.75
     75.0700	  681.00	  546.65	-1628.40	  386.83
     75.1700	  572.00	  545.00	-1735.75	  386.92
     75.2700	  615.00	  543.38	-1691.13	  387.00
     75.3700	  620.00	  542.13	-1684.88	  387.08
     75.4700	  590.00	  541.58	-1714.33	  387.16
     75.5700	  602.00	  542.12	-1702.87	  387.24
     75.6700	  569.00	  544.15	-1737.90	  387.31
     75.7700	  564.00	  548.08	-1746.83	  387.39
     75.8700	  559.00	  554.35	-1758.10	  387.47
     75.9700	  567.00	  563.31	-1759.06	  387.54
     76.0700	  559.00	  575.17	-1778.92	  387.62
     76.1700	  608.00	  590.06	-1744.81	  387.69
     76.2700	  626.00	  607.64	-1744.39	  387.76
     76.3700	  690.00	  627.24	-1699.99	  387.83
     76.4700	  682.00	  647.72	-1728.47	  387.91
     76.5700	  674.00	  667.41	-1756.16	  387.97
     76.6700	  710.00	  684.04	-1736.79	  388.04
     76.7700	  721.00	  695.36	-1737.11	  388.11
     76.8700	  660.00	  699.22	-1801.97	  388.18
     76.9700	  715.00	  694.79	-1742.54	  388.24
     77.0700	  663.00	  682.89	-1782.64	  388.31
     77.1700	  635.00	  665.58	-1793.32	  388.37
     77.2700	  652.00	  645.29	-1756.04	  388.43
     77.3700	  594.00	  624.17	-1792.92	  388.49
     77.4700	  591.00	  603.87	-1775.62	  388.55
     77.5700	  551.00	  585.49	-1797.24	  388.61
     77.6700	  549.00	  569.67	-1783.42	  388.67
     77.7700	  567.00	  556.67	-1752.42	  388.73
     77.8700	  491.00	  546.38	-1818.13	  388.78
     77.9700	  531.00	  538.49	-1770.24	  388.84
     78.0700	  556.00	  532.70	-1739.45	  388.89
     78.1700	  529.00	  528.53	-1762.28	  388.94
     78.2700	  544.00	  525.37	-1744.12	  389.00
     78.3700	  551.00	  523.31	-1735.06	  389.05
     78.4700	  512.00	  521.87	-1772.62	  389.09
     78.5700	  509.00	  520.87	-1774.62	  389.14
     78.6700	  533.00	  520.18	-1749.93	  389.19
     78.7700	  548.00	  519.71	-1734.46	  389.23
     78.8700	  512.00	  519.42	-1770.17	  389.28
     78.9700	  474.00	  519.29	-1808.04	  389.32
     79.0700	  510.00	  519.30	-1772.05	  389.36
     79.1700	  525.00	  519.48	-1757.23	  389.40
     79.2700	  487.00	  519.82	-1795.57	  389.44
     79.3700	  506.00	  520.37	-1777.12	  389.48
     79.4700	  484.00	  521.16	-1799.91	  389.52
     79.5700	  508.00	  522.22	-1776.97	  389.55
     79.6700	  482.00	  523.61	-1804.36	  389.59
     79.7700	  532.00	  525.40	-1756.15	  389.62
     79.8700	  571.00	  527.64	-1719.39	  389.65
     79.9700	  529.00	  530.44	-1764.19	  389.68
     80.0700	  539.00	  533.91	-1757.66	  389.71
     80.1700	  517.00	  538.17	-1783.92	  389.74
     80.2700	  530.00	  543.35	-1776.10	  389.76
     80.3700	  545.00	  549.59	-1767.34	  389.79
     80.4700	  534.00	  557.06	-1785.81	  389.81
     80.5700	  585.00	  565.94	-1743.69	  389.83
     80.6700	  568.00	  576.35	-1771.10	  389.85
     80.7700	  561.00	  588.36	-1790.11	  389.87
     80.8700	  611.00	  601.64	-1753.39	  389.89
     80.9700	  607.00	  616.23	-1771.98	  389.91
     81.0700	  637.00	  631.33	-1757.08	  389.92
     81.1700	  617.00	  646.13	-1791.88	  389.93
     81.2700	  686.00	  659.78	-1736.53	  389.95
     81.3700	  659.00	  671.58	-1775.33	  389.96
     81.4700	  692.00	  681.04	-1751.79	  389.97
     81.5700	  726.00	  687.90	-1724.65	  389.97
     81.6700	  732.00	  692.02	-1722.77	  389.98
     81.7700	  802.00	  693.35	-1654.10	  389.98
     81.8700	  756.00	  691.87	-1698.62	  389.99
     81.9700	  754.00	  687.55	-1696.30	  389.99
     82.0700	  701.00	  680.41	-1742.16	  389.99
     82.1700	  720.00	  670.77	-1713.52	  389.99
     82.2700	  698.00	  659.25	-1724.00	  389.99
     82.3700	  647.00	  646.56	-1762.31	  389.98
     82.4700	  652.00	  633.35	-1744.10	  389.98
     82.5700	  625.00	  620.07	-1757.82	  389.97
     82.6700	  594.00	  607.02	-1775.77	  389.96
     82.7700	  570.00	  594.52	-1787.27	  389.95
     82.8700	  576.00	  582.93	-1769.68	  389.94
     82.9700	  554.00	  572.58	-1781.33	  389.93
     83.0700	  541.00	  563.76	-1785.51	  389.91
     83.1700	  540.00	  556.65	-1779.40	  389.89
     83.2700	  512.00	  551.33	-1802.08	  389.88
     83.3700	  532.00	  547.79	-1778.54	  389.86
     83.4700	  515.00	  545.97	-1793.72	  389.84
     83.5700	  536.00	  545.70	-1772.45	  389.81
     83.6700	  534.00	  546.77	-1775.52	  389.79
     83.7700	  527.00	  548.89	-1784.64	  389.76
     83.8700	  534.00	  551.71	-1780.46	  389.74
     83.9700	  556.00	  554.81	-1761.56	  389.71
     84.0700	  553.00	  557.72	-1767.47	  389.68
     84.1700	  531.00	  559.94	-1791.69	  389.64
     84.2700	  548.00	  560.94	-1775.69	  389.61
     84.3700	  556.00	  560.53	-1767.28	  389.57
     84.4700	  567.00	  558.67	-1754.42	  389.54
     84.5700	  553.00	  555.53	-1765.28	  389.50
     84.6700	  527.00	  551.47	-1787.22	  389.46
     84.7700	  556.00	  546.91	-1753.66	  389.41
     84.8700	  518.00	  542.20	-1786.95	  389.37
     84.9700	  571.00	  537.65	-1729.40	  389.32
     85.0700	  541.00	  533.47	-1755.22	  389.28
     85.1700	  504.00	  529.81	-1788.56	  389.23
     85.2700	  515.00	  526.73	-1774.48	  389.18
     85.3700	  511.00	  524.26	-1776.01	  389.13
     85.4700	  507.00	  522.37	-1778.12	  389.07
     85.5700	  520.00	  521.01	-1763.76	  389.02
     85.6700	  495.00	  520.12	-1787.87	  388.96
     85.7700	  512.00	  519.66	-1770.41	  388.90
     85.8700	  514.00	  519.58	-1768.33	  388.84
     85.9700	  519.00	  519.86	-1763.61	  388.78
     86.0700	  492.00	  520.51	-1791.26	  388.71
     86.1700	  538.00	  521.58	-1746.33	  388.65
     86.2700	  513.00	  523.14	-1772.89	  388.58
     86.3700	  502.00	  525.29	-1786.04	  388.51
     86.4700	  552.00	  528.16	-1738.91	  388.44
     86.5700	  516.00	  531.89	-1778.64	  388.37
     86.6700	  553.00	  536.63	-1746.38	  388.29
     86.7700	  573.00	  542.49	-1732.24	  388.22
     86.8700	  516.00	  549.56	-1796.31	  388.14
     86.9700	  557.00	  557.85	-1763.60	  388.06
     87.0700	  519.00	  567.28	-1811.03	  387.98
     87.1700	  602.00	  577.65	-1738.40	  387.90
     87.2700	  559.00	  588.62	-1792.37	  387.81
     87.3700	  614.00	  599.69	-1748.44	  387.73
     87.4700	  602.00	  610.21	-1770.96	  387.64
     87.5700	  584.00	  619.38	-1798.13	  387.55
     87.6700	  617.00	  626.34	-1772.09	  387.46
     87.7700	  646.00	  630.33	-1747.08	  387.36
     87.8700	  612.00	  630.88	-1781.63	  387.27
     87.9700	  610.00	  628.01	-1780.76	  387.17
     88.0700	  592.00	  622.22	-1792.97	  387.07
     88.1700	  573.00	  614.35	-1804.10	  386.97
     88.2700	  620.00	  605.31	-1748.06	  386.87
     88.3700	  580.00	  595.99	-1778.74	  386.77
     88.4700	  536.00	  587.15	-1813.90	  386.66
     88.5700	  599.00	  579.41	-1743.16	  386.55
     88.6700	  616.00	  573.20	-1719.95	  386.44
     88.7700	  575.00	  568.39	-1756.14	  386.33
     88.8700	  541.00	  565.96	-1787.71	  386.22
     88.9700	  529.00	  565.43	-1799.18	  386.11
     89.0700	  605.00	  566.62	-1724.37	  385.99
     89.1700	  557.00	  569.22	-1774.97	  385.87
     89.2700	  595.00	  572.80	-1740.55	  385.75
     89.3700	  570.00	  576.87	-1769.62	  385.63
     89.4700	  638.00	  580.82	-1705.57	  385.51
     89.5700	  609.00	  584.06	-1737.81	  385.38
     89.6700	  583.00	  586.00	-1765.75	  385.26
     89.7700	  582.00	  586.23	-1766.98	  385.13
     89.8700	  587.00	  584.57	-1760.32	  385.00
     89.9700	  561.00	  581.15	-1782.90	  384.87
     90.0700	  568.00	  576.31	-1771.06	  384.74
     90.1700	  558.00	  570.49	-1775.24	  384.60
     90.2700	  541.00	  564.17	-1785.92	  384.46
     90.3700	  558.00	  557.75	-1762.50	  384.32
     90.4700	  526.00	  551.56	-1788.31	  384.18
     90.5700	  504.00	  545.84	-1804.59	  384.04
     90.6700	  535.00	  540.77	-1768.52	  383.90
     90.7700	  507.00	  536.45	-1792.20	  383.75
     90.8700	  539.00	  532.90	-1756.65	  383.61
     90.9700	  482.00	  530.12	-1810.87	  383.46
     91.0700	  510.00	  528.06	-1780.81	  383.31
     91.1700	  518.00	  526.66	-1771.41	  383.15
     91.2700	  489.00	  525.86	-1799.60	  383.00
     91.3700	  514.00	  525.59	-1774.34	  382.84
     91.4700	  462.00	  525.83	-1826.58	  382.69
     91.5700	  484.00	  526.58	-1805.33	  382.53
     91.6700	  523.00	  527.86	-1767.61	  382.37
     91.7700	  527.00	  529.75	-1765.50	  382.20
     91.8700	  507.00	  532.34	-1788.09	  382.04
     91.9700	  527.00	  535.75	-1771.50	  381.87
     92.0700	  516.00	  540.14	-1786.89	  381.71
     92.1700	  566.00	  545.67	-1742.42	  381.54
     92.2700	  519.00	  552.50	-1796.25	  381.36
     92.3700	  577.00	  560.78	-1746.53	  381.19
     92.4700	  538.00	  570.60	-1795.35	  381.02
     92.5700	  593.00	  582.01	-1751.76	  380.84
     92.6700	  573.00	  595.00	-1784.75	  380.66
     92.7700	  575.00	  609.44	-1797.19	  380.49
     92.8700	  591.00	  625.13	-1796.88	  380.30
     92.9700	  620.00	  641.73	-1784.48	  380.12
     93.0700	  625.00	  658.81	-1796.56	  379.94
     93.1700	  660.00	  675.82	-1778.57	  379.75
     93.2700	  679.00	  692.16	-1775.91	  379.56
     93.3700	  721.00	  707.27	-1749.02	  379.38
     93.4700	  729.00	  720.79	-1754.54	  379.18
     93.5700	  749.00	  732.68	-1746.43	  378.99
     93.6700	  747.00	  743.23	-1758.98	  378.80
     93.7700	  788.00	  752.98	-1727.73	  378.60
     93.8700	  757.00	  762.52	-1768.27	  378.41
     93.9700	  766.00	  772.33	-1769.08	  378.21
     94.0700	  814.00	  782.72	-1731.47	  378.01
     94.1700	  855.00	  793.53	-1701.28	  377.81
     94.2700	  808.00	  805.42	-1760.17	  377.60
     94.3700	  807.00	  818.07	-1773.82	  377.40
     94.4700	  824.00	  831.46	-1770.21	  377.19
     94.5700	  864.00	  845.52	-1744.27	  376.98
     94.6700	  876.00	  859.92	-1746.67	  376.77
     94.7700	  901.00	  874.06	-1735.81	  376.56
     94.8700	  877.00	  886.95	-1772.70	  376.35
     94.9700	  981.00	  897.30	-1679.05	  376.14
     95.0700	  954.00	  903.68	-1712.43	  375.92
     95.1700	  946.00	  904.73	-1721.48	  375.71
     95.2700	  904.00	  899.58	-1758.33	  375.49
     95.3700	  920.00	  888.05	-1730.80	  375.27
     95.4700	  840.00	  870.84	-1793.59	  375.05
     95.5700	  862.00	  849.26	-1750.01	  374.82
     95.6700	  837.00	  825.02	-1750.77	  374.60
     95.7700	  786.00	  799.91	-1776.66	  374.38
     95.8700	  767.00	  775.69	-1771.44	  374.15
     95.9700	  749.00	  754.00	-1767.75	  373.92
     96.0700	  713.00	  736.30	-1786.05	  373.69
     96.1700	  646.00	  723.89	-1840.64	  373.46
     96.2700	  727.00	  717.93	-1753.68	  373.23
     96.3700	  680.00	  719.40	-1802.15	  372.99
     96.4700	  694.00	  729.10	-1797.85	  372.76
     96.5700	  698.00	  747.64	-1812.39	  372.52
     96.6700	  795.00	  775.43	-1743.18	  372.29
     96.7700	  832.00	  812.61	-1743.36	  372.05
     96.8700	  927.00	  859.00	-1694.75	  371.81
     96.9700	  943.00	  914.04	-1733.79	  371.56
     97.0700	  953.00	  976.73	-1786.48	  371.32
     97.1700	 1049.00	 1045.59	-1759.34	  371.08
     97.2700	 1058.00	 1118.60	-1823.35	  370.83
     97.3700	 1172.00	 1193.15	-1783.90	  370.59
     97.4700	 1265.00	 1266.03	-1763.78	  370.34
     97.5700	 1286.00	 1333.53	-1810.28	  370.09
     97.6700	 1397.00	 1391.57	-1757.32	  369.84
     97.7700	 1349.00	 1436.10	-1849.85	  369.59
     97.8700	 1430.00	 1463.66	-1796.41	  369.34
     97.9700	 1463.00	 1472.12	-1771.87	  369.08
     98.0700	 1485.00	 1461.18	-1738.93	  368.83
     98.1700	 1444.00	 1432.35	-1751.10	  368.57
     98.2700	 1360.00	 1388.59	-1791.34	  368.31
     98.3700	 1322.00	 1333.66	-1774.41	  368.06
     98.4700	 1251.00	 1271.56	-1783.31	  367.80
     98.5700	 1149.00	 1206.17	-1819.92	  367.54
     98.6700	 1104.00	 1140.98	-1799.73	  367.28
     98.7700	 1030.00	 1079.06	-1811.81	  367.01
     98.8700	  988.00	 1022.99	-1797.74	  366.75
     98.9700	  942.00	  974.90	-1795.65	  366.49
     99.0700	  856.00	  936.48	-1843.23	  366.22
     99.1700	  954.00	  909.04	-1717.79	  365.95
     99.2700	  907.00	  893.55	-1749.30	  365.69
     99.3700	  918.00	  890.68	-1735.43	  365.42
     99.4700	  866.00	  900.80	-1797.55	  365.15
     99.5700	  967.00	  924.01	-1719.76	  364.88
     99.6700	  944.00	  960.15	-1778.90	  364.61
     99.7700	 1049.00	 1008.75	-1722.50	  364.34
     99.8700	 1066.00	 1069.10	-1765.85	  364.07
     99.9700	 1144.00	 1140.07	-1758.82	  363.79
    100.0700	 1201.00	 1220.18	-1781.93	  363.52
    100.1700	 1324.00	 1307.50	-1746.25	  363.24
    100.2700	 1372.00	 1399.59	-1790.34	  362.97
    100.3700	 1483.00	 1493.50	-1773.25	  362.69
    100.4700	 1564.00	 1585.85	-1784.60	  362.41
    100.5700	 1735.00	 1673.16	-1700.91	  362.14
    100.6700	 1740.00	 1752.04	-1774.79	  361.86
    100.7700	 1779.00	 1819.69	-1803.44	  361.58
    100.8700	 1857.00	 1874.12	-1779.87	  361.30
    100.9700	 1917.00	 1914.11	-1759.86	  361.02
    101.0700	 1959.00	 1938.96	-1742.71	  360.74
    101.1700	 1966.00	 1948.21	-1744.96	  360.45
    101.2700	 1884.00	 1941.55	-1820.30	  360.17
    101.3700	 1871.00	 1918.90	-1810.65	  359.89
    101.4700	 1906.00	 1880.95	-1737.70	  359.60
    101.5700	 1812.00	 1829.34	-1780.09	  359.32
    101.6700	 1804.00	 1766.85	-1725.60	  359.04
    101.7700	 1721.00	 1697.05	-1738.80	  358.75
    101.8700	 1602.00	 1623.78	-1784.53	  358.46
    101.9700	 1624.00	 1550.71	-1689.46	  358.18
    102.0700	 1431.00	 1480.91	-1812.66	  357.89
    102.1700	 1418.00	 1416.70	-1761.45	  357.61
    102.2700	 1411.00	 1359.60	-1711.35	  357.32
    102.3700	 1243.00	 1310.29	-1830.04	  357.03
    102.4700	 1266.00	 1268.75	-1765.50	  356.74
    102.5700	 1273.00	 1234.27	-1724.02	  356.45
    102.6700	 1161.00	 1205.52	-1807.27	  356.17
    102.7700	 1230.00	 1180.76	-1713.51	  355.88
    102.8700	 1149.00	 1157.93	-1771.68	  355.59
    102.9700	 1123.00	 1134.97	-1774.72	  355.30
    103.0700	 1066.00	 1110.10	-1806.85	  355.01
    103.1700	 1095.00	 1082.06	-1749.81	  354.72
    103.2700	 1061.00	 1050.32	-1752.07	  354.43
    103.3700	 1011.00	 1015.01	-1766.76	  354.14
    103.4700	  949.00	  976.77	-1790.52	  353.85
    103.5700	  921.00	  936.56	-1778.31	  353.56
    103.6700	  882.00	  895.43	-1776.18	  353.27
    103.7700	  900.00	  854.40	-1717.15	  352.98
    103.8700	  838.00	  814.40	-1739.15	  352.69
    103.9700	  788.00	  776.22	-1750.97	  352.40
    104.0700	  779.00	  740.51	-1724.26	  352.11
    104.1700	  730.00	  707.74	-1740.49	  351.82
    104.2700	  711.00	  678.21	-1729.96	  351.53
    104.3700	  650.00	  652.08	-1764.83	  351.24
    104.4700	  627.00	  629.38	-1765.13	  350.95
    104.5700	  628.00	  610.01	-1744.76	  350.66
    104.6700	  570.00	  593.76	-1786.51	  350.37
    104.7700	  632.00	  580.39	-1711.14	  350.08
    104.8700	  594.00	  569.59	-1738.34	  349.80
    104.9700	  607.00	  561.05	-1716.80	  349.51
    105.0700	  544.00	  554.48	-1773.23	  349.22
    105.1700	  568.00	  549.58	-1744.33	  348.93
    105.2700	  513.00	  546.10	-1795.85	  348.64
    105.3700	  576.00	  543.83	-1730.58	  348.36
    105.4700	  577.00	  542.60	-1728.35	  348.07
    105.5700	  587.00	  542.27	-1718.02	  347.78
    105.6700	  558.00	  542.74	-1747.49	  347.50
    105.7700	  546.00	  543.95	-1760.70	  347.21
    105.8700	  532.00	  545.86	-1776.61	  346.93
    105.9700	  567.00	  548.44	-1744.19	  346.65
    106.0700	  526.00	  551.72	-1788.47	  346.36
    106.1700	  534.00	  555.72	-1784.47	  346.08
    106.2700	  577.00	  560.48	-1746.23	  345.80
    106.3700	  567.00	  566.02	-1761.77	  345.52
    106.4700	  539.00	  572.39	-1796.14	  345.24
    106.5700	  606.00	  579.56	-1736.31	  344.96
    106.6700	  583.00	  587.52	-1767.27	  344.68
    106.7700	  605.00	  596.18	-1753.93	  344.40
    106.8700	  574.00	  605.41	-1794.16	  344.12
    106.9700	  639.00	  615.04	-1738.79	  343.85
    107.0700	  643.00	  624.84	-1744.59	  343.57
    107.1700	  650.00	  634.54	-1747.29	  343.30
    107.2700	  639.00	  643.82	-1767.57	  343.03
    107.3700	  650.00	  652.34	-1765.09	  342.75
    107.4700	  610.00	  659.78	-1812.53	  342.48
    107.5700	  661.00	  665.83	-1767.58	  342.21
    107.6700	  657.00	  670.27	-1776.02	  341.94
    107.7700	  678.00	  673.07	-1757.82	  341.68
    107.8700	  710.00	  674.28	-1727.03	  341.41
    107.9700	  682.00	  674.13	-1754.88	  341.15
    108.0700	  673.00	  672.96	-1762.71	  340.88
    108.1700	  682.00	  671.15	-1751.90	  340.62
    108.2700	  659.00	  669.09	-1772.84	  340.36
    108.3700	  658.00	  667.14	-1771.89	  340.10
    108.4700	  668.00	  665.56	-1760.31	  339.84
    108.5700	  644.00	  664.56	-1783.31	  339.58
    108.6700	  636.00	  664.24	-1790.99	  339.33
    108.7700	  686.00	  664.62	-1741.37	  339.07
    108.8700	  685.00	  665.61	-1743.36	  338.82
    108.9700	  675.00	  667.03	-1754.78	  338.57
    109.0700	  682.00	  668.64	-1749.39	  338.32
    109.1700	  666.00	  670.10	-1766.85	  338.07
    109.2700	  681.00	  671.07	-1752.82	  337.83
    109.3700	  680.00	  671.16	-1753.91	  337.58
    109.4700	  696.00	  670.07	-1736.82	  337.34
    109.5700	  644.00	  667.54	-1786.29	  337.10
    109.6700	  669.00	  663.49	-1757.24	  336.86
    109.7700	  701.00	  657.93	-1719.68	  336.62
    109.8700	  657.00	  651.03	-1756.78	  336.39
    109.9700	  633.00	  643.02	-1772.77	  336.16
    110.0700	  674.00	  634.19	-1722.94	  335.93
    110.1700	  651.00	  624.85	-1736.60	  335.70
    110.2700	  615.00	  615.30	-1763.05	  335.47
    110.3700	  621.00	  605.80	-1747.55	  335.25
    110.4700	  622.00	  596.59	-1737.34	  335.02
    110.5700	  589.00	  587.87	-1761.62	  334.80
    110.6700	  593.00	  579.83	-1749.58	  334.59
    110.7700	  606.00	  572.56	-1729.31	  334.37
    110.8700	  581.00	  566.18	-1747.93	  334.16
    110.9700	  630.00	  560.72	-1693.47	  333.95
    111.0700	  583.00	  556.22	-1735.97	  333.74
    111.1700	  549.00	  552.65	-1766.40	  333.53
    111.2700	  555.00	  549.99	-1757.74	  333.33
    111.3700	  589.00	  548.18	-1721.93	  333.13
    111.4700	  586.00	  547.15	-1723.90	  332.93
    111.5700	  542.00	  546.84	-1767.59	  332.74
    111.6700	  497.00	  547.15	-1812.90	  332.54
    111.7700	  548.00	  548.00	-1762.75	  332.35
    111.8700	  561.00	  549.31	-1751.06	  332.17
    111.9700	  547.00	  550.99	-1766.74	  331.98
    112.0700	  546.00	  552.98	-1769.73	  331.80
    112.1700	  590.00	  555.22	-1727.97	  331.62
    112.2700	  574.00	  557.65	-1746.40	  331.45
    112.3700	  535.00	  560.23	-1787.98	  331.27
    112.4700	  570.00	  562.96	-1755.71	  331.11
    112.5700	  548.00	  565.83	-1780.58	  330.94
    112.6700	  570.00	  568.86	-1761.61	  330.78
    112.7700	  572.00	  572.09	-1762.84	  330.62
    112.8700	  597.00	  575.58	-1741.33	  330.46
    112.9700	  586.00	  579.39	-1756.14	  330.31
    113.0700	  556.00	  583.61	-1790.36	  330.16
    113.1700	  567.00	  588.34	-1784.09	  330.01
    113.2700	  565.00	  593.71	-1791.46	  329.87
    113.3700	  597.00	  599.88	-1765.63	  329.73
    113.4700	  616.00	  607.02	-1753.77	  329.59
    113.5700	  627.00	  615.39	-1751.14	  329.46
    113.6700	  633.00	  625.27	-1755.02	  329.33
    113.7700	  671.00	  637.06	-1728.81	  329.20
    113.8700	  589.00	  651.20	-1824.95	  329.08
    113.9700	  640.00	  668.28	-1791.03	  328.96
    114.0700	  714.00	  689.02	-1737.77	  328.85
    114.1700	  691.00	  714.26	-1786.01	  328.74
    114.2700	  741.00	  745.02	-1766.77	  328.63
    114.3700	  810.00	  782.53	-1735.28	  328.53
    114.4700	  800.00	  828.18	-1790.93	  328.43
    114.5700	  940.00	  883.58	-1706.33	  328.34
    114.6700	 1012.00	  950.49	-1701.24	  328.25
    114.7700	 1037.00	 1030.87	-1756.62	  328.16
    114.8700	 1172.00	 1126.81	-1717.56	  328.08
    114.9700	 1253.00	 1240.43	-1750.18	  328.00
    115.0700	 1357.00	 1373.91	-1779.66	  327.93
    115.1700	 1574.00	 1529.30	-1718.05	  327.86
    115.2700	 1843.00	 1708.41	-1628.16	  327.80
    115.3700	 2113.00	 1912.85	-1562.60	  327.74
    115.4700	 2136.00	 2143.61	-1770.36	  327.68
    115.5700	 2462.00	 2401.25	-1702.00	  327.63
    115.6700	 2756.00	 2685.49	-1692.24	  327.59
    115.7700	 3049.00	 2995.19	-1708.94	  327.55
    115.8700	 3337.00	 3328.38	-1754.13	  327.51
    115.9700	 3724.00	 3681.87	-1720.62	  327.48
    116.0700	 4122.00	 4051.56	-1692.31	  327.45
    116.1700	 4384.00	 4432.13	-1810.88	  327.43
    116.2700	 4748.00	 4817.05	-1831.80	  327.42
    116.3700	 5153.00	 5198.92	-1808.67	  327.41
    116.4700	 5474.00	 5569.07	-1857.82	  327.40
    116.5700	 5853.00	 5918.19	-1827.94	  327.40
    116.6700	 6238.00	 6236.16	-1760.91	  327.40
    116.7700	 6399.00	 6512.61	-1876.36	  327.41
    116.8700	 6804.00	 6737.62	-1696.37	  327.43
    116.9700	 6901.00	 6902.20	-1763.95	  327.45
    117.0700	 6901.00	 6999.42	-1861.17	  327.47
    117.1700	 7051.00	 7025.00	-1736.75	  327.50
    117.2700	 6831.00	 6978.05	-1909.80	  327.54
    117.3700	 6646.00	 6861.02	-1977.77	  327.58
    117.4700	 6749.00	 6679.55	-1693.30	  327.63
    117.5700	 6323.00	 6441.52	-1881.27	  327.69
    117.6700	 6220.00	 6156.44	-1699.19	  327.75
    117.7700	 5689.00	 5834.54	-1908.29	  327.81
    117.8700	 5286.00	 5485.88	-1962.63	  327.88
    117.9700	 5029.00	 5120.26	-1854.01	  327.96
    118.0700	 4708.00	 4746.49	-1801.24	  328.05
    118.1700	 4575.00	 4372.56	-1560.31	  328.14
    118.2700	 4182.00	 4005.40	-1586.15	  328.23
    118.3700	 3739.00	 3650.62	-1674.37	  328.33
    118.4700	 3473.00	 3312.94	-1602.69	  328.44
    118.5700	 3085.00	 2995.75	-1673.50	  328.56
    118.6700	 2795.00	 2701.57	-1669.32	  328.68
    118.7700	 2495.00	 2431.93	-1699.68	  328.81
    118.8700	 2177.00	 2187.38	-1773.13	  328.94
    118.9700	 1921.00	 1967.91	-1809.66	  329.08
    119.0700	 1753.00	 1772.78	-1782.53	  329.23
    119.1700	 1618.00	 1600.86	-1745.61	  329.39
    119.2700	 1475.00	 1450.65	-1738.40	  329.55
    119.3700	 1319.00	 1320.36	-1764.11	  329.72
    119.4700	 1170.00	 1208.14	-1800.89	  329.89
    119.5700	 1101.00	 1112.00	-1773.75	  330.08
    119.6700	 1039.00	 1030.07	-1753.82	  330.27
    119.7700	  979.00	  960.49	-1744.24	  330.46
    119.8700	  900.00	  901.57	-1764.32	  330.67
    119.9700	  870.00	  851.76	-1744.51	  330.88
    120.0700	  832.00	  809.67	-1740.42	  331.10
    120.1700	  754.00	  774.09	-1782.84	  331.32
    120.2700	  714.00	  744.01	-1792.76	  331.56
    120.3700	  704.00	  718.52	-1777.27	  331.80
    120.4700	  703.00	  696.91	-1756.66	  332.05
    120.5700	  686.00	  678.56	-1755.31	  332.31
    120.6700	  637.00	  662.97	-1788.72	  332.57
    120.7700	  645.00	  649.73	-1767.48	  332.84
    120.8700	  609.00	  638.52	-1792.27	  333.12
    120.9700	  616.00	  629.07	-1775.82	  333.41
    121.0700	  600.00	  621.15	-1783.90	  333.71
    121.1700	  590.00	  614.60	-1787.35	  334.01
    121.2700	  574.00	  609.27	-1798.02	  334.33
    121.3700	  588.00	  605.05	-1779.80	  334.65
    121.4700	  627.00	  601.83	-1737.58	  334.98
    121.5700	  588.00	  599.54	-1774.29	  335.32
    121.6700	  595.00	  598.09	-1765.84	  335.66
    121.7700	  648.00	  597.43	-1712.18	  336.02
    121.8700	  559.00	  597.49	-1801.24	  336.38
    121.9700	  605.00	  598.20	-1755.95	  336.75
    122.0700	  562.00	  599.51	-1800.26	  337.14
    122.1700	  571.00	  601.35	-1793.10	  337.53
    122.2700	  587.00	  603.65	-1779.40	  337.92
    122.3700	  568.00	  606.33	-1801.08	  338.33
    122.4700	  563.00	  609.32	-1809.07	  338.75
    122.5700	  616.00	  612.52	-1759.27	  339.18
    122.6700	  612.00	  615.85	-1766.60	  339.61
    122.7700	  631.00	  619.21	-1750.96	  340.06
    122.8700	  605.00	  622.48	-1780.23	  340.51
    122.9700	  646.00	  625.57	-1742.32	  340.98
    123.0700	  627.00	  628.36	-1764.11	  341.45
    123.1700	  651.00	  630.76	-1742.51	  341.93
    123.2700	  575.00	  632.68	-1820.43	  342.43
    123.3700	  640.00	  634.05	-1756.80	  342.93
    123.4700	  697.00	  634.82	-1700.57	  343.44
    123.5700	  672.00	  634.97	-1725.72	  343.96
    123.6700	  614.00	  634.50	-1783.25	  344.50
    123.7700	  667.00	  633.43	-1729.18	  345.04
    123.8700	  659.00	  631.82	-1735.57	  345.59
    123.9700	  647.00	  629.72	-1745.47	  346.15
    124.0700	  655.00	  627.20	-1734.95	  346.73
    124.1700	  622.00	  624.34	-1765.09	  347.31
    124.2700	  643.00	  621.18	-1740.93	  347.91
    124.3700	  606.00	  617.84	-1774.59	  348.51
    124.4700	  560.00	  614.36	-1817.11	  349.13
    124.5700	  577.00	  610.82	-1796.57	  349.75
    124.6700	  588.00	  607.28	-1782.03	  350.39
    124.7700	  694.00	  603.78	-1672.53	  351.04
    124.8700	  570.00	  600.38	-1793.13	  351.70
    124.9700	  614.00	  461.50	-1610.25	  352.37
    125.0700	  577.00	  462.18	-1762.75	  353.05
    125.1700	  618.00	  462.88	-1762.75	  353.74
    125.2700	  580.00	  463.58	-1762.75	  354.45
    125.3700	  564.00	  464.30	-1762.75	  355.16
    125.4700	  583.00	  465.02	-1762.75	  355.89
    125.5700	  545.00	  465.76	-1762.75	  356.63
    125.6700	  604.00	  466.51	-1762.75	  357.38
    125.7700	  608.00	  467.28	-1762.75	  358.14
    125.8700	  560.00	  468.05	-1762.75	  358.92
    125.9700	  557.00	  468.84	-1762.75	  359.70
    126.0700	  539.00	  469.63	-1762.75	  360.50
    126.1700	  554.00	  470.44	-1762.75	  361.31
    126.2700	  570.00	  471.27	-1762.75	  362.13
    126.3700	  545.00	  472.10	-1762.75	  362.97
    126.4700	  539.00	  472.95	-1762.75	  363.82
    126.5700	  548.00	  473.81	-1762.75	  364.68
    126.6700	  584.00	  474.68	-1762.75	  365.55
    126.7700	  563.00	  475.57	-1762.75	  366.43
    126.8700	  585.00	  476.46	-1762.75	  367.33
    126.9700	  557.00	  477.38	-1762.75	  368.24
    127.0700	  549.00	  478.30	-1762.75	  369.17
    127.1700	  564.00	  479.24	-1762.75	  370.10
    127.2700	  578.00	  480.18	-1762.75	  371.05
    127.3700	  612.00	  481.15	-1762.75	  372.02
    127.4700	  593.00	  482.12	-1762.75	  372.99
    127.5700	  579.00	  483.11	-1762.75	  373.98
    127.6700	  592.00	  484.12	-1762.75	  374.98
    127.7700	  594.00	  485.13	-1762.75	  376.00
    127.8700	  594.00	  486.16	-1762.75	  377.03
    127.9700	  665.00	  487.21	-1762.75	  378.08
    128.0700	  620.00	  488.27	-1762.75	  379.13
    128.1700	  644.00	  489.34	-1762.75	  380.21
    128.2700	  652.00	  490.42	-1762.75	  381.29
    128.3700	  671.00	  491.52	-1762.75	  382.39
    128.4700	  674.00	  492.64	-1762.75	  383.51
    128.5700	    0.00	  493.77	-1762.75	  384.64
    128.6700	    0.00	  494.91	-1762.75	  385.78
     12.3530	        	        	        	        	       0	(  0  0  2)	  0  1
     24.9817	        	        	        	        	       0	(  0  0  4)	  0  1
     28.4107	        	        	        	        	       0	(  1  0  0)	  0  1
     29.1111	        	        	        	        	       0	(  1  0  1)	  0  1
     31.1263	        	        	        	        	       0	(  1  0  2)	  0  1
     34.2484	        	        	        	        	       0	(  1  0  3)	  0  1
     37.9298	        	        	        	        	       0	(  0  0  6)	  0  1
     38.2429	        	        	        	        	       0	(  1  0  4)	  0  1
     42.9133	        	        	        	        	       0	(  1  0  5)	  0  1
     48.1202	        	        	        	        	       0	(  1  0  6)	  0  1
     50.4131	        	        	        	        	       0	(  1  1  0)	  0  1
     51.4064	        	        	        	        	       0	(  0  0  8)	  0  1
     52.1447	        	        	        	        	       0	(  1  1  2)	  0  1
     53.7760	        	        	        	        	       0	(  1  0  7)	  0  1
     57.1173	        	        	        	        	       0	(  1  1  4)	  0  1
     58.9385	        	        	        	        	       0	(  2  0  0)	  0  1
     59.3322	        	        	        	        	       0	(  2  0  1)	  0  1
     59.8347	        	        	        	        	       0	(  1  0  8)	  0  1
     60.5037	        	        	        	        	       0	(  2  0  2)	  0  1
     62.4270	        	        	        	        	       0	(  2  0  3)	  0  1
     64.8515	        	        	        	        	       0	(  1  1  6)	  0  1
     65.0650	        	        	        	        	       0	(  2  0  4)	  0  1
     65.7008	        	        	        	        	       0	(  0  0 10)	  0  1
     66.2826	        	        	        	        	       0	(  1  0  9)	  0  1
     68.3771	        	        	        	        	       0	(  2  0  5)	  0  1
     72.3264	        	        	        	        	       0	(  2  0  6)	  0  1
     73.1346	        	        	        	        	       0	(  1  0 10)	  0  1
     74.9440	        	        	        	        	       0	(  1  1  8)	  0  1
     76.8867	        	        	        	        	       0	(  2  0  7)	  0  1
     80.4338	        	        	        	        	       0	(  1  0 11)	  0  1
     81.2679	        	        	        	        	       0	(  2  1  0)	  0  1
     81.2654	        	        	        	        	       0	(  0  0 12)	  0  1
     81.6099	        	        	        	        	       0	(  2  1  1)	  0  1
     82.0482	        	        	        	        	       0	(  2  0  8)	  0  1
     82.6343	        	        	        	        	       0	(  2  1  2)	  0  1
     84.3365	        	        	        	        	       0	(  2  1  3)	  0  1
     86.7118	        	        	        	        	       0	(  2  1  4)	  0  1
     87.2910	        	        	        	        	       0	(  1  1 10)	  0  1
     87.8235	        	        	        	        	       0	(  2  0  9)	  0  1
     88.2576	        	        	        	        	       0	(  1  0 12)	  0  1
     89.7582	        	        	        	        	       0	(  2  1  5)	  0  1
     93.4821	        	        	        	        	       0	(  2  1  6)	  0  1
     94.2563	        	        	        	        	       0	(  2  0 10)	  0  1
     95.2282	        	        	        	        	       0	(  3  0  0)	  0  1
     95.5681	        	        	        	        	       0	(  3  0  1)	  0  1
     96.5890	        	        	        	        	       0	(  3  0  2)	  0  1
     96.7322	        	        	        	        	       0	(  1  0 13)	  0  1
     97.9042	        	        	        	        	       0	(  2  1  7)	  0  1
     98.2956	        	        	        	        	       0	(  3  0  3)	  0  1
     98.9280	        	        	        	        	       0	(  0  0 14)	  0  1
    100.6978	        	        	        	        	       0	(  3  0  4)	  0  1
    101.4350	        	        	        	        	       0	(  2  0 11)	  0  1
    102.2745	        	        	        	        	       0	(  1  1 12)	  0  1
    103.0690	        	        	        	        	       0	(  2  1  8)	  0  1
    103.8155	        	        	        	        	       0	(  3  0  5)	  0  1
    106.0650	        	        	        	        	       0	(  1  0 14)	  0  1
    107.6853	        	        	        	        	       0	(  3  0  6)	  0  1
    109.0606	        	        	        	        	       0	(  2  1  9)	  0  1
    109.5207	        	        	        	        	       0	(  2  0 12)	  0  1
    112.3716	        	        	        	        	       0	(  3  0  7)	  0  1
    116.0312	        	        	        	        	       0	(  2  1 10)	  0  1
    116.6227	        	        	        	        	       0	(  1  0 15)	  0  1
    117.1152	        	        	        	        	       0	(  2  2  0)	  0  1
    117.9873	        	        	        	        	       0	(  3  0  8)	  0  1
    118.6481	        	        	        	        	       0	(  2  2  2)	  0  1
    118.8104	        	        	        	        	       0	(  2  0 13)	  0  1
    120.6477	        	        	        	        	       0	(  0  0 16)	  0  1
    121.3264	        	        	        	        	       0	(  1  1 14)	  0  1
    123.3930	        	        	        	        	       0	(  2  2  4)	  0  1
    124.2648	        	        	        	        	       0	(  2  1 11)	  0  1
    124.7356	        	        	        	        	       0	(  3  0  9)	  0  1
    125.2692	        	        	        	        	       0	(  3  1  0)	  0  1
    125.6853	        	        	        	        	       0	(  3  1  1)	  0  1
    126.9469	        	        	        	        	       0	(  3  1  2)	  0  1
    129.0981	        	        	        	        	       0	(  3  1  3)	  0  1
    129.1549	        	        	        	        	       0	(  1  0 16)	  0  1
    129.9096	        	        	        	        	       0	(  2  0 14)	  0  1
    131.9648	        	        	        	        	       0	(  2  2  6)	  0  1
    132.2263	        	        	        	        	       0	(  3  1  4)	  0  1
    133.0141	        	        	        	        	       0	(  3  0 10)	  0  1
    134.3525	        	        	        	        	       0	(  2  1 12)	  0  1
    136.4952	        	        	        	        	       0	(  3  1  5)	  0  1
    142.2261	        	        	        	        	       0	(  3  1  6)	  0  1
    143.7537	        	        	        	        	       0	(  3  0 11)	  0  1
    144.4118	        	        	        	        	       0	(  2  0 15)	  0  1
    145.7653	        	        	        	        	       0	(  1  0 17)	  0  1
    146.5561	        	        	        	        	       0	(  2  2  8)	  0  1
    147.8966	        	        	        	        	       0	(  2  1 13)	  0  1
    150.1633	        	        	        	        	       0	(  3  1  7)	  0  1
    151.0456	        	        	        	        	       0	(  1  1 16)	  0  1
    155.8202	        	        	        	        	       0	(  0  0 18)	  0  1
    160.5441	        	        	        	        	       0	(  4  0  0)	  0  1
    160.5365	        	        	        	        	       0	(  3  0 12)	  0  1
    161.5936	        	        	        	        	       0	(  4  0  1)	  0  1
    163.0316	        	        	        	        	       0	(  3  1  8)	  0  1
    165.1690	        	        	        	        	       0	(  4  0  2)	  0  1
    175.2639	        	        	        	        	       0	(  4  0  3)	  0  1
    175.8487	        	        	        	        	       0	(  2  0 16)	  0  1
