MSG Master    CELL:    5.90501   5.90501  23.19210   90.0000   90.0000  120.0000   SPGR: P 63/m m c             TEMP:    845.65
  1   1280     2.52000     0.00000    -0.12863     0.00000     0.00000    0
    98     0     2
       0.00000      10.00000
     125.00000     130.00000
 2Theta	Yobs	Ycal	Yobs-Ycal	Backg	Posr	(hkl)	K
      0.7700	    0.00	  436.28	-1744.21	  328.46
      0.8700	    0.00	  438.33	-1744.21	  330.51
      0.9700	   31.00	  440.35	-1744.21	  332.53
      1.0700	   33.00	  442.36	-1744.21	  334.53
      1.1700	   45.00	  444.34	-1744.21	  336.52
      1.2700	   43.00	  446.30	-1744.21	  338.48
      1.3700	   50.00	  448.24	-1744.21	  340.42
      1.4700	   85.00	  450.16	-1744.21	  342.34
      1.5700	  270.00	  452.06	-1744.21	  344.24
      1.6700	  422.00	  453.94	-1744.21	  346.12
      1.7700	  571.00	  455.80	-1744.21	  347.98
      1.8700	  667.00	  457.64	-1744.21	  349.82
      1.9700	  767.00	  459.46	-1744.21	  351.64
      2.0700	  765.00	  461.26	-1744.21	  353.44
      2.1700	  828.00	  463.04	-1744.21	  355.22
      2.2700	  816.00	  464.81	-1744.21	  356.98
      2.3700	  765.00	  466.55	-1744.21	  358.73
      2.4700	  691.00	  468.27	-1744.21	  360.45
      2.5700	  712.00	  469.97	-1744.21	  362.15
      2.6700	  678.00	  471.66	-1744.21	  363.84
      2.7700	  664.00	  473.32	-1744.21	  365.50
      2.8700	  633.00	  474.97	-1744.21	  367.15
      2.9700	  574.00	  476.60	-1744.21	  368.78
      3.0700	  630.00	  478.21	-1744.21	  370.39
      3.1700	  580.00	  479.80	-1744.21	  371.98
      3.2700	  666.00	  481.37	-1744.21	  373.55
      3.3700	  776.00	  482.93	-1744.21	  375.11
      3.4700	  906.00	  484.46	-1744.21	  376.64
      3.5700	 1023.00	  485.98	-1744.21	  378.16
      3.6700	 1125.00	  487.48	-1744.21	  379.66
      3.7700	 1168.00	  488.97	-1744.21	  381.14
      3.8700	 1257.00	  490.43	-1744.21	  382.61
      3.9700	 1218.00	  491.88	-1744.21	  384.06
      4.0700	 1409.00	  493.31	-1744.21	  385.49
      4.1700	 1297.00	  494.72	-1744.21	  386.90
      4.2700	 1364.00	  496.12	-1744.21	  388.30
      4.3700	 1319.00	  497.50	-1744.21	  389.67
      4.4700	 1250.00	  498.86	-1744.21	  391.04
      4.5700	 1260.00	  500.20	-1744.21	  392.38
      4.6700	 1180.00	  501.53	-1744.21	  393.71
      4.7700	 1174.00	  502.84	-1744.21	  395.02
      4.8700	 1108.00	  504.14	-1744.21	  396.31
      4.9700	 1102.00	  505.41	-1744.21	  397.59
      5.0700	 1045.00	  506.68	-1744.21	  398.85
      5.1700	 1086.00	  507.92	-1744.21	  400.10
      5.2700	 1101.00	  509.15	-1744.21	  401.33
      5.3700	  986.00	  510.36	-1744.21	  402.54
      5.4700	  967.00	  511.56	-1744.21	  403.74
      5.5700	  915.00	  512.74	-1744.21	  404.92
      5.6700	  933.00	  513.91	-1744.21	  406.09
      5.7700	  895.00	  515.06	-1744.21	  407.24
      5.8700	  921.00	  516.19	-1744.21	  408.37
      5.9700	  873.00	  517.31	-1744.21	  409.49
      6.0700	  835.00	  518.42	-1744.21	  410.60
      6.1700	  844.00	  519.51	-1744.21	  411.68
      6.2700	  828.00	  520.58	-1744.21	  412.76
      6.3700	  856.00	  521.64	-1744.21	  413.82
      6.4700	  780.00	  522.68	-1744.21	  414.86
      6.5700	  763.00	  523.71	-1744.21	  415.89
      6.6700	  780.00	  524.73	-1744.21	  416.90
      6.7700	  748.00	  525.73	-1744.21	  417.90
      6.8700	  735.00	  526.71	-1744.21	  418.89
      6.9700	  775.00	  527.68	-1744.21	  419.86
      7.0700	  687.00	  528.64	-1744.21	  420.82
      7.1700	  735.00	  529.58	-1744.21	  421.76
      7.2700	  708.00	  530.51	-1744.21	  422.69
      7.3700	  669.00	  531.43	-1744.21	  423.60
      7.4700	  700.00	  532.33	-1744.21	  424.50
      7.5700	  718.00	  533.21	-1744.21	  425.39
      7.6700	  646.00	  534.09	-1744.21	  426.26
      7.7700	  679.00	  534.94	-1744.21	  427.12
      7.8700	  671.00	  535.79	-1744.21	  427.97
      7.9700	  690.00	  536.62	-1744.21	  428.80
      8.0700	  667.00	  537.44	-1744.21	  429.62
      8.1700	  643.00	  538.25	-1744.21	  430.42
      8.2700	  671.00	  539.04	-1744.21	  431.22
      8.3700	  659.00	  539.82	-1744.21	  432.00
      8.4700	  628.00	  540.59	-1744.21	  432.76
      8.5700	  597.00	  541.34	-1744.21	  433.52
      8.6700	  626.00	  542.08	-1744.21	  434.26
      8.7700	  650.00	  542.81	-1744.21	  434.99
      8.8700	  638.00	  543.53	-1744.21	  435.70
      8.9700	  590.00	  544.23	-1744.21	  436.41
      9.0700	  611.00	  544.92	-1744.21	  437.10
      9.1700	  636.00	  545.60	-1744.21	  437.78
      9.2700	  566.00	  546.27	-1744.21	  438.44
      9.3700	  655.00	  546.92	-1744.21	  439.10
      9.4700	  648.00	  547.56	-1744.21	  439.74
      9.5700	  624.00	  548.19	-1744.21	  440.37
      9.6700	  615.00	  548.81	-1744.21	  440.99
      9.7700	  556.00	  549.42	-1744.21	  441.60
      9.8700	  582.00	  550.01	-1744.21	  442.19
      9.9700	  586.00	  550.60	-1744.21	  442.77
     10.0700	  598.00	  553.16	-1699.38	  443.35
     10.1700	  668.00	  553.91	-1630.12	  443.91
     10.2700	  582.00	  554.69	-1716.90	  444.46
     10.3700	  588.00	  555.52	-1711.73	  445.00
     10.4700	  557.00	  556.43	-1743.64	  445.52
     10.5700	  633.00	  557.47	-1668.68	  446.04
     10.6700	  561.00	  558.73	-1741.94	  446.54
     10.7700	  595.00	  560.28	-1709.49	  447.04
     10.8700	  585.00	  562.22	-1721.43	  447.52
     10.9700	  557.00	  564.59	-1751.80	  447.99
     11.0700	  603.00	  567.38	-1708.60	  448.46
     11.1700	  538.00	  570.61	-1776.83	  448.91
     11.2700	  628.00	  574.31	-1690.52	  449.35
     11.3700	  591.00	  578.55	-1731.76	  449.78
     11.4700	  625.00	  583.46	-1702.67	  450.20
     11.5700	  590.00	  589.23	-1743.45	  450.61
     11.6700	  585.00	  596.18	-1755.39	  451.01
     11.7700	  643.00	  604.70	-1705.91	  451.40
     11.8700	  602.00	  615.11	-1757.32	  451.78
     11.9700	  637.00	  627.25	-1734.46	  452.15
     12.0700	  648.00	  639.74	-1735.95	  452.51
     12.1700	  651.00	  649.23	-1742.44	  452.86
     12.2700	  719.00	  650.34	-1675.55	  453.20
     12.3700	  697.00	  639.20	-1686.41	  453.54
     12.4700	  636.00	  620.16	-1728.37	  453.86
     12.5700	  562.00	  601.77	-1783.98	  454.17
     12.6700	  603.00	  588.20	-1729.41	  454.47
     12.7700	  588.00	  579.59	-1735.80	  454.77
     12.8700	  573.00	  574.62	-1745.83	  455.05
     12.9700	  546.00	  571.86	-1770.07	  455.33
     13.0700	  578.00	  570.28	-1736.49	  455.60
     13.1700	  572.00	  569.31	-1741.53	  455.85
     13.2700	  528.00	  568.68	-1784.89	  456.10
     13.3700	  559.00	  568.26	-1753.47	  456.34
     13.4700	  578.00	  567.97	-1734.18	  456.58
     13.5700	  534.00	  567.78	-1777.99	  456.80
     13.6700	  537.00	  567.65	-1774.87	  457.01
     13.7700	  523.00	  567.59	-1788.80	  457.22
     13.8700	  562.00	  567.58	-1749.80	  457.42
     13.9700	  600.00	  567.58	-1711.79	  457.61
     14.0700	  495.00	  567.60	-1816.81	  457.79
     14.1700	  551.00	  567.63	-1760.85	  457.96
     14.2700	  546.00	  567.68	-1765.89	  458.13
     14.3700	  583.00	  567.73	-1728.94	  458.28
     14.4700	  538.00	  567.79	-1774.00	  458.43
     14.5700	  507.00	  567.85	-1805.06	  458.57
     14.6700	  565.00	  567.92	-1747.13	  458.71
     14.7700	  527.00	  567.98	-1785.19	  458.83
     14.8700	  558.00	  568.04	-1754.25	  458.95
     14.9700	  558.00	  568.10	-1754.31	  459.06
     15.0700	  558.00	  568.16	-1754.37	  459.16
     15.1700	  582.00	  568.22	-1730.43	  459.26
     15.2700	  551.00	  568.27	-1761.48	  459.35
     15.3700	  554.00	  568.32	-1758.53	  459.43
     15.4700	  549.00	  568.36	-1763.57	  459.50
     15.5700	  594.00	  568.40	-1718.61	  459.57
     15.6700	  546.00	  568.44	-1766.65	  459.63
     15.7700	  494.00	  568.47	-1818.68	  459.68
     15.8700	  552.00	  568.49	-1760.70	  459.72
     15.9700	  546.00	  568.51	-1766.72	  459.76
     16.0700	  584.00	  568.53	-1728.74	  459.79
     16.1700	  558.00	  568.54	-1754.75	  459.82
     16.2700	  581.00	  568.54	-1731.75	  459.84
     16.3700	  556.00	  568.54	-1756.75	  459.85
     16.4700	  545.00	  568.53	-1767.74	  459.85
     16.5700	  545.00	  568.52	-1767.73	  459.85
     16.6700	  546.00	  568.50	-1766.71	  459.85
     16.7700	  587.00	  568.48	-1725.69	  459.83
     16.8700	  562.00	  568.45	-1750.66	  459.81
     16.9700	  576.00	  568.41	-1736.63	  459.78
     17.0700	  533.00	  568.37	-1779.59	  459.75
     17.1700	  533.00	  568.33	-1779.54	  459.71
     17.2700	  547.00	  568.28	-1765.49	  459.67
     17.3700	  552.00	  568.22	-1760.43	  459.62
     17.4700	  544.00	  568.27	-1768.48	  459.56
     17.5700	  569.00	  568.21	-1743.42	  459.50
     17.6700	  572.00	  568.14	-1740.35	  459.43
     17.7700	  556.00	  568.06	-1756.27	  459.36
     17.8700	  536.00	  567.98	-1776.19	  459.28
     17.9700	  537.00	  568.00	-1775.21	  459.19
     18.0700	  616.00	  567.91	-1696.12	  459.10
     18.1700	  578.00	  567.82	-1734.03	  459.00
     18.2700	  581.00	  567.72	-1730.93	  458.90
     18.3700	  573.00	  567.62	-1738.83	  458.79
     18.4700	  513.00	  567.51	-1798.72	  458.68
     18.5700	  581.00	  567.40	-1730.61	  458.57
     18.6700	  529.00	  567.28	-1782.49	  458.44
     18.7700	  513.00	  567.16	-1798.37	  458.32
     18.8700	  577.00	  567.03	-1734.24	  458.18
     18.9700	  561.00	  566.90	-1750.11	  458.04
     19.0700	  553.00	  566.76	-1757.97	  457.90
     19.1700	  567.00	  566.62	-1743.83	  457.75
     19.2700	  521.00	  566.48	-1789.69	  457.60
     19.3700	  554.00	  566.33	-1756.54	  457.45
     19.4700	  565.00	  566.18	-1745.39	  457.28
     19.5700	  508.00	  566.02	-1802.23	  457.12
     19.6700	  547.00	  565.90	-1763.11	  456.95
     19.7700	  595.00	  565.73	-1714.95	  456.77
     19.8700	  557.00	  565.57	-1752.78	  456.59
     19.9700	  576.00	  565.40	-1733.61	  456.41
     20.0700	  550.00	  565.22	-1759.43	  456.22
     20.1700	  563.00	  565.04	-1746.26	  456.03
     20.2700	  567.00	  564.86	-1742.07	  455.83
     20.3700	  563.00	  564.68	-1745.89	  455.63
     20.4700	  527.00	  564.49	-1781.70	  455.42
     20.5700	  516.00	  564.30	-1792.51	  455.21
     20.6700	  534.00	  564.10	-1774.32	  455.00
     20.7700	  519.00	  563.91	-1789.12	  454.78
     20.8700	  547.00	  563.71	-1760.92	  454.56
     20.9700	  541.00	  563.51	-1766.72	  454.34
     21.0700	  554.00	  563.30	-1753.52	  454.11
     21.1700	  504.00	  563.10	-1803.31	  453.87
     21.2700	  562.00	  562.89	-1745.10	  453.64
     21.3700	  555.00	  562.68	-1751.89	  453.40
     21.4700	  519.00	  562.47	-1787.68	  453.15
     21.5700	  590.00	  562.26	-1716.47	  452.91
     21.6700	  552.00	  562.04	-1754.26	  452.66
     21.7700	  547.00	  561.83	-1759.04	  452.40
     21.8700	  579.00	  561.62	-1726.83	  452.14
     21.9700	  566.00	  561.40	-1739.62	  451.88
     22.0700	  601.00	  561.19	-1704.40	  451.62
     22.1700	  561.00	  560.98	-1744.19	  451.35
     22.2700	  526.00	  560.93	-1779.14	  451.08
     22.3700	  531.00	  560.73	-1773.94	  450.81
     22.4700	  541.00	  560.53	-1763.74	  450.53
     22.5700	  533.00	  560.33	-1771.54	  450.25
     22.6700	  552.00	  560.14	-1752.36	  449.97
     22.7700	  591.00	  559.96	-1713.18	  449.68
     22.8700	  578.00	  559.79	-1726.01	  449.39
     22.9700	  504.00	  559.59	-1799.80	  449.10
     23.0700	  531.00	  559.45	-1772.66	  448.81
     23.1700	  549.00	  559.33	-1754.55	  448.51
     23.2700	  615.00	  559.24	-1688.45	  448.21
     23.3700	  553.00	  559.18	-1750.40	  447.91
     23.4700	  546.00	  559.17	-1757.39	  447.60
     23.5700	  569.00	  559.22	-1734.44	  447.30
     23.6700	  562.00	  559.36	-1741.57	  446.99
     23.7700	  531.00	  559.63	-1772.84	  446.67
     23.8700	  581.00	  560.10	-1723.32	  446.36
     23.9700	  558.00	  560.93	-1747.14	  446.04
     24.0700	  601.00	  562.33	-1705.54	  445.72
     24.1700	  627.00	  564.69	-1681.90	  445.40
     24.2700	  589.00	  568.50	-1723.71	  445.08
     24.3700	  558.00	  574.32	-1760.53	  444.75
     24.4700	  612.00	  582.57	-1714.78	  444.42
     24.5700	  594.00	  593.21	-1743.43	  444.09
     24.6700	  660.00	  605.31	-1689.53	  443.76
     24.7700	  672.00	  616.42	-1688.63	  443.42
     24.8700	  658.00	  622.25	-1708.46	  443.09
     24.9700	  663.00	  618.37	-1699.59	  442.75
     25.0700	  625.00	  605.58	-1724.79	  442.41
     25.1700	  634.00	  590.31	-1700.52	  442.06
     25.2700	  569.00	  577.53	-1752.74	  441.72
     25.3700	  606.00	  568.58	-1706.79	  441.37
     25.4700	  547.00	  562.97	-1760.18	  441.02
     25.5700	  590.00	  559.64	-1713.86	  440.67
     25.6700	  583.00	  557.65	-1718.87	  440.32
     25.7700	  579.00	  556.39	-1721.60	  439.97
     25.8700	  574.00	  555.51	-1725.73	  439.62
     25.9700	  619.00	  554.88	-1680.09	  439.26
     26.0700	  594.00	  554.42	-1704.63	  438.90
     26.1700	  558.00	  554.09	-1740.30	  438.54
     26.2700	  613.00	  553.88	-1685.09	  438.18
     26.3700	  575.00	  553.78	-1723.00	  437.82
     26.4700	  615.00	  553.80	-1683.01	  437.46
     26.5700	  576.00	  553.93	-1722.14	  437.09
     26.6700	  584.00	  554.20	-1714.41	  436.73
     26.7700	  608.00	  554.62	-1690.83	  436.36
     26.8700	  582.00	  555.23	-1717.44	  435.99
     26.9700	  580.00	  556.07	-1720.28	  435.62
     27.0700	  587.00	  557.22	-1714.44	  435.25
     27.1700	  593.00	  558.80	-1710.01	  434.88
     27.2700	  607.00	  560.99	-1698.20	  434.51
     27.3700	  554.00	  564.17	-1754.38	  434.13
     27.4700	  572.00	  569.04	-1741.25	  433.76
     27.5700	  583.00	  576.89	-1738.11	  433.38
     27.6700	  622.00	  589.83	-1712.04	  433.01
     27.7700	  648.00	  610.85	-1707.06	  432.63
     27.8700	  636.00	  643.19	-1751.40	  432.25
     27.9700	  695.00	  688.62	-1737.84	  431.87
     28.0700	  750.00	  745.01	-1739.22	  431.49
     28.1700	  846.00	  803.73	-1701.95	  431.11
     28.2700	  935.00	  848.23	-1657.44	  430.73
     28.3700	  931.00	  858.54	-1671.75	  430.35
     28.4700	  886.00	  832.29	-1690.50	  429.97
     28.5700	  802.00	  797.09	-1739.30	  429.58
     28.6700	  772.00	  780.47	-1752.69	  429.20
     28.7700	  762.00	  789.85	-1772.06	  428.81
     28.8700	  825.00	  815.67	-1734.89	  428.43
     28.9700	  845.00	  836.66	-1735.87	  428.04
     29.0700	  845.00	  827.74	-1726.95	  427.66
     29.1700	  810.00	  780.84	-1715.06	  427.27
     29.2700	  703.00	  716.79	-1758.00	  426.89
     29.3700	  677.00	  659.02	-1726.23	  426.50
     29.4700	  619.00	  616.86	-1742.07	  426.11
     29.5700	  609.00	  589.92	-1725.13	  425.72
     29.6700	  627.00	  574.09	-1691.30	  425.34
     29.7700	  570.00	  565.00	-1739.21	  424.95
     29.8700	  631.00	  559.59	-1672.80	  424.56
     29.9700	  604.00	  556.21	-1696.42	  424.17
     30.0700	  608.00	  554.13	-1690.35	  423.78
     30.1700	  580.00	  553.19	-1717.40	  423.39
     30.2700	  554.00	  553.58	-1743.79	  423.01
     30.3700	  587.00	  555.86	-1713.07	  422.62
     30.4700	  589.00	  560.96	-1716.17	  422.23
     30.5700	  613.00	  570.03	-1701.24	  421.84
     30.6700	  574.00	  583.77	-1753.98	  421.45
     30.7700	  663.00	  601.54	-1682.75	  421.06
     30.8700	  569.00	  620.38	-1795.59	  420.67
     30.9700	  629.00	  634.55	-1749.76	  420.29
     31.0700	  636.00	  636.60	-1744.81	  419.90
     31.1700	  605.00	  623.35	-1762.56	  419.51
     31.2700	  608.00	  601.37	-1737.59	  419.12
     31.3700	  572.00	  579.82	-1752.03	  418.73
     31.4700	  577.00	  563.18	-1730.39	  418.35
     31.5700	  635.00	  552.03	-1661.25	  417.96
     31.6700	  562.00	  545.25	-1727.46	  417.57
     31.7700	  511.00	  541.28	-1774.49	  417.19
     31.8700	  534.00	  538.91	-1749.12	  416.80
     31.9700	  519.00	  537.40	-1762.61	  416.41
     32.0700	  547.00	  536.38	-1733.59	  416.03
     32.1700	  543.00	  535.68	-1736.89	  415.64
     32.2700	  574.00	  535.23	-1705.44	  415.26
     32.3700	  559.00	  535.01	-1720.22	  414.87
     32.4700	  545.00	  535.01	-1734.22	  414.49
     32.5700	  563.00	  535.23	-1716.44	  414.11
     32.6700	  565.00	  535.71	-1714.92	  413.73
     32.7700	  557.00	  536.49	-1723.71	  413.34
     32.8700	  534.00	  537.65	-1747.86	  412.96
     32.9700	  555.00	  539.30	-1728.51	  412.58
     33.0700	  588.00	  541.63	-1697.85	  412.20
     33.1700	  579.00	  545.04	-1710.25	  411.82
     33.2700	  563.00	  550.28	-1731.49	  411.44
     33.3700	  517.00	  558.72	-1785.94	  411.07
     33.4700	  574.00	  572.95	-1743.16	  410.69
     33.5700	  589.00	  596.90	-1752.11	  410.31
     33.6700	  641.00	  635.52	-1738.73	  409.94
     33.7700	  710.00	  692.80	-1727.01	  409.56
     33.8700	  759.00	  767.93	-1753.15	  409.19
     33.9700	  866.00	  851.06	-1729.27	  408.82
     34.0700	 1008.00	  920.83	-1657.04	  408.44
     34.1700	  973.00	  947.55	-1718.77	  408.07
     34.2700	 1003.00	  912.03	-1653.24	  407.70
     34.3700	  865.00	  831.12	-1710.34	  407.33
     34.4700	  733.00	  741.45	-1752.66	  406.96
     34.5700	  692.00	  666.55	-1718.76	  406.60
     34.6700	  593.00	  613.22	-1764.44	  406.23
     34.7700	  602.00	  579.21	-1721.42	  405.86
     34.8700	  565.00	  558.94	-1738.15	  405.50
     34.9700	  567.00	  546.98	-1724.19	  405.13
     35.0700	  545.00	  539.54	-1738.76	  404.77
     35.1700	  535.00	  534.48	-1743.70	  404.41
     35.2700	  535.00	  530.74	-1739.95	  404.05
     35.3700	  533.00	  527.80	-1739.01	  403.69
     35.4700	  509.00	  525.40	-1760.61	  403.33
     35.5700	  536.00	  523.89	-1732.10	  402.98
     35.6700	  556.00	  522.22	-1710.43	  402.62
     35.7700	  521.00	  520.77	-1743.98	  402.27
     35.8700	  519.00	  519.51	-1744.72	  401.91
     35.9700	  495.00	  518.37	-1767.58	  401.56
     36.0700	  528.00	  517.38	-1733.59	  401.21
     36.1700	  536.00	  516.50	-1724.71	  400.86
     36.2700	  492.00	  515.70	-1767.91	  400.51
     36.3700	  481.00	  514.97	-1778.18	  400.16
     36.4700	  510.00	  514.31	-1748.53	  399.82
     36.5700	  503.00	  513.72	-1754.93	  399.47
     36.6700	  466.00	  513.19	-1791.40	  399.13
     36.7700	  519.00	  512.72	-1737.93	  398.79
     36.8700	  500.00	  512.33	-1756.54	  398.45
     36.9700	  482.00	  512.05	-1774.26	  398.11
     37.0700	  485.00	  511.94	-1771.15	  397.77
     37.1700	  470.00	  512.10	-1786.32	  397.43
     37.2700	  496.00	  512.70	-1760.91	  397.10
     37.3700	  505.00	  513.90	-1753.11	  396.77
     37.4700	  486.00	  515.83	-1774.04	  396.43
     37.5700	  505.00	  518.60	-1757.81	  396.10
     37.6700	  528.00	  521.46	-1737.68	  395.77
     37.7700	  509.00	  523.80	-1759.01	  395.45
     37.8700	  484.00	  524.56	-1784.77	  395.12
     37.9700	  527.00	  523.19	-1740.41	  394.80
     38.0700	  480.00	  520.27	-1784.48	  394.47
     38.1700	  530.00	  516.84	-1731.05	  394.15
     38.2700	  517.00	  513.56	-1740.77	  393.83
     38.3700	  492.00	  510.77	-1762.99	  393.51
     38.4700	  525.00	  508.62	-1727.83	  393.20
     38.5700	  539.00	  507.04	-1712.25	  392.88
     38.6700	  478.00	  505.91	-1772.12	  392.57
     38.7700	  493.00	  505.08	-1756.29	  392.26
     38.8700	  511.00	  504.44	-1737.65	  391.95
     38.9700	  507.00	  503.91	-1741.12	  391.64
     39.0700	  460.00	  503.45	-1787.66	  391.33
     39.1700	  478.00	  503.04	-1769.25	  391.02
     39.2700	  501.00	  502.66	-1745.87	  390.72
     39.3700	  495.00	  502.19	-1751.40	  390.42
     39.4700	  470.00	  501.86	-1776.07	  390.12
     39.5700	  508.00	  501.54	-1737.75	  389.82
     39.6700	  523.00	  501.23	-1722.45	  389.52
     39.7700	  463.00	  500.94	-1782.16	  389.23
     39.8700	  516.00	  500.67	-1728.88	  388.93
     39.9700	  493.00	  500.40	-1751.62	  388.64
     40.0700	  484.00	  500.15	-1760.37	  388.35
     40.1700	  484.00	  499.92	-1760.13	  388.06
     40.2700	  511.00	  500.12	-1733.33	  387.78
     40.3700	  504.00	  499.92	-1740.13	  387.49
     40.4700	  484.00	  499.73	-1759.94	  387.21
     40.5700	  464.00	  499.56	-1779.78	  386.93
     40.6700	  519.00	  499.42	-1724.63	  386.65
     40.7700	  524.00	  499.29	-1719.50	  386.37
     40.8700	  452.00	  499.19	-1791.40	  386.10
     40.9700	  500.00	  499.12	-1743.33	  385.82
     41.0700	  516.00	  499.08	-1727.30	  385.55
     41.1700	  477.00	  499.14	-1766.36	  385.28
     41.2700	  492.00	  499.20	-1751.41	  385.01
     41.3700	  496.00	  499.33	-1747.54	  384.75
     41.4700	  479.00	  499.53	-1764.75	  384.48
     41.5700	  486.00	  499.85	-1758.06	  384.22
     41.6700	  484.00	  500.32	-1760.53	  383.96
     41.7700	  545.00	  501.01	-1700.23	  383.70
     41.8700	  490.00	  502.15	-1756.37	  383.44
     41.9700	  508.00	  503.98	-1740.19	  383.19
     42.0700	  524.00	  507.06	-1727.27	  382.94
     42.1700	  523.00	  512.07	-1733.28	  382.68
     42.2700	  493.00	  520.17	-1771.38	  382.44
     42.3700	  491.00	  532.39	-1785.60	  382.19
     42.4700	  474.00	  549.16	-1819.37	  381.94
     42.5700	  555.00	  569.48	-1758.69	  381.70
     42.6700	  551.00	  590.04	-1783.25	  381.46
     42.7700	  611.00	  605.14	-1738.35	  381.22
     42.8700	  588.00	  608.51	-1764.72	  380.98
     42.9700	  593.00	  597.63	-1748.84	  380.74
     43.0700	  535.00	  577.70	-1786.91	  380.51
     43.1700	  557.00	  555.93	-1743.14	  380.28
     43.2700	  503.00	  536.94	-1778.16	  380.05
     43.3700	  523.00	  522.51	-1743.72	  379.82
     43.4700	  525.00	  512.58	-1731.80	  379.60
     43.5700	  509.00	  506.24	-1741.45	  379.37
     43.6700	  499.00	  502.34	-1747.55	  379.15
     43.7700	  540.00	  499.92	-1704.14	  378.93
     43.8700	  482.00	  498.35	-1760.56	  378.71
     43.9700	  500.00	  497.23	-1741.44	  378.50
     44.0700	  483.00	  496.39	-1757.60	  378.28
     44.1700	  531.00	  495.93	-1709.14	  378.07
     44.2700	  479.00	  495.39	-1760.60	  377.86
     44.3700	  511.00	  494.94	-1728.15	  377.65
     44.4700	  511.00	  494.57	-1727.78	  377.45
     44.5700	  476.00	  494.26	-1762.47	  377.24
     44.6700	  465.00	  494.00	-1773.22	  377.04
     44.7700	  460.00	  493.79	-1778.00	  376.84
     44.8700	  485.00	  493.62	-1752.83	  376.64
     44.9700	  503.00	  493.48	-1734.70	  376.45
     45.0700	  505.00	  493.38	-1732.59	  376.25
     45.1700	  524.00	  493.31	-1713.52	  376.06
     45.2700	  495.00	  493.27	-1742.48	  375.87
     45.3700	  478.00	  493.26	-1759.47	  375.69
     45.4700	  484.00	  493.27	-1753.48	  375.50
     45.5700	  490.00	  493.32	-1747.53	  375.32
     45.6700	  497.00	  493.47	-1740.68	  375.14
     45.7700	  475.00	  493.58	-1762.79	  374.96
     45.8700	  504.00	  493.73	-1733.94	  374.78
     45.9700	  494.00	  493.95	-1744.16	  374.60
     46.0700	  524.00	  494.19	-1714.40	  374.43
     46.1700	  498.00	  494.46	-1740.67	  374.26
     46.2700	  481.00	  494.63	-1757.85	  374.09
     46.3700	  500.00	  495.02	-1739.23	  373.92
     46.4700	  509.00	  495.47	-1730.69	  373.76
     46.5700	  520.00	  496.01	-1720.22	  373.59
     46.6700	  471.00	  496.64	-1769.85	  373.43
     46.7700	  504.00	  497.40	-1737.61	  373.27
     46.8700	  482.00	  498.32	-1760.53	  373.12
     46.9700	  496.00	  499.49	-1747.70	  372.96
     47.0700	  494.00	  501.06	-1751.27	  372.81
     47.1700	  476.00	  503.27	-1771.48	  372.66
     47.2700	  558.00	  506.56	-1692.77	  372.51
     47.3700	  484.00	  511.52	-1771.73	  372.36
     47.4700	  480.00	  518.85	-1783.06	  372.22
     47.5700	  501.00	  529.15	-1772.36	  372.07
     47.6700	  574.00	  542.57	-1712.78	  371.93
     47.7700	  562.00	  558.35	-1740.56	  371.79
     47.8700	  563.00	  574.38	-1755.60	  371.66
     47.9700	  588.00	  587.03	-1743.24	  371.52
     48.0700	  631.00	  592.15	-1705.36	  371.39
     48.1700	  576.00	  588.46	-1756.67	  371.26
     48.2700	  544.00	  577.71	-1777.92	  371.13
     48.3700	  577.00	  564.82	-1732.04	  371.00
     48.4700	  551.00	  553.27	-1746.48	  370.88
     48.5700	  549.00	  544.82	-1740.03	  370.76
     48.6700	  537.00	  540.02	-1747.23	  370.64
     48.7700	  541.00	  538.67	-1741.88	  370.52
     48.8700	  536.00	  540.32	-1748.53	  370.40
     48.9700	  504.00	  544.55	-1784.76	  370.29
     49.0700	  513.00	  551.25	-1782.47	  370.17
     49.1700	  536.00	  560.91	-1769.12	  370.06
     49.2700	  529.00	  574.89	-1790.10	  369.95
     49.3700	  522.00	  596.17	-1818.38	  369.85
     49.4700	  601.00	  630.22	-1773.43	  369.74
     49.5700	  643.00	  685.99	-1787.20	  369.64
     49.6700	  715.00	  775.98	-1805.19	  369.54
     49.7700	  864.00	  914.36	-1794.58	  369.44
     49.8700	 1035.00	 1112.23	-1821.44	  369.34
     49.9700	 1285.00	 1370.07	-1829.28	  369.25
     50.0700	 1634.00	 1669.15	-1779.36	  369.15
     50.1700	 2005.00	 1963.13	-1702.34	  369.06
     50.2700	 2311.00	 2176.97	-1610.18	  368.97
     50.3700	 2298.00	 2231.56	-1677.78	  368.89
     50.4700	 2184.00	 2101.22	-1661.43	  368.80
     50.5700	 1883.00	 1841.23	-1702.44	  368.72
     50.6700	 1473.00	 1538.19	-1809.40	  368.64
     50.7700	 1150.00	 1257.44	-1851.65	  368.56
     50.8700	  919.00	 1031.43	-1856.65	  368.48
     50.9700	  741.00	  869.06	-1872.27	  368.40
     51.0700	  631.00	  763.19	-1876.41	  368.33
     51.1700	  688.00	  699.19	-1755.40	  368.26
     51.2700	  627.00	  661.18	-1778.39	  368.19
     51.3700	  638.00	  636.15	-1742.36	  368.12
     51.4700	  605.00	  616.16	-1755.37	  368.05
     51.5700	  611.00	  598.27	-1731.48	  367.99
     51.6700	  594.00	  582.34	-1732.55	  367.93
     51.7700	  562.00	  568.87	-1751.08	  367.87
     51.8700	  523.00	  558.15	-1779.36	  367.81
     51.9700	  561.00	  550.17	-1733.39	  367.75
     52.0700	  578.00	  544.67	-1710.88	  367.70
     52.1700	  540.00	  541.27	-1745.48	  367.64
     52.2700	  533.00	  539.63	-1750.85	  367.59
     52.3700	  559.00	  539.55	-1724.76	  367.54
     52.4700	  543.00	  541.03	-1742.24	  367.49
     52.5700	  555.00	  544.44	-1733.66	  367.45
     52.6700	  560.00	  550.66	-1734.88	  367.40
     52.7700	  565.00	  561.30	-1740.51	  367.36
     52.8700	  580.00	  578.91	-1743.12	  367.32
     52.9700	  647.00	  607.04	-1704.25	  367.28
     53.0700	  677.00	  649.75	-1716.96	  367.25
     53.1700	  739.00	  710.60	-1715.82	  367.21
     53.2700	  810.00	  790.90	-1725.11	  367.18
     53.3700	  904.00	  887.63	-1727.85	  367.15
     53.4700	  987.00	  991.29	-1748.51	  367.12
     53.5700	 1149.00	 1083.96	-1679.17	  367.09
     53.6700	 1102.00	 1140.83	-1783.04	  367.06
     53.7700	 1089.00	 1141.27	-1796.48	  367.04
     53.8700	 1034.00	 1084.85	-1795.06	  367.01
     53.9700	 1014.00	  992.22	-1722.44	  366.99
     54.0700	  945.00	  888.77	-1687.98	  366.97
     54.1700	  862.00	  792.55	-1674.76	  366.95
     54.2700	  754.00	  713.01	-1703.23	  366.94
     54.3700	  607.00	  653.06	-1790.27	  366.92
     54.4700	  613.00	  611.30	-1742.52	  366.91
     54.5700	  631.00	  584.17	-1697.38	  366.90
     54.6700	  568.00	  567.54	-1743.76	  366.89
     54.7700	  566.00	  557.88	-1736.10	  366.88
     54.8700	  605.00	  552.62	-1691.83	  366.87
     54.9700	  615.00	  550.13	-1679.34	  366.87
     55.0700	  589.00	  549.49	-1704.70	  366.87
     55.1700	  574.00	  550.27	-1720.48	  366.87
     55.2700	  612.00	  552.26	-1684.48	  366.87
     55.3700	  575.00	  555.47	-1724.68	  366.87
     55.4700	  574.00	  559.96	-1730.18	  366.87
     55.5700	  554.00	  566.00	-1756.21	  366.88
     55.6700	  571.00	  574.00	-1747.21	  366.88
     55.7700	  611.00	  584.83	-1718.04	  366.89
     55.8700	  592.00	  600.08	-1752.29	  366.90
     55.9700	  601.00	  622.61	-1765.82	  366.91
     56.0700	  665.00	  657.29	-1736.50	  366.92
     56.1700	  713.00	  711.58	-1742.79	  366.94
     56.2700	  778.00	  795.66	-1761.88	  366.95
     56.3700	  876.00	  921.36	-1789.58	  366.97
     56.4700	 1025.00	 1099.30	-1818.51	  366.99
     56.5700	 1312.00	 1334.64	-1766.85	  367.01
     56.6700	 1560.00	 1621.50	-1805.71	  367.03
     56.7700	 1818.00	 1937.42	-1863.63	  367.05
     56.8700	 2231.00	 2238.49	-1751.70	  367.07
     56.9700	 2476.00	 2459.44	-1727.66	  367.10
     57.0700	 2592.00	 2532.94	-1685.15	  367.13
     57.1700	 2385.00	 2431.80	-1791.02	  367.16
     57.2700	 2157.00	 2192.74	-1779.95	  367.19
     57.3700	 1876.00	 1886.37	-1754.58	  367.22
     57.4700	 1659.00	 1575.57	-1660.78	  367.25
     57.5700	 1182.00	 1300.19	-1862.40	  367.28
     57.6700	 1031.00	 1079.30	-1792.51	  367.32
     57.7700	  828.00	  916.61	-1832.82	  367.36
     57.8700	  829.00	  806.15	-1721.36	  367.39
     57.9700	  770.00	  737.64	-1711.86	  367.43
     58.0700	  680.00	  700.76	-1764.98	  367.47
     58.1700	  695.00	  687.58	-1736.79	  367.52
     58.2700	  731.00	  693.25	-1706.46	  367.56
     58.3700	  773.00	  715.37	-1686.59	  367.60
     58.4700	  697.00	  752.90	-1800.11	  367.65
     58.5700	  810.00	  804.61	-1738.82	  367.70
     58.6700	  858.00	  867.77	-1753.98	  367.74
     58.7700	 1004.00	  936.98	-1677.20	  367.79
     58.8700	 1096.00	 1004.67	-1652.88	  367.84
     58.9700	 1122.00	 1063.97	-1686.18	  367.90
     59.0700	 1272.00	 1111.03	-1583.24	  367.95
     59.1700	 1325.00	 1142.93	-1562.14	  368.00
     59.2700	 1274.00	 1155.82	-1626.03	  368.06
     59.3700	 1216.00	 1149.39	-1677.60	  368.12
     59.4700	 1244.00	 1131.44	-1631.65	  368.17
     59.5700	 1258.00	 1114.36	-1600.57	  368.23
     59.6700	 1221.00	 1108.13	-1631.35	  368.29
     59.7700	 1178.00	 1118.08	-1684.29	  368.35
     59.8700	 1149.00	 1147.16	-1742.37	  368.42
     59.9700	 1139.00	 1197.85	-1803.07	  368.48
     60.0700	 1244.00	 1269.90	-1770.12	  368.54
     60.1700	 1357.00	 1355.71	-1742.92	  368.61
     60.2700	 1445.00	 1437.62	-1736.83	  368.68
     60.3700	 1595.00	 1489.60	-1638.82	  368.74
     60.4700	 1562.00	 1486.58	-1668.79	  368.81
     60.5700	 1547.00	 1420.29	-1617.50	  368.88
     60.6700	 1422.00	 1305.53	-1627.74	  368.95
     60.7700	 1220.00	 1168.30	-1692.51	  369.02
     60.8700	 1114.00	 1031.69	-1661.91	  369.10
     60.9700	  935.00	  910.99	-1720.20	  369.17
     61.0700	  816.00	  814.28	-1742.49	  369.25
     61.1700	  721.00	  744.15	-1767.36	  369.32
     61.2700	  652.00	  699.89	-1792.10	  369.40
     61.3700	  718.00	  679.49	-1705.70	  369.47
     61.4700	  730.00	  681.34	-1695.55	  369.55
     61.5700	  703.00	  705.13	-1746.34	  369.63
     61.6700	  795.00	  751.67	-1700.88	  369.71
     61.7700	  847.00	  821.81	-1719.03	  369.79
     61.8700	  881.00	  914.75	-1777.96	  369.87
     61.9700	  979.00	 1026.22	-1791.43	  369.96
     62.0700	 1064.00	 1146.70	-1826.91	  370.04
     62.1700	 1234.00	 1260.21	-1770.42	  370.13
     62.2700	 1267.00	 1344.56	-1821.77	  370.21
     62.3700	 1260.00	 1377.04	-1861.25	  370.30
     62.4700	 1322.00	 1346.74	-1768.95	  370.38
     62.5700	 1117.00	 1262.71	-1889.92	  370.47
     62.6700	 1170.00	 1147.12	-1721.34	  370.56
     62.7700	  982.00	 1022.53	-1784.75	  370.65
     62.8700	  875.00	  905.32	-1774.53	  370.74
     62.9700	  757.00	  805.12	-1792.33	  370.83
     63.0700	  659.00	  725.86	-1811.07	  370.92
     63.1700	  609.00	  667.30	-1802.51	  371.01
     63.2700	  605.00	  626.68	-1765.89	  371.10
     63.3700	  591.00	  600.17	-1753.38	  371.20
     63.4700	  608.00	  584.05	-1720.26	  371.29
     63.5700	  569.00	  575.44	-1750.65	  371.38
     63.6700	  540.00	  572.58	-1776.79	  371.48
     63.7700	  555.00	  574.84	-1764.05	  371.57
     63.8700	  586.00	  582.56	-1740.77	  371.67
     63.9700	  597.00	  596.80	-1744.01	  371.77
     64.0700	  695.00	  619.06	-1668.27	  371.86
     64.1700	  720.00	  650.59	-1674.81	  371.96
     64.2700	  752.00	  692.18	-1684.39	  372.06
     64.3700	  759.00	  743.28	-1728.49	  372.16
     64.4700	  815.00	  801.43	-1730.64	  372.26
     64.5700	  918.00	  861.72	-1687.93	  372.36
     64.6700	  900.00	  916.48	-1760.69	  372.46
     64.7700	  941.00	  956.39	-1759.60	  372.56
     64.8700	  996.00	  973.60	-1721.81	  372.66
     64.9700	  965.00	  965.51	-1744.72	  372.76
     65.0700	  964.00	  935.02	-1715.23	  372.87
     65.1700	  922.00	  889.56	-1711.77	  372.97
     65.2700	  900.00	  837.72	-1681.94	  373.07
     65.3700	  757.00	  786.23	-1773.44	  373.18
     65.4700	  703.00	  740.49	-1781.71	  373.28
     65.5700	  679.00	  701.73	-1766.94	  373.38
     65.6700	  660.00	  669.68	-1753.89	  373.49
     65.7700	  674.00	  643.38	-1713.59	  373.59
     65.8700	  612.00	  621.97	-1754.19	  373.70
     65.9700	  579.00	  604.93	-1770.14	  373.80
     66.0700	  534.00	  591.76	-1801.98	  373.91
     66.1700	  592.00	  582.18	-1734.39	  374.02
     66.2700	  573.00	  575.56	-1746.77	  374.12
     66.3700	  548.00	  571.48	-1767.69	  374.23
     66.4700	  565.00	  569.81	-1749.02	  374.34
     66.5700	  568.00	  570.38	-1746.59	  374.44
     66.6700	  608.00	  573.18	-1709.39	  374.55
     66.7700	  577.00	  578.40	-1745.61	  374.66
     66.8700	  602.00	  586.66	-1728.87	  374.77
     66.9700	  589.00	  599.20	-1754.41	  374.87
     67.0700	  629.00	  617.98	-1733.19	  374.98
     67.1700	  609.00	  646.28	-1781.49	  375.09
     67.2700	  659.00	  688.65	-1773.86	  375.20
     67.3700	  777.00	  750.94	-1718.15	  375.31
     67.4700	  825.00	  839.74	-1758.95	  375.42
     67.5700	  941.00	  961.29	-1764.50	  375.52
     67.6700	 1137.00	 1119.77	-1726.98	  375.63
     67.7700	 1329.00	 1315.31	-1730.52	  375.74
     67.8700	 1574.00	 1541.89	-1712.10	  375.85
     67.9700	 1798.00	 1785.45	-1731.66	  375.96
     68.0700	 1966.00	 2022.29	-1800.50	  376.07
     68.1700	 2247.00	 2219.13	-1716.34	  376.18
     68.2700	 2417.00	 2337.91	-1665.12	  376.29
     68.3700	 2313.00	 2349.63	-1780.85	  376.40
     68.4700	 2222.00	 2251.12	-1773.34	  376.51
     68.5700	 2157.00	 2067.28	-1654.49	  376.61
     68.6700	 1857.00	 1835.89	-1723.11	  376.72
     68.7700	 1597.00	 1591.87	-1739.08	  376.83
     68.8700	 1368.00	 1360.82	-1737.03	  376.94
     68.9700	 1098.00	 1158.69	-1804.90	  377.05
     69.0700	  933.00	  992.99	-1804.20	  377.16
     69.1700	  788.00	  864.69	-1820.90	  377.27
     69.2700	  760.00	  770.21	-1754.42	  377.37
     69.3700	  685.00	  703.54	-1762.76	  377.48
     69.4700	  668.00	  658.06	-1734.27	  377.59
     69.5700	  653.00	  627.69	-1718.90	  377.70
     69.6700	  561.00	  607.55	-1790.77	  377.81
     69.7700	  609.00	  594.11	-1729.33	  377.91
     69.8700	  623.00	  584.80	-1706.02	  378.02
     69.9700	  536.00	  578.53	-1786.74	  378.13
     70.0700	  566.00	  574.19	-1752.40	  378.23
     70.1700	  547.00	  571.31	-1768.52	  378.34
     70.2700	  568.00	  569.66	-1745.87	  378.45
     70.3700	  565.00	  569.10	-1748.31	  378.55
     70.4700	  528.00	  569.68	-1785.89	  378.66
     70.5700	  522.00	  571.53	-1793.75	  378.76
     70.6700	  552.00	  575.96	-1768.17	  378.87
     70.7700	  588.00	  581.67	-1737.88	  378.97
     70.8700	  603.00	  590.60	-1731.81	  379.08
     70.9700	  574.00	  604.33	-1774.54	  379.18
     71.0700	  637.00	  625.11	-1732.32	  379.29
     71.1700	  658.00	  656.01	-1742.22	  379.39
     71.2700	  677.00	  700.75	-1767.97	  379.49
     71.3700	  785.00	  763.43	-1722.65	  379.59
     71.4700	  862.00	  847.82	-1730.04	  379.70
     71.5700	  918.00	  956.48	-1782.69	  379.80
     71.6700	 1058.00	 1089.62	-1775.83	  379.90
     71.7700	 1279.00	 1243.91	-1709.12	  380.00
     71.8700	 1394.00	 1411.59	-1761.81	  380.10
     71.9700	 1584.00	 1579.60	-1739.81	  380.20
     72.0700	 1680.00	 1729.31	-1793.52	  380.30
     72.1700	 1833.00	 1837.93	-1749.14	  380.40
     72.2700	 1761.00	 1883.99	-1867.20	  380.49
     72.3700	 1792.00	 1856.85	-1809.06	  380.59
     72.4700	 1717.00	 1762.89	-1790.10	  380.69
     72.5700	 1673.00	 1621.63	-1692.84	  380.79
     72.6700	 1450.00	 1456.26	-1750.47	  380.88
     72.7700	 1356.00	 1286.77	-1674.99	  380.98
     72.8700	 1152.00	 1127.65	-1719.86	  381.07
     72.9700	  923.00	  987.92	-1809.14	  381.16
     73.0700	  857.00	  871.88	-1759.09	  381.26
     73.1700	  878.00	  780.08	-1646.29	  381.35
     73.2700	  738.00	  710.52	-1716.74	  381.44
     73.3700	  704.00	  659.70	-1699.91	  381.53
     73.4700	  682.00	  623.60	-1685.81	  381.62
     73.5700	  634.00	  598.40	-1708.62	  381.71
     73.6700	  608.00	  580.93	-1717.14	  381.80
     73.7700	  581.00	  568.74	-1731.95	  381.89
     73.8700	  635.00	  560.11	-1669.32	  381.98
     73.9700	  559.00	  553.38	-1738.60	  382.07
     74.0700	  555.00	  548.89	-1738.10	  382.15
     74.1700	  587.00	  545.64	-1702.85	  382.24
     74.2700	  574.00	  543.35	-1713.56	  382.32
     74.3700	  597.00	  541.81	-1689.02	  382.41
     74.4700	  600.00	  540.83	-1685.04	  382.49
     74.5700	  589.00	  540.24	-1695.45	  382.57
     74.6700	  645.00	  539.82	-1639.04	  382.66
     74.7700	  601.00	  539.38	-1682.59	  382.74
     74.8700	  660.00	  538.70	-1622.92	  382.82
     74.9700	  595.00	  537.69	-1686.90	  382.89
     75.0700	  640.00	  536.37	-1640.58	  382.97
     75.1700	  621.00	  534.91	-1658.12	  383.05
     75.2700	  598.00	  533.58	-1679.80	  383.13
     75.3700	  570.00	  532.68	-1706.89	  383.20
     75.4700	  578.00	  532.53	-1698.74	  383.28
     75.5700	  522.00	  533.48	-1755.69	  383.35
     75.6700	  585.00	  535.93	-1695.14	  383.42
     75.7700	  545.00	  540.30	-1739.51	  383.49
     75.8700	  620.00	  547.02	-1671.23	  383.56
     75.9700	  615.00	  556.45	-1685.66	  383.63
     76.0700	  547.00	  568.76	-1765.97	  383.70
     76.1700	  573.00	  584.05	-1755.26	  383.77
     76.2700	  561.00	  601.93	-1785.14	  383.84
     76.3700	  641.00	  621.62	-1724.83	  383.90
     76.4700	  689.00	  641.88	-1697.09	  383.97
     76.5700	  681.00	  660.92	-1724.13	  384.03
     76.6700	  682.00	  676.40	-1738.61	  384.09
     76.7700	  718.00	  686.09	-1712.30	  384.15
     76.8700	  678.00	  688.04	-1754.25	  384.21
     76.9700	  693.00	  681.80	-1733.01	  384.27
     77.0700	  677.00	  668.56	-1735.77	  384.33
     77.1700	  673.00	  650.53	-1721.75	  384.39
     77.2700	  643.00	  630.11	-1731.32	  384.44
     77.3700	  597.00	  609.32	-1756.53	  384.50
     77.4700	  605.00	  589.69	-1728.90	  384.55
     77.5700	  564.00	  572.15	-1752.37	  384.61
     77.6700	  521.00	  557.34	-1780.55	  384.66
     77.7700	  503.00	  545.34	-1786.55	  384.71
     77.8700	  478.00	  536.00	-1802.21	  384.76
     77.9700	  491.00	  528.99	-1782.20	  384.80
     78.0700	  490.00	  523.88	-1778.09	  384.85
     78.1700	  468.00	  520.03	-1796.24	  384.90
     78.2700	  539.00	  517.49	-1722.70	  384.94
     78.3700	  525.00	  515.73	-1734.94	  384.98
     78.4700	  515.00	  514.51	-1743.72	  385.02
     78.5700	  447.00	  513.66	-1810.87	  385.06
     78.6700	  520.00	  513.08	-1737.29	  385.10
     78.7700	  517.00	  512.69	-1739.90	  385.14
     78.8700	  481.00	  512.46	-1775.67	  385.18
     78.9700	  525.00	  512.37	-1731.58	  385.21
     79.0700	  514.00	  512.42	-1742.64	  385.25
     79.1700	  508.00	  512.64	-1748.85	  385.28
     79.2700	  503.00	  513.03	-1754.24	  385.31
     79.3700	  516.00	  513.63	-1741.85	  385.34
     79.4700	  542.00	  514.48	-1716.70	  385.37
     79.5700	  480.00	  515.63	-1779.84	  385.40
     79.6700	  437.00	  517.11	-1824.32	  385.42
     79.7700	  500.00	  519.00	-1763.21	  385.45
     79.8700	  512.00	  521.36	-1753.57	  385.47
     79.9700	  521.00	  524.27	-1747.49	  385.49
     80.0700	  511.00	  527.84	-1761.05	  385.51
     80.1700	  495.00	  532.16	-1781.38	  385.53
     80.2700	  536.00	  537.35	-1745.56	  385.55
     80.3700	  540.00	  543.53	-1747.74	  385.57
     80.4700	  558.00	  550.84	-1737.06	  385.58
     80.5700	  544.00	  559.46	-1759.68	  385.59
     80.6700	  558.00	  569.53	-1755.74	  385.61
     80.7700	  559.00	  580.86	-1766.07	  385.62
     80.8700	  638.00	  593.75	-1699.96	  385.62
     80.9700	  626.00	  607.60	-1725.81	  385.63
     81.0700	  622.00	  621.82	-1744.03	  385.64
     81.1700	  617.00	  635.64	-1762.85	  385.64
     81.2700	  646.00	  648.26	-1746.47	  385.65
     81.3700	  715.00	  659.05	-1688.26	  385.65
     81.4700	  736.00	  667.55	-1675.76	  385.65
     81.5700	  726.00	  673.47	-1691.69	  385.65
     81.6700	  715.00	  676.68	-1705.89	  385.64
     81.7700	  692.00	  677.09	-1729.31	  385.64
     81.8700	  699.00	  674.69	-1719.91	  385.63
     81.9700	  708.00	  669.44	-1705.65	  385.62
     82.0700	  710.00	  661.43	-1695.65	  385.62
     82.1700	  683.00	  651.09	-1712.30	  385.61
     82.2700	  665.00	  639.09	-1718.31	  385.59
     82.3700	  647.00	  626.21	-1723.42	  385.58
     82.4700	  640.00	  613.07	-1717.28	  385.56
     82.5700	  638.00	  600.13	-1706.35	  385.55
     82.6700	  598.00	  587.76	-1733.97	  385.53
     82.7700	  547.00	  576.25	-1773.47	  385.51
     82.8700	  565.00	  565.95	-1745.16	  385.49
     82.9700	  549.00	  557.13	-1752.35	  385.46
     83.0700	  556.00	  550.00	-1738.21	  385.44
     83.1700	  533.00	  544.67	-1755.88	  385.41
     83.2700	  510.00	  541.17	-1775.38	  385.38
     83.3700	  558.00	  539.46	-1725.67	  385.35
     83.4700	  522.00	  539.43	-1761.64	  385.32
     83.5700	  541.00	  540.91	-1744.12	  385.29
     83.6700	  542.00	  543.64	-1745.85	  385.25
     83.7700	  570.00	  547.30	-1721.51	  385.22
     83.8700	  532.00	  551.47	-1763.68	  385.18
     83.9700	  576.00	  555.60	-1723.82	  385.14
     84.0700	  550.00	  559.28	-1753.49	  385.10
     84.1700	  522.00	  561.82	-1784.03	  385.06
     84.2700	  546.00	  562.80	-1761.01	  385.01
     84.3700	  517.00	  561.94	-1789.15	  384.97
     84.4700	  578.00	  559.28	-1725.49	  384.92
     84.5700	  529.00	  555.16	-1770.37	  384.87
     84.6700	  567.00	  550.06	-1727.27	  384.82
     84.7700	  519.00	  544.47	-1769.68	  384.76
     84.8700	  526.00	  538.82	-1757.03	  384.71
     84.9700	  533.00	  533.43	-1744.65	  384.65
     85.0700	  501.00	  528.56	-1771.77	  384.59
     85.1700	  530.00	  524.33	-1738.54	  384.53
     85.2700	  512.00	  520.81	-1753.02	  384.47
     85.3700	  544.00	  518.03	-1718.24	  384.41
     85.4700	  502.00	  515.92	-1758.13	  384.34
     85.5700	  520.00	  514.43	-1738.64	  384.28
     85.6700	  504.00	  513.47	-1753.68	  384.21
     85.7700	  509.00	  512.97	-1748.19	  384.14
     85.8700	  488.00	  512.89	-1769.10	  384.07
     85.9700	  486.00	  513.20	-1771.41	  383.99
     86.0700	  514.00	  513.90	-1744.12	  383.92
     86.1700	  494.00	  515.05	-1765.26	  383.84
     86.2700	  544.00	  516.70	-1716.91	  383.76
     86.3700	  520.00	  518.98	-1743.19	  383.68
     86.4700	  521.00	  522.00	-1745.21	  383.60
     86.5700	  522.00	  525.91	-1748.12	  383.51
     86.6700	  514.00	  530.86	-1761.07	  383.43
     86.7700	  523.00	  536.96	-1758.17	  383.34
     86.8700	  527.00	  544.30	-1761.51	  383.25
     86.9700	  581.00	  552.87	-1716.09	  383.16
     87.0700	  557.00	  562.59	-1749.80	  383.07
     87.1700	  580.00	  573.21	-1737.42	  382.97
     87.2700	  578.00	  584.35	-1750.56	  382.88
     87.3700	  642.00	  595.47	-1697.69	  382.78
     87.4700	  568.00	  605.86	-1782.08	  382.68
     87.5700	  593.00	  614.68	-1765.90	  382.58
     87.6700	  620.00	  621.05	-1745.27	  382.47
     87.7700	  656.00	  624.24	-1712.45	  382.37
     87.8700	  651.00	  623.86	-1717.08	  382.26
     87.9700	  658.00	  620.08	-1706.29	  382.15
     88.0700	  564.00	  613.49	-1793.71	  382.04
     88.1700	  625.00	  604.98	-1724.19	  381.93
     88.2700	  576.00	  595.47	-1763.69	  381.81
     88.3700	  574.00	  585.85	-1756.06	  381.70
     88.4700	  612.00	  576.85	-1709.06	  381.58
     88.5700	  600.00	  568.62	-1712.84	  381.46
     88.6700	  524.00	  562.44	-1782.65	  381.34
     88.7700	  542.00	  558.11	-1760.32	  381.22
     88.8700	  582.00	  555.72	-1717.93	  381.09
     88.9700	  526.00	  555.18	-1773.39	  380.97
     89.0700	  522.00	  556.28	-1778.49	  380.84
     89.1700	  544.00	  558.67	-1758.88	  380.71
     89.2700	  546.00	  561.93	-1760.14	  380.58
     89.3700	  567.00	  565.54	-1742.75	  380.44
     89.4700	  586.00	  568.92	-1727.13	  380.31
     89.5700	  576.00	  571.50	-1739.71	  380.17
     89.6700	  610.00	  572.77	-1706.99	  380.03
     89.7700	  569.00	  572.41	-1747.62	  379.89
     89.8700	  607.00	  570.32	-1707.53	  379.75
     89.9700	  558.00	  566.69	-1752.90	  379.60
     90.0700	  502.00	  561.88	-1804.09	  379.46
     90.1700	  549.00	  556.31	-1751.53	  379.31
     90.2700	  578.00	  550.41	-1716.62	  379.16
     90.3700	  512.00	  544.53	-1776.74	  379.01
     90.4700	  529.00	  538.95	-1754.16	  378.86
     90.5700	  502.00	  533.88	-1776.09	  378.70
     90.6700	  537.00	  529.44	-1736.66	  378.55
     90.7700	  485.00	  525.72	-1784.93	  378.39
     90.8700	  510.00	  522.73	-1756.94	  378.23
     90.9700	  526.00	  520.44	-1738.65	  378.07
     91.0700	  493.00	  518.80	-1770.01	  377.91
     91.1700	  538.00	  517.75	-1723.96	  377.74
     91.2700	  492.00	  517.24	-1769.45	  377.57
     91.3700	  507.00	  517.22	-1754.43	  377.41
     91.4700	  512.00	  517.69	-1749.90	  377.24
     91.5700	  533.00	  518.64	-1729.86	  377.07
     91.6700	  503.00	  520.14	-1761.35	  376.89
     91.7700	  492.00	  522.26	-1774.48	  376.72
     91.8700	  540.00	  525.13	-1729.34	  376.54
     91.9700	  535.00	  528.88	-1738.09	  376.36
     92.0700	  513.00	  533.68	-1764.89	  376.18
     92.1700	  511.00	  539.70	-1772.92	  376.00
     92.2700	  492.00	  547.13	-1799.34	  375.82
     92.3700	  562.00	  556.08	-1738.29	  375.63
     92.4700	  586.00	  566.67	-1724.89	  375.45
     92.5700	  561.00	  578.93	-1762.15	  375.26
     92.6700	  561.00	  592.81	-1776.03	  375.07
     92.7700	  576.00	  608.18	-1776.39	  374.88
     92.8700	  565.00	  624.76	-1803.97	  374.68
     92.9700	  612.00	  642.21	-1774.42	  374.49
     93.0700	  665.00	  660.02	-1739.23	  374.29
     93.1700	  718.00	  677.61	-1703.82	  374.09
     93.2700	  699.00	  694.36	-1739.58	  373.90
     93.3700	  693.00	  709.74	-1760.95	  373.69
     93.4700	  699.00	  723.45	-1768.66	  373.49
     93.5700	  727.00	  735.55	-1752.77	  373.29
     93.6700	  777.00	  746.44	-1713.65	  373.08
     93.7700	  741.00	  756.67	-1759.88	  372.87
     93.8700	  781.00	  766.50	-1729.71	  372.67
     93.9700	  781.00	  776.94	-1740.15	  372.46
     94.0700	  821.00	  787.92	-1711.14	  372.24
     94.1700	  833.00	  799.50	-1710.71	  372.03
     94.2700	  812.00	  811.65	-1743.86	  371.82
     94.3700	  841.00	  824.35	-1727.57	  371.60
     94.4700	  835.00	  837.58	-1746.80	  371.38
     94.5700	  867.00	  851.21	-1728.43	  371.16
     94.6700	  894.00	  864.88	-1715.09	  370.94
     94.7700	  858.00	  877.87	-1764.09	  370.72
     94.8700	  958.00	  889.14	-1675.36	  370.50
     94.9700	  916.00	  897.35	-1725.57	  370.27
     95.0700	  932.00	  901.08	-1713.29	  370.04
     95.1700	  950.00	  899.12	-1693.33	  369.82
     95.2700	  884.00	  890.83	-1751.04	  369.59
     95.3700	  891.00	  876.38	-1729.59	  369.36
     95.4700	  853.00	  856.71	-1747.92	  369.12
     95.5700	  821.00	  833.31	-1756.52	  368.89
     95.6700	  767.00	  807.95	-1785.16	  368.65
     95.7700	  785.00	  782.42	-1741.63	  368.42
     95.8700	  714.00	  758.43	-1788.64	  368.18
     95.9700	  708.00	  737.54	-1773.75	  367.94
     96.0700	  702.00	  721.16	-1763.37	  367.70
     96.1700	  735.00	  710.53	-1719.74	  367.46
     96.2700	  735.00	  706.74	-1715.95	  367.22
     96.3700	  716.00	  710.73	-1738.94	  366.97
     96.4700	  699.00	  723.24	-1768.45	  366.73
     96.5700	  752.00	  744.84	-1737.06	  366.48
     96.6700	  725.00	  775.87	-1795.08	  366.23
     96.7700	  821.00	  816.37	-1739.58	  365.98
     96.8700	  822.00	  866.05	-1788.27	  365.73
     96.9700	  894.00	  924.21	-1774.42	  365.48
     97.0700	 1025.00	  989.68	-1708.89	  365.23
     97.1700	 1052.00	 1060.76	-1752.97	  364.98
     97.2700	 1135.00	 1135.16	-1744.38	  364.72
     97.3700	 1196.00	 1210.03	-1758.24	  364.46
     97.4700	 1264.00	 1281.88	-1762.09	  364.21
     97.5700	 1293.00	 1346.78	-1798.00	  363.95
     97.6700	 1439.00	 1400.56	-1705.77	  363.69
     97.7700	 1509.00	 1439.19	-1674.40	  363.43
     97.8700	 1394.00	 1459.60	-1809.81	  363.17
     97.9700	 1365.00	 1460.26	-1839.47	  362.90
     98.0700	 1403.00	 1441.58	-1782.80	  362.64
     98.1700	 1380.00	 1405.77	-1769.99	  362.38
     98.2700	 1341.00	 1356.28	-1759.49	  362.11
     98.3700	 1292.00	 1297.13	-1749.34	  361.84
     98.4700	 1142.00	 1232.41	-1834.62	  361.58
     98.5700	 1140.00	 1165.93	-1770.14	  361.31
     98.6700	 1098.00	 1101.04	-1747.25	  361.04
     98.7700	 1070.00	 1040.65	-1714.86	  360.77
     98.8700	  942.00	  987.13	-1789.34	  360.50
     98.9700	  968.00	  942.40	-1718.62	  360.22
     99.0700	  906.00	  907.97	-1746.18	  359.95
     99.1700	  937.00	  884.97	-1692.18	  359.68
     99.2700	  870.00	  874.22	-1748.43	  359.40
     99.3700	  858.00	  876.25	-1762.46	  359.13
     99.4700	  877.00	  891.33	-1758.55	  358.85
     99.5700	  862.00	  919.46	-1801.67	  358.57
     99.6700	  922.00	  960.36	-1782.57	  358.29
     99.7700	  997.00	 1013.51	-1760.72	  358.02
     99.8700	 1072.00	 1078.08	-1750.29	  357.74
     99.9700	 1142.00	 1152.86	-1755.07	  357.46
    100.0700	 1210.00	 1236.24	-1770.45	  357.17
    100.1700	 1331.00	 1326.08	-1739.29	  356.89
    100.2700	 1433.00	 1419.86	-1731.07	  356.61
    100.3700	 1516.00	 1514.47	-1742.68	  356.33
    100.4700	 1625.00	 1606.43	-1725.64	  356.04
    100.5700	 1653.00	 1692.20	-1783.41	  355.76
    100.6700	 1823.00	 1768.57	-1689.78	  355.48
    100.7700	 1846.00	 1832.96	-1731.17	  355.19
    100.8700	 1889.00	 1883.68	-1738.89	  354.91
    100.9700	 1925.00	 1919.68	-1738.89	  354.62
    101.0700	 2008.00	 1940.33	-1676.54	  354.33
    101.1700	 1972.00	 1945.14	-1717.35	  354.05
    101.2700	 1945.00	 1933.71	-1732.92	  353.76
    101.3700	 1923.00	 1906.10	-1727.31	  353.47
    101.4700	 1974.00	 1863.18	-1633.39	  353.18
    101.5700	 1813.00	 1806.96	-1738.17	  352.89
    101.6700	 1764.00	 1740.52	-1720.73	  352.61
    101.7700	 1683.00	 1667.64	-1728.86	  352.32
    101.8700	 1497.00	 1592.26	-1839.47	  352.03
    101.9700	 1494.00	 1517.99	-1768.20	  351.74
    102.0700	 1471.00	 1447.77	-1720.98	  351.45
    102.1700	 1385.00	 1383.77	-1742.98	  351.16
    102.2700	 1347.00	 1327.31	-1724.53	  350.87
    102.3700	 1294.00	 1278.91	-1729.12	  350.58
    102.4700	 1239.00	 1238.35	-1743.56	  350.28
    102.5700	 1224.00	 1204.71	-1724.93	  349.99
    102.6700	 1150.00	 1176.53	-1770.75	  349.70
    102.7700	 1065.00	 1151.94	-1831.15	  349.41
    102.8700	 1102.00	 1128.80	-1771.02	  349.12
    102.9700	 1125.00	 1105.12	-1724.33	  348.83
    103.0700	 1094.00	 1079.20	-1729.42	  348.54
    103.1700	 1061.00	 1050.03	-1733.24	  348.25
    103.2700	 1008.00	 1017.27	-1753.48	  347.96
    103.3700	  995.00	  981.21	-1730.42	  347.67
    103.4700	  957.00	  942.60	-1729.82	  347.38
    103.5700	  960.00	  902.43	-1686.65	  347.08
    103.6700	  877.00	  861.74	-1728.95	  346.79
    103.7700	  748.00	  821.50	-1817.71	  346.50
    103.8700	  783.00	  782.59	-1743.80	  346.21
    103.9700	  764.00	  745.75	-1725.96	  345.92
    104.0700	  759.00	  711.55	-1696.76	  345.63
    104.1700	  667.00	  680.42	-1757.63	  345.35
    104.2700	  641.00	  652.59	-1755.80	  345.06
    104.3700	  612.00	  628.17	-1760.38	  344.77
    104.4700	  650.00	  607.13	-1701.34	  344.48
    104.5700	  606.00	  589.32	-1727.53	  344.19
    104.6700	  579.00	  574.52	-1739.73	  343.91
    104.7700	  581.00	  562.44	-1725.65	  343.62
    104.8700	  581.00	  552.77	-1715.99	  343.33
    104.9700	  565.00	  545.22	-1724.43	  343.05
    105.0700	  551.00	  539.47	-1732.68	  342.76
    105.1700	  565.00	  535.26	-1714.47	  342.48
    105.2700	  540.00	  532.36	-1736.57	  342.19
    105.3700	  561.00	  530.58	-1713.79	  341.91
    105.4700	  528.00	  529.77	-1745.98	  341.63
    105.5700	  512.00	  529.81	-1762.02	  341.35
    105.6700	  576.00	  530.64	-1698.85	  341.07
    105.7700	  527.00	  532.21	-1749.42	  340.79
    105.8700	  543.00	  534.50	-1735.71	  340.51
    105.9700	  547.00	  537.50	-1734.71	  340.23
    106.0700	  573.00	  541.27	-1712.48	  339.95
    106.1700	  502.00	  545.82	-1788.03	  339.67
    106.2700	  560.00	  551.19	-1735.41	  339.40
    106.3700	  567.00	  557.42	-1734.63	  339.12
    106.4700	  580.00	  564.51	-1728.72	  338.85
    106.5700	  539.00	  572.45	-1777.67	  338.58
    106.6700	  592.00	  581.19	-1733.40	  338.31
    106.7700	  588.00	  590.60	-1746.81	  338.04
    106.8700	  592.00	  600.53	-1752.75	  337.77
    106.9700	  657.00	  610.78	-1697.99	  337.50
    107.0700	  587.00	  621.08	-1778.30	  337.23
    107.1700	  641.00	  631.14	-1734.35	  336.97
    107.2700	  654.00	  640.59	-1730.81	  336.70
    107.3700	  650.00	  649.09	-1743.30	  336.44
    107.4700	  706.00	  656.33	-1694.54	  336.18
    107.5700	  672.00	  662.01	-1734.22	  335.92
    107.6700	  672.00	  665.98	-1738.19	  335.66
    107.7700	  677.00	  668.24	-1735.45	  335.40
    107.8700	  647.00	  668.94	-1766.15	  335.15
    107.9700	  688.00	  668.37	-1724.58	  334.89
    108.0700	  660.00	  666.93	-1751.14	  334.64
    108.1700	  689.00	  665.03	-1720.24	  334.39
    108.2700	  670.00	  663.07	-1737.28	  334.14
    108.3700	  640.00	  661.38	-1765.59	  333.90
    108.4700	  636.00	  660.23	-1768.44	  333.65
    108.5700	  675.00	  659.79	-1729.00	  333.41
    108.6700	  713.00	  660.12	-1691.33	  333.16
    108.7700	  631.00	  661.18	-1774.40	  332.92
    108.8700	  646.00	  662.86	-1761.07	  332.69
    108.9700	  669.00	  664.91	-1740.12	  332.45
    109.0700	  627.00	  667.03	-1784.25	  332.22
    109.1700	  624.00	  668.85	-1789.07	  331.98
    109.2700	  675.00	  669.97	-1739.18	  331.75
    109.3700	  672.00	  669.99	-1742.20	  331.53
    109.4700	  665.00	  668.59	-1747.80	  331.30
    109.5700	  689.00	  665.56	-1720.77	  331.08
    109.6700	  697.00	  660.84	-1708.06	  330.86
    109.7700	  653.00	  654.52	-1745.73	  330.64
    109.8700	  674.00	  646.78	-1716.99	  330.42
    109.9700	  651.00	  637.92	-1731.13	  330.21
    110.0700	  661.00	  628.26	-1711.47	  330.00
    110.1700	  639.00	  618.14	-1723.35	  329.79
    110.2700	  620.00	  607.86	-1732.07	  329.58
    110.3700	  583.00	  597.72	-1758.93	  329.38
    110.4700	  582.00	  587.95	-1750.16	  329.17
    110.5700	  555.00	  578.77	-1767.98	  328.98
    110.6700	  620.00	  570.35	-1694.56	  328.78
    110.7700	  594.00	  562.80	-1713.02	  328.59
    110.8700	  535.00	  556.21	-1765.43	  328.40
    110.9700	  589.00	  550.63	-1705.84	  328.21
    111.0700	  527.00	  546.04	-1763.25	  328.02
    111.1700	  580.00	  542.44	-1706.66	  327.84
    111.2700	  577.00	  539.79	-1707.00	  327.66
    111.3700	  529.00	  538.00	-1753.22	  327.49
    111.4700	  535.00	  537.02	-1746.23	  327.31
    111.5700	  560.00	  536.75	-1720.96	  327.14
    111.6700	  549.00	  537.10	-1732.31	  326.98
    111.7700	  488.00	  537.99	-1794.20	  326.81
    111.8700	  571.00	  539.33	-1712.54	  326.65
    111.9700	  555.00	  541.04	-1730.25	  326.50
    112.0700	  532.00	  543.06	-1755.28	  326.34
    112.1700	  517.00	  545.34	-1772.55	  326.19
    112.2700	  531.00	  547.81	-1761.03	  326.04
    112.3700	  551.00	  550.47	-1743.68	  325.90
    112.4700	  528.00	  553.29	-1769.50	  325.76
    112.5700	  559.00	  556.29	-1741.50	  325.62
    112.6700	  577.00	  559.48	-1726.69	  325.49
    112.7700	  532.00	  562.92	-1775.13	  325.36
    112.8700	  557.00	  566.66	-1753.87	  325.24
    112.9700	  570.00	  570.77	-1744.99	  325.12
    113.0700	  572.00	  575.35	-1747.56	  325.00
    113.1700	  550.00	  580.49	-1774.70	  324.89
    113.2700	  582.00	  586.33	-1748.55	  324.78
    113.3700	  575.00	  593.05	-1762.27	  324.67
    113.4700	  598.00	  600.86	-1747.07	  324.57
    113.5700	  648.00	  610.00	-1706.22	  324.47
    113.6700	  593.00	  620.83	-1772.04	  324.38
    113.7700	  658.00	  633.75	-1719.96	  324.29
    113.8700	  639.00	  649.28	-1754.49	  324.20
    113.9700	  647.00	  668.06	-1765.27	  324.12
    114.0700	  693.00	  690.86	-1742.07	  324.05
    114.1700	  704.00	  718.62	-1758.83	  323.98
    114.2700	  772.00	  752.45	-1724.66	  323.91
    114.3700	  814.00	  793.66	-1723.87	  323.85
    114.4700	  872.00	  843.74	-1715.95	  323.79
    114.5700	  929.00	  904.37	-1719.58	  323.73
    114.6700	  937.00	  977.41	-1784.63	  323.69
    114.7700	 1081.00	 1064.90	-1728.11	  323.64
    114.8700	 1217.00	 1168.93	-1696.15	  323.60
    114.9700	 1325.00	 1291.67	-1710.88	  323.57
    115.0700	 1503.00	 1435.18	-1676.40	  323.54
    115.1700	 1707.00	 1601.46	-1638.67	  323.51
    115.2700	 1890.00	 1792.24	-1646.45	  323.50
    115.3700	 2150.00	 2008.80	-1603.01	  323.48
    115.4700	 2363.00	 2251.94	-1633.15	  323.47
    115.5700	 2638.00	 2521.74	-1627.96	  323.47
    115.6700	 2902.00	 2817.56	-1659.78	  323.47
    115.7700	 3250.00	 3137.93	-1632.14	  323.48
    115.8700	 3516.00	 3480.22	-1708.44	  323.49
    115.9700	 3826.00	 3840.81	-1759.02	  323.51
    116.0700	 4049.00	 4214.89	-1910.10	  323.53
    116.1700	 4468.00	 4596.65	-1872.86	  323.56
    116.2700	 4966.00	 4979.18	-1757.39	  323.59
    116.3700	 5230.00	 5354.38	-1868.59	  323.63
    116.4700	 5646.00	 5713.27	-1811.48	  323.68
    116.5700	 5904.00	 6046.03	-1886.25	  323.73
    116.6700	 6493.00	 6342.51	-1593.73	  323.79
    116.7700	 6515.00	 6592.53	-1821.75	  323.85
    116.8700	 6807.00	 6786.54	-1723.75	  323.92
    116.9700	 6750.00	 6916.52	-1910.73	  324.00
    117.0700	 6927.00	 6976.85	-1794.06	  324.08
    117.1700	 6771.00	 6965.00	-1938.22	  324.17
    117.2700	 6843.00	 6881.84	-1783.05	  324.26
    117.3700	 6752.00	 6731.52	-1723.73	  324.36
    117.4700	 6491.00	 6520.94	-1774.15	  324.47
    117.5700	 6245.00	 6258.99	-1758.20	  324.58
    117.6700	 5865.00	 5955.53	-1834.74	  324.70
    117.7700	 5564.00	 5620.71	-1800.93	  324.83
    117.8700	 5066.00	 5264.51	-1942.72	  324.96
    117.9700	 4853.00	 4896.19	-1787.41	  325.10
    118.0700	 4532.00	 4524.19	-1736.40	  325.25
    118.1700	 4150.00	 4155.78	-1750.00	  325.41
    118.2700	 3904.00	 3797.14	-1637.35	  325.57
    118.3700	 3570.00	 3453.41	-1627.62	  325.73
    118.4700	 3298.00	 3128.58	-1574.79	  325.91
    118.5700	 2941.00	 2825.60	-1628.81	  326.09
    118.6700	 2637.00	 2546.31	-1653.53	  326.28
    118.7700	 2323.00	 2291.69	-1712.90	  326.48
    118.8700	 2159.00	 2061.99	-1647.20	  326.68
    118.9700	 1863.00	 1856.79	-1738.00	  326.89
    119.0700	 1677.00	 1675.16	-1742.38	  327.11
    119.1700	 1468.00	 1515.73	-1791.94	  327.34
    119.2700	 1400.00	 1376.82	-1721.04	  327.57
    119.3700	 1277.00	 1256.66	-1723.88	  327.81
    119.4700	 1129.00	 1153.34	-1768.56	  328.06
    119.5700	 1105.00	 1064.97	-1704.18	  328.32
    119.6700	  955.00	  989.67	-1778.88	  328.58
    119.7700	  898.00	  925.70	-1771.92	  328.85
    119.8700	  872.00	  871.47	-1743.69	  329.14
    119.9700	  843.00	  825.54	-1726.75	  329.42
    120.0700	  831.00	  786.65	-1699.86	  329.72
    120.1700	  740.00	  753.69	-1757.90	  330.03
    120.2700	  697.00	  725.72	-1772.93	  330.34
    120.3700	  686.00	  701.95	-1760.17	  330.66
    120.4700	  669.00	  681.74	-1756.95	  330.99
    120.5700	  621.00	  664.53	-1787.74	  331.33
    120.6700	  588.00	  649.88	-1806.09	  331.68
    120.7700	  591.00	  637.43	-1790.64	  332.04
    120.8700	  639.00	  626.87	-1732.08	  332.40
    120.9700	  566.00	  617.97	-1796.18	  332.78
    121.0700	  623.00	  610.54	-1731.75	  333.16
    121.1700	  586.00	  604.40	-1762.62	  333.55
    121.2700	  565.00	  599.44	-1778.65	  333.95
    121.3700	  553.00	  595.53	-1786.75	  334.36
    121.4700	  631.00	  592.59	-1705.81	  334.78
    121.5700	  579.00	  590.54	-1755.75	  335.21
    121.6700	  619.00	  589.30	-1714.51	  335.65
    121.7700	  564.00	  588.80	-1769.01	  336.10
    121.8700	  631.00	  588.98	-1702.20	  336.56
    121.9700	  584.00	  589.79	-1750.00	  337.02
    122.0700	  585.00	  591.15	-1750.36	  337.50
    122.1700	  539.00	  593.00	-1798.21	  337.99
    122.2700	  593.00	  595.27	-1746.48	  338.48
    122.3700	  560.00	  597.88	-1782.09	  338.99
    122.4700	  633.00	  600.76	-1711.97	  339.51
    122.5700	  592.00	  603.81	-1756.02	  340.03
    122.6700	  603.00	  606.95	-1748.16	  340.57
    122.7700	  602.00	  610.07	-1752.28	  341.12
    122.8700	  623.00	  613.08	-1734.29	  341.68
    122.9700	  637.00	  615.87	-1723.08	  342.24
    123.0700	  622.00	  618.36	-1740.57	  342.82
    123.1700	  611.00	  620.44	-1753.66	  343.41
    123.2700	  601.00	  622.06	-1765.27	  344.01
    123.3700	  638.00	  623.14	-1729.35	  344.62
    123.4700	  649.00	  623.66	-1718.87	  345.24
    123.5700	  654.00	  623.61	-1713.82	  345.88
    123.6700	  641.00	  623.01	-1726.22	  346.52
    123.7700	  657.00	  621.88	-1709.09	  347.17
    123.8700	  597.00	  620.29	-1767.50	  347.84
    123.9700	  631.00	  618.26	-1731.47	  348.52
    124.0700	  566.00	  615.91	-1794.12	  349.20
    124.1700	  627.00	  613.28	-1730.49	  349.90
    124.2700	  623.00	  610.44	-1731.65	  350.62
    124.3700	  628.00	  607.45	-1723.66	  351.34
    124.4700	  599.00	  604.37	-1749.58	  352.07
    124.5700	  597.00	  601.25	-1748.46	  352.82
    124.6700	  602.00	  598.15	-1740.36	  353.58
    124.7700	  579.00	  595.11	-1760.32	  354.35
    124.8700	  637.00	  592.17	-1699.38	  355.13
    124.9700	  584.00	  463.75	-1623.96	  355.93
    125.0700	  565.00	  464.56	-1744.21	  356.73
    125.1700	  591.00	  465.38	-1744.21	  357.55
    125.2700	  601.00	  466.21	-1744.21	  358.39
    125.3700	  572.00	  467.05	-1744.21	  359.23
    125.4700	  594.00	  467.91	-1744.21	  360.09
    125.5700	  566.00	  468.78	-1744.21	  360.96
    125.6700	  592.00	  469.66	-1744.21	  361.84
    125.7700	  541.00	  470.56	-1744.21	  362.74
    125.8700	  570.00	  471.47	-1744.21	  363.64
    125.9700	  593.00	  472.39	-1744.21	  364.57
    126.0700	  615.00	  473.32	-1744.21	  365.50
    126.1700	  585.00	  474.27	-1744.21	  366.45
    126.2700	  563.00	  475.23	-1744.21	  367.41
    126.3700	  532.00	  476.21	-1744.21	  368.38
    126.4700	  525.00	  477.20	-1744.21	  369.37
    126.5700	  559.00	  478.20	-1744.21	  370.38
    126.6700	  566.00	  479.21	-1744.21	  371.39
    126.7700	  499.00	  480.24	-1744.21	  372.42
    126.8700	  526.00	  481.29	-1744.21	  373.46
    126.9700	  583.00	  482.35	-1744.21	  374.52
    127.0700	  573.00	  483.42	-1744.21	  375.59
    127.1700	  553.00	  484.50	-1744.21	  376.68
    127.2700	  575.00	  485.60	-1744.21	  377.78
    127.3700	  571.00	  486.72	-1744.21	  378.90
    127.4700	  618.00	  487.85	-1744.21	  380.03
    127.5700	  598.00	  488.99	-1744.21	  381.17
    127.6700	  619.00	  490.15	-1744.21	  382.33
    127.7700	  607.00	  491.33	-1744.21	  383.50
    127.8700	  624.00	  492.51	-1744.21	  384.69
    127.9700	  574.00	  493.72	-1744.21	  385.89
    128.0700	  570.00	  494.94	-1744.21	  387.11
    128.1700	  649.00	  496.17	-1744.21	  388.35
    128.2700	  668.00	  497.42	-1744.21	  389.60
    128.3700	  696.00	  498.68	-1744.21	  390.86
    128.4700	  701.00	  499.96	-1744.21	  392.14
    128.5700	    0.00	  501.26	-1744.21	  393.44
    128.6700	    0.00	  502.57	-1744.21	  394.75
     12.3473	        	        	        	        	       0	(  0  0  2)	  0  1
     24.9742	        	        	        	        	       0	(  0  0  4)	  0  1
     28.3991	        	        	        	        	       0	(  1  0  0)	  0  1
     29.0995	        	        	        	        	       0	(  1  0  1)	  0  1
     31.1146	        	        	        	        	       0	(  1  0  2)	  0  1
     34.2366	        	        	        	        	       0	(  1  0  3)	  0  1
     37.9205	        	        	        	        	       0	(  0  0  6)	  0  1
     38.2307	        	        	        	        	       0	(  1  0  4)	  0  1
     42.9007	        	        	        	        	       0	(  1  0  5)	  0  1
     48.1070	        	        	        	        	       0	(  1  0  6)	  0  1
     50.3952	        	        	        	        	       0	(  1  1  0)	  0  1
     51.3950	        	        	        	        	       0	(  0  0  8)	  0  1
     52.1267	        	        	        	        	       0	(  1  1  2)	  0  1
     53.7622	        	        	        	        	       0	(  1  0  7)	  0  1
     57.0988	        	        	        	        	       0	(  1  1  4)	  0  1
     58.9178	        	        	        	        	       0	(  2  0  0)	  0  1
     59.3114	        	        	        	        	       0	(  2  0  1)	  0  1
     59.8199	        	        	        	        	       0	(  1  0  8)	  0  1
     60.4828	        	        	        	        	       0	(  2  0  2)	  0  1
     62.4059	        	        	        	        	       0	(  2  0  3)	  0  1
     64.8321	        	        	        	        	       0	(  1  1  6)	  0  1
     65.0437	        	        	        	        	       0	(  2  0  4)	  0  1
     65.6870	        	        	        	        	       0	(  0  0 10)	  0  1
     66.2668	        	        	        	        	       0	(  1  0  9)	  0  1
     68.3553	        	        	        	        	       0	(  2  0  5)	  0  1
     72.3041	        	        	        	        	       0	(  2  0  6)	  0  1
     73.1176	        	        	        	        	       0	(  1  0 10)	  0  1
     74.9230	        	        	        	        	       0	(  1  1  8)	  0  1
     76.8636	        	        	        	        	       0	(  2  0  7)	  0  1
     80.4153	        	        	        	        	       0	(  1  0 11)	  0  1
     81.2386	        	        	        	        	       0	(  2  1  0)	  0  1
     81.2484	        	        	        	        	       0	(  0  0 12)	  0  1
     81.5806	        	        	        	        	       0	(  2  1  1)	  0  1
     82.0240	        	        	        	        	       0	(  2  0  8)	  0  1
     82.6047	        	        	        	        	       0	(  2  1  2)	  0  1
     84.3066	        	        	        	        	       0	(  2  1  3)	  0  1
     86.6813	        	        	        	        	       0	(  2  1  4)	  0  1
     87.2674	        	        	        	        	       0	(  1  1 10)	  0  1
     87.7980	        	        	        	        	       0	(  2  0  9)	  0  1
     88.2373	        	        	        	        	       0	(  1  0 12)	  0  1
     89.7271	        	        	        	        	       0	(  2  1  5)	  0  1
     93.4499	        	        	        	        	       0	(  2  1  6)	  0  1
     94.2291	        	        	        	        	       0	(  2  0 10)	  0  1
     95.1920	        	        	        	        	       0	(  3  0  0)	  0  1
     95.5318	        	        	        	        	       0	(  3  0  1)	  0  1
     96.5524	        	        	        	        	       0	(  3  0  2)	  0  1
     96.7095	        	        	        	        	       0	(  1  0 13)	  0  1
     97.8706	        	        	        	        	       0	(  2  1  7)	  0  1
     98.2583	        	        	        	        	       0	(  3  0  3)	  0  1
     98.9064	        	        	        	        	       0	(  0  0 14)	  0  1
    100.6597	        	        	        	        	       0	(  3  0  4)	  0  1
    101.4055	        	        	        	        	       0	(  2  0 11)	  0  1
    102.2465	        	        	        	        	       0	(  1  1 12)	  0  1
    103.0336	        	        	        	        	       0	(  2  1  8)	  0  1
    103.7762	        	        	        	        	       0	(  3  0  5)	  0  1
    106.0392	        	        	        	        	       0	(  1  0 14)	  0  1
    107.6443	        	        	        	        	       0	(  3  0  6)	  0  1
    109.0227	        	        	        	        	       0	(  2  1  9)	  0  1
    109.4881	        	        	        	        	       0	(  2  0 12)	  0  1
    112.3283	        	        	        	        	       0	(  3  0  7)	  0  1
    115.9897	        	        	        	        	       0	(  2  1 10)	  0  1
    116.5924	        	        	        	        	       0	(  1  0 15)	  0  1
    117.0632	        	        	        	        	       0	(  2  2  0)	  0  1
    117.9405	        	        	        	        	       0	(  3  0  8)	  0  1
    118.5949	        	        	        	        	       0	(  2  2  2)	  0  1
    118.7730	        	        	        	        	       0	(  2  0 13)	  0  1
    120.6174	        	        	        	        	       0	(  0  0 16)	  0  1
    121.2896	        	        	        	        	       0	(  1  1 14)	  0  1
    123.3361	        	        	        	        	       0	(  2  2  4)	  0  1
    124.2177	        	        	        	        	       0	(  2  1 11)	  0  1
    124.6838	        	        	        	        	       0	(  3  0  9)	  0  1
    125.2085	        	        	        	        	       0	(  3  1  0)	  0  1
    125.6241	        	        	        	        	       0	(  3  1  1)	  0  1
    126.8846	        	        	        	        	       0	(  3  1  2)	  0  1
    129.0334	        	        	        	        	       0	(  3  1  3)	  0  1
    129.1171	        	        	        	        	       0	(  1  0 16)	  0  1
    129.8645	        	        	        	        	       0	(  2  0 14)	  0  1
    131.8990	        	        	        	        	       0	(  2  2  6)	  0  1
    132.1578	        	        	        	        	       0	(  3  1  4)	  0  1
    132.9541	        	        	        	        	       0	(  3  0 10)	  0  1
    134.2959	        	        	        	        	       0	(  2  1 12)	  0  1
    136.4207	        	        	        	        	       0	(  3  1  5)	  0  1
    142.1413	        	        	        	        	       0	(  3  1  6)	  0  1
    143.6774	        	        	        	        	       0	(  3  0 11)	  0  1
    144.3491	        	        	        	        	       0	(  2  0 15)	  0  1
    145.7096	        	        	        	        	       0	(  1  0 17)	  0  1
    146.4643	        	        	        	        	       0	(  2  2  8)	  0  1
    147.8176	        	        	        	        	       0	(  2  1 13)	  0  1
    150.0575	        	        	        	        	       0	(  3  1  7)	  0  1
    150.9728	        	        	        	        	       0	(  1  1 16)	  0  1
    155.7463	        	        	        	        	       0	(  0  0 18)	  0  1
    160.3692	        	        	        	        	       0	(  4  0  0)	  0  1
    160.3982	        	        	        	        	       0	(  3  0 12)	  0  1
    161.4090	        	        	        	        	       0	(  4  0  1)	  0  1
    162.8497	        	        	        	        	       0	(  3  1  8)	  0  1
    164.9414	        	        	        	        	       0	(  4  0  2)	  0  1
    174.5920	        	        	        	        	       0	(  4  0  3)	  0  1
    175.3523	        	        	        	        	       0	(  2  0 16)	  0  1
