MSG Master    CELL:    5.91956   5.91956  23.28170   90.0000   90.0000  120.0000   SPGR: P 63/m m c             TEMP:   1074.85
  1   1280     2.52000     0.00000    -0.11875     0.00000     0.00000    0
    99     0     2
       0.00000      10.00000
     125.00000     130.00000
 2Theta	Yobs	Ycal	Yobs-Ycal	Backg	Posr	(hkl)	K
      0.7700	    0.00	  537.81	-1739.50	  420.48
      0.8700	    0.00	  538.65	-1739.50	  421.32
      0.9700	   40.00	  539.48	-1739.50	  422.15
      1.0700	   47.00	  540.30	-1739.50	  422.97
      1.1700	   38.00	  541.11	-1739.50	  423.78
      1.2700	   35.00	  541.91	-1739.50	  424.58
      1.3700	   38.00	  542.70	-1739.50	  425.36
      1.4700	   89.00	  543.47	-1739.50	  426.14
      1.5700	  332.00	  544.23	-1739.50	  426.90
      1.6700	  468.00	  544.98	-1739.50	  427.65
      1.7700	  593.00	  545.72	-1739.50	  428.39
      1.8700	  644.00	  546.45	-1739.50	  429.12
      1.9700	  732.00	  547.17	-1739.50	  429.83
      2.0700	  790.00	  547.87	-1739.50	  430.54
      2.1700	  784.00	  548.57	-1739.50	  431.24
      2.2700	  778.00	  549.25	-1739.50	  431.92
      2.3700	  727.00	  549.92	-1739.50	  432.59
      2.4700	  702.00	  550.59	-1739.50	  433.25
      2.5700	  745.00	  551.24	-1739.50	  433.91
      2.6700	  700.00	  551.88	-1739.50	  434.55
      2.7700	  647.00	  552.51	-1739.50	  435.18
      2.8700	  626.00	  553.13	-1739.50	  435.80
      2.9700	  637.00	  553.74	-1739.50	  436.41
      3.0700	  578.00	  554.34	-1739.50	  437.01
      3.1700	  615.00	  554.93	-1739.50	  437.59
      3.2700	  599.00	  555.50	-1739.50	  438.17
      3.3700	  723.00	  556.07	-1739.50	  438.74
      3.4700	  749.00	  556.63	-1739.50	  439.30
      3.5700	  820.00	  557.18	-1739.50	  439.85
      3.6700	  908.00	  557.72	-1739.50	  440.39
      3.7700	  927.00	  558.25	-1739.50	  440.91
      3.8700	 1083.00	  558.76	-1739.50	  441.43
      3.9700	  999.00	  559.27	-1739.50	  441.94
      4.0700	 1021.00	  559.77	-1739.50	  442.44
      4.1700	 1068.00	  560.26	-1739.50	  442.93
      4.2700	 1083.00	  560.74	-1739.50	  443.41
      4.3700	 1022.00	  561.22	-1739.50	  443.88
      4.4700	 1069.00	  561.68	-1739.50	  444.35
      4.5700	 1023.00	  562.13	-1739.50	  444.80
      4.6700	 1012.00	  562.57	-1739.50	  445.24
      4.7700	 1011.00	  563.01	-1739.50	  445.67
      4.8700	  999.00	  563.43	-1739.50	  446.10
      4.9700	  947.00	  563.85	-1739.50	  446.52
      5.0700	  969.00	  564.25	-1739.50	  446.92
      5.1700	  927.00	  564.65	-1739.50	  447.32
      5.2700	  853.00	  565.04	-1739.50	  447.71
      5.3700	  851.00	  565.42	-1739.50	  448.09
      5.4700	  918.00	  565.79	-1739.50	  448.46
      5.5700	  864.00	  566.16	-1739.50	  448.83
      5.6700	  857.00	  566.51	-1739.50	  449.18
      5.7700	  838.00	  566.86	-1739.50	  449.53
      5.8700	  845.00	  567.20	-1739.50	  449.87
      5.9700	  773.00	  567.53	-1739.50	  450.20
      6.0700	  796.00	  567.85	-1739.50	  450.52
      6.1700	  810.00	  568.16	-1739.50	  450.83
      6.2700	  764.00	  568.47	-1739.50	  451.14
      6.3700	  740.00	  568.76	-1739.50	  451.43
      6.4700	  752.00	  569.05	-1739.50	  451.72
      6.5700	  768.00	  569.33	-1739.50	  452.00
      6.6700	  712.00	  569.61	-1739.50	  452.28
      6.7700	  730.00	  569.87	-1739.50	  452.54
      6.8700	  720.00	  570.13	-1739.50	  452.80
      6.9700	  727.00	  570.38	-1739.50	  453.05
      7.0700	  721.00	  570.62	-1739.50	  453.29
      7.1700	  733.00	  570.86	-1739.50	  453.53
      7.2700	  679.00	  571.09	-1739.50	  453.75
      7.3700	  692.00	  571.31	-1739.50	  453.97
      7.4700	  708.00	  571.52	-1739.50	  454.19
      7.5700	  704.00	  571.72	-1739.50	  454.39
      7.6700	  639.00	  571.92	-1739.50	  454.59
      7.7700	  631.00	  572.11	-1739.50	  454.78
      7.8700	  669.00	  572.30	-1739.50	  454.97
      7.9700	  648.00	  572.47	-1739.50	  455.14
      8.0700	  679.00	  572.64	-1739.50	  455.31
      8.1700	  669.00	  572.81	-1739.50	  455.47
      8.2700	  616.00	  572.96	-1739.50	  455.63
      8.3700	  668.00	  573.11	-1739.50	  455.78
      8.4700	  636.00	  573.25	-1739.50	  455.92
      8.5700	  603.00	  573.39	-1739.50	  456.06
      8.6700	  588.00	  573.52	-1739.50	  456.19
      8.7700	  641.00	  573.64	-1739.50	  456.31
      8.8700	  633.00	  573.76	-1739.50	  456.42
      8.9700	  609.00	  573.87	-1739.50	  456.53
      9.0700	  568.00	  573.97	-1739.50	  456.64
      9.1700	  609.00	  574.07	-1739.50	  456.73
      9.2700	  642.00	  574.16	-1739.50	  456.82
      9.3700	  619.00	  574.24	-1739.50	  456.91
      9.4700	  589.00	  574.32	-1739.50	  456.99
      9.5700	  610.00	  574.39	-1739.50	  457.06
      9.6700	  595.00	  574.46	-1739.50	  457.12
      9.7700	  648.00	  574.52	-1739.50	  457.18
      9.8700	  619.00	  574.57	-1739.50	  457.24
      9.9700	  581.00	  574.62	-1739.50	  457.29
     10.0700	  619.00	  575.53	-1696.03	  457.33
     10.1700	  547.00	  575.66	-1768.16	  457.36
     10.2700	  608.00	  575.81	-1707.31	  457.39
     10.3700	  607.00	  575.99	-1708.49	  457.42
     10.4700	  577.00	  576.22	-1738.72	  457.44
     10.5700	  566.00	  576.57	-1750.07	  457.45
     10.6700	  570.00	  577.12	-1746.62	  457.46
     10.7700	  591.00	  577.99	-1726.49	  457.46
     10.8700	  594.00	  579.23	-1724.73	  457.46
     10.9700	  595.00	  580.86	-1725.36	  457.45
     11.0700	  608.00	  582.84	-1714.34	  457.44
     11.1700	  576.00	  585.16	-1748.66	  457.42
     11.2700	  578.00	  587.87	-1749.37	  457.40
     11.3700	  599.00	  591.03	-1731.53	  457.37
     11.4700	  610.00	  594.78	-1724.28	  457.33
     11.5700	  619.00	  599.33	-1719.83	  457.30
     11.6700	  633.00	  605.01	-1711.51	  457.25
     11.7700	  592.00	  612.42	-1759.92	  457.20
     11.8700	  672.00	  622.38	-1689.88	  457.15
     11.9700	  652.00	  635.39	-1722.89	  457.09
     12.0700	  655.00	  649.81	-1734.31	  457.03
     12.1700	  680.00	  659.95	-1719.45	  456.96
     12.2700	  686.00	  656.91	-1710.41	  456.89
     12.3700	  639.00	  637.75	-1738.25	  456.81
     12.4700	  634.00	  613.81	-1719.31	  456.73
     12.5700	  602.00	  595.77	-1733.27	  456.64
     12.6700	  557.00	  585.54	-1768.04	  456.55
     12.7700	  593.00	  580.67	-1727.17	  456.45
     12.8700	  559.00	  578.41	-1758.91	  456.35
     12.9700	  562.00	  577.17	-1754.67	  456.25
     13.0700	  597.00	  576.36	-1718.86	  456.14
     13.1700	  550.00	  575.74	-1765.24	  456.03
     13.2700	  517.00	  575.25	-1797.75	  455.91
     13.3700	  566.00	  574.84	-1748.34	  455.79
     13.4700	  561.00	  574.49	-1752.99	  455.67
     13.5700	  559.00	  574.18	-1754.68	  455.54
     13.6700	  569.00	  573.90	-1744.41	  455.40
     13.7700	  576.00	  573.65	-1737.15	  455.27
     13.8700	  546.00	  573.41	-1766.91	  455.13
     13.9700	  613.00	  573.18	-1699.68	  454.98
     14.0700	  551.00	  572.96	-1761.46	  454.83
     14.1700	  588.00	  572.74	-1724.24	  454.68
     14.2700	  549.00	  572.54	-1763.04	  454.52
     14.3700	  547.00	  572.33	-1764.83	  454.37
     14.4700	  574.00	  572.13	-1737.63	  454.20
     14.5700	  548.00	  571.92	-1763.42	  454.03
     14.6700	  609.00	  571.72	-1702.22	  453.86
     14.7700	  548.00	  571.52	-1763.02	  453.69
     14.8700	  543.00	  571.32	-1767.82	  453.51
     14.9700	  545.00	  571.12	-1765.62	  453.33
     15.0700	  546.00	  570.91	-1764.41	  453.15
     15.1700	  505.00	  570.71	-1805.21	  452.96
     15.2700	  574.00	  570.50	-1736.00	  452.77
     15.3700	  595.00	  570.29	-1714.79	  452.58
     15.4700	  576.00	  570.08	-1733.58	  452.38
     15.5700	  572.00	  569.87	-1737.37	  452.18
     15.6700	  544.00	  569.65	-1765.15	  451.98
     15.7700	  550.00	  569.44	-1758.94	  451.77
     15.8700	  603.00	  569.24	-1705.74	  451.56
     15.9700	  583.00	  569.02	-1725.52	  451.35
     16.0700	  559.00	  568.80	-1749.30	  451.13
     16.1700	  553.00	  568.57	-1755.07	  450.91
     16.2700	  537.00	  568.35	-1770.85	  450.69
     16.3700	  555.00	  568.12	-1752.62	  450.47
     16.4700	  572.00	  567.89	-1735.39	  450.24
     16.5700	  571.00	  567.65	-1736.15	  450.01
     16.6700	  558.00	  567.41	-1748.91	  449.78
     16.7700	  563.00	  567.18	-1743.68	  449.54
     16.8700	  569.00	  566.93	-1737.43	  449.31
     16.9700	  554.00	  566.69	-1752.19	  449.07
     17.0700	  563.00	  566.45	-1742.95	  448.83
     17.1700	  588.00	  566.20	-1717.70	  448.58
     17.2700	  582.00	  565.95	-1723.45	  448.33
     17.3700	  556.00	  565.70	-1749.20	  448.08
     17.4700	  573.00	  565.44	-1731.94	  447.83
     17.5700	  582.00	  565.18	-1722.69	  447.58
     17.6700	  566.00	  564.93	-1738.43	  447.32
     17.7700	  554.00	  564.67	-1750.17	  447.06
     17.8700	  545.00	  564.40	-1758.90	  446.80
     17.9700	  540.00	  564.14	-1763.64	  446.54
     18.0700	  552.00	  563.98	-1751.48	  446.27
     18.1700	  541.00	  563.71	-1762.21	  446.00
     18.2700	  532.00	  563.44	-1770.94	  445.73
     18.3700	  530.00	  563.17	-1772.67	  445.46
     18.4700	  548.00	  562.90	-1754.40	  445.19
     18.5700	  540.00	  562.63	-1762.13	  444.91
     18.6700	  585.00	  562.35	-1716.85	  444.63
     18.7700	  538.00	  562.07	-1763.57	  444.35
     18.8700	  579.00	  561.88	-1722.38	  444.07
     18.9700	  554.00	  561.60	-1747.10	  443.79
     19.0700	  497.00	  561.33	-1803.83	  443.50
     19.1700	  561.00	  561.04	-1739.54	  443.22
     19.2700	  550.00	  560.76	-1750.26	  442.93
     19.3700	  525.00	  560.48	-1774.98	  442.64
     19.4700	  588.00	  560.19	-1711.69	  442.35
     19.5700	  558.00	  559.91	-1741.41	  442.05
     19.6700	  577.00	  559.62	-1722.12	  441.76
     19.7700	  548.00	  559.33	-1750.83	  441.46
     19.8700	  585.00	  559.04	-1713.54	  441.16
     19.9700	  570.00	  558.75	-1728.25	  440.86
     20.0700	  547.00	  558.46	-1750.96	  440.56
     20.1700	  535.00	  558.17	-1762.67	  440.26
     20.2700	  563.00	  557.87	-1734.37	  439.96
     20.3700	  591.00	  557.58	-1706.08	  439.65
     20.4700	  598.00	  557.29	-1698.79	  439.35
     20.5700	  542.00	  556.99	-1754.49	  439.04
     20.6700	  579.00	  556.70	-1717.20	  438.73
     20.7700	  564.00	  556.43	-1731.93	  438.42
     20.8700	  595.00	  556.14	-1700.64	  438.11
     20.9700	  531.00	  555.81	-1764.31	  437.80
     21.0700	  551.00	  555.51	-1744.01	  437.48
     21.1700	  549.00	  555.22	-1745.72	  437.17
     21.2700	  555.00	  554.92	-1739.42	  436.85
     21.3700	  617.00	  554.63	-1677.13	  436.54
     21.4700	  577.00	  554.33	-1716.83	  436.22
     21.5700	  591.00	  554.04	-1702.54	  435.90
     21.6700	  555.00	  553.75	-1738.25	  435.58
     21.7700	  599.00	  553.45	-1693.95	  435.26
     21.8700	  584.00	  553.16	-1708.66	  434.94
     21.9700	  511.00	  552.87	-1781.37	  434.62
     22.0700	  520.00	  552.59	-1772.09	  434.29
     22.1700	  569.00	  552.30	-1722.80	  433.97
     22.2700	  534.00	  552.02	-1757.52	  433.65
     22.3700	  550.00	  551.74	-1741.24	  433.32
     22.4700	  533.00	  551.47	-1757.97	  432.99
     22.5700	  555.00	  551.20	-1735.70	  432.67
     22.6700	  544.00	  550.93	-1746.43	  432.34
     22.7700	  572.00	  550.68	-1718.18	  432.01
     22.8700	  550.00	  550.43	-1739.93	  431.68
     22.9700	  545.00	  550.19	-1744.69	  431.36
     23.0700	  559.00	  549.97	-1730.47	  431.03
     23.1700	  610.00	  549.76	-1679.26	  430.70
     23.2700	  533.00	  549.57	-1756.07	  430.37
     23.3700	  550.00	  549.41	-1738.91	  430.03
     23.4700	  539.00	  549.29	-1749.79	  429.70
     23.5700	  552.00	  549.35	-1736.85	  429.37
     23.6700	  530.00	  549.35	-1758.85	  429.04
     23.7700	  546.00	  549.47	-1742.97	  428.71
     23.8700	  570.00	  549.82	-1719.32	  428.37
     23.9700	  487.00	  550.61	-1803.11	  428.04
     24.0700	  521.00	  552.25	-1770.75	  427.71
     24.1700	  588.00	  555.36	-1706.86	  427.37
     24.2700	  566.00	  560.72	-1734.22	  427.04
     24.3700	  593.00	  569.22	-1715.72	  426.71
     24.4700	  587.00	  581.69	-1734.19	  426.37
     24.5700	  562.00	  598.12	-1775.62	  426.04
     24.6700	  631.00	  615.74	-1724.24	  425.70
     24.7700	  638.00	  627.49	-1728.99	  425.37
     24.8700	  604.00	  624.25	-1759.75	  425.03
     24.9700	  650.00	  605.21	-1694.71	  424.70
     25.0700	  594.00	  582.27	-1727.77	  424.37
     25.1700	  511.00	  564.84	-1793.34	  424.03
     25.2700	  549.00	  554.67	-1745.17	  423.70
     25.3700	  579.00	  549.65	-1710.15	  423.36
     25.4700	  560.00	  547.27	-1726.77	  423.03
     25.5700	  509.00	  545.98	-1776.48	  422.69
     25.6700	  535.00	  545.15	-1749.65	  422.36
     25.7700	  594.00	  544.54	-1690.04	  422.03
     25.8700	  547.00	  544.08	-1736.58	  421.69
     25.9700	  571.00	  543.72	-1712.22	  421.36
     26.0700	  566.00	  543.46	-1716.96	  421.02
     26.1700	  572.00	  543.27	-1710.77	  420.69
     26.2700	  564.00	  543.17	-1718.67	  420.36
     26.3700	  486.00	  543.14	-1796.64	  420.03
     26.4700	  582.00	  543.19	-1700.69	  419.69
     26.5700	  635.00	  543.34	-1647.84	  419.36
     26.6700	  553.00	  543.60	-1730.10	  419.03
     26.7700	  536.00	  544.00	-1747.50	  418.70
     26.8700	  509.00	  544.57	-1775.07	  418.37
     26.9700	  562.00	  545.36	-1722.86	  418.04
     27.0700	  580.00	  546.45	-1705.95	  417.71
     27.1700	  560.00	  547.96	-1727.46	  417.38
     27.2700	  537.00	  550.13	-1752.63	  417.05
     27.3700	  567.00	  553.45	-1725.95	  416.72
     27.4700	  565.00	  558.85	-1733.35	  416.39
     27.5700	  525.00	  568.03	-1782.53	  416.06
     27.6700	  536.00	  583.70	-1787.20	  415.74
     27.7700	  557.00	  609.39	-1791.89	  415.41
     27.8700	  601.00	  648.29	-1786.79	  415.08
     27.9700	  679.00	  700.78	-1761.28	  414.76
     28.0700	  772.00	  761.23	-1728.73	  414.43
     28.1700	  872.00	  815.06	-1682.56	  414.11
     28.2700	  952.00	  839.76	-1627.26	  413.78
     28.3700	  826.00	  820.80	-1734.30	  413.46
     28.4700	  779.00	  777.93	-1738.43	  413.14
     28.5700	  792.00	  746.97	-1694.47	  412.82
     28.6700	  709.00	  745.22	-1775.72	  412.50
     28.7700	  736.00	  768.71	-1772.21	  412.18
     28.8700	  757.00	  797.90	-1780.40	  411.86
     28.9700	  821.00	  804.56	-1723.06	  411.54
     29.0700	  776.00	  769.51	-1733.01	  411.22
     29.1700	  737.00	  706.85	-1709.35	  410.91
     29.2700	  650.00	  645.80	-1735.30	  410.59
     29.3700	  596.00	  601.10	-1744.60	  410.27
     29.4700	  587.00	  573.73	-1726.23	  409.96
     29.5700	  573.00	  558.79	-1725.29	  409.65
     29.6700	  598.00	  550.87	-1692.37	  409.33
     29.7700	  611.00	  546.39	-1674.89	  409.02
     29.8700	  520.00	  543.59	-1763.09	  408.71
     29.9700	  583.00	  541.79	-1698.29	  408.40
     30.0700	  587.00	  540.79	-1693.29	  408.09
     30.1700	  576.00	  540.73	-1704.23	  407.79
     30.2700	  549.00	  542.05	-1732.55	  407.48
     30.3700	  585.00	  545.69	-1700.19	  407.17
     30.4700	  509.00	  553.05	-1783.55	  406.87
     30.5700	  580.00	  565.61	-1725.11	  406.56
     30.6700	  567.00	  583.79	-1756.29	  406.26
     30.7700	  603.00	  605.40	-1741.90	  405.96
     30.8700	  612.00	  624.47	-1751.97	  405.66
     30.9700	  649.00	  631.66	-1722.16	  405.36
     31.0700	  589.00	  620.35	-1770.85	  405.06
     31.1700	  589.00	  596.23	-1746.73	  404.76
     31.2700	  566.00	  571.52	-1745.02	  404.47
     31.3700	  551.00	  552.94	-1741.44	  404.17
     31.4700	  527.00	  541.43	-1753.93	  403.88
     31.5700	  517.00	  535.16	-1757.66	  403.59
     31.6700	  529.00	  531.88	-1742.38	  403.30
     31.7700	  574.00	  530.06	-1695.56	  403.01
     31.8700	  543.00	  528.91	-1725.41	  402.72
     31.9700	  544.00	  528.12	-1723.62	  402.43
     32.0700	  512.00	  527.56	-1755.06	  402.14
     32.1700	  527.00	  527.17	-1739.68	  401.86
     32.2700	  587.00	  526.95	-1679.45	  401.57
     32.3700	  555.00	  526.87	-1711.37	  401.29
     32.4700	  584.00	  526.95	-1682.45	  401.01
     32.5700	  542.00	  527.21	-1724.71	  400.73
     32.6700	  545.00	  527.66	-1722.16	  400.45
     32.7700	  574.00	  528.35	-1693.85	  400.17
     32.8700	  536.00	  529.37	-1732.87	  399.90
     32.9700	  524.00	  530.82	-1746.32	  399.62
     33.0700	  538.00	  532.92	-1734.42	  399.35
     33.1700	  576.00	  536.13	-1699.63	  399.08
     33.2700	  518.00	  541.51	-1763.01	  398.81
     33.3700	  597.00	  551.28	-1693.78	  398.54
     33.4700	  537.00	  569.64	-1772.14	  398.27
     33.5700	  570.00	  603.17	-1772.67	  398.00
     33.6700	  633.00	  659.30	-1765.80	  397.74
     33.7700	  741.00	  741.19	-1739.69	  397.47
     33.8700	  875.00	  840.05	-1704.55	  397.21
     33.9700	  972.00	  929.90	-1697.40	  396.95
     34.0700	 1058.00	  970.82	-1652.32	  396.69
     34.1700	  974.00	  932.52	-1698.02	  396.43
     34.2700	  842.00	  834.24	-1731.74	  396.18
     34.3700	  708.00	  726.68	-1758.18	  395.92
     34.4700	  705.00	  642.07	-1676.57	  395.67
     34.5700	  595.00	  587.79	-1732.29	  395.42
     34.6700	  551.00	  557.71	-1746.21	  395.17
     34.7700	  547.00	  542.29	-1734.79	  394.92
     34.8700	  565.00	  534.16	-1708.66	  394.67
     34.9700	  513.00	  529.34	-1755.84	  394.42
     35.0700	  524.00	  526.02	-1741.52	  394.18
     35.1700	  506.00	  523.53	-1757.03	  393.94
     35.2700	  515.00	  521.55	-1746.05	  393.70
     35.3700	  523.00	  519.95	-1736.45	  393.46
     35.4700	  512.00	  518.62	-1746.12	  393.22
     35.5700	  531.00	  517.49	-1725.99	  392.98
     35.6700	  539.00	  516.53	-1717.03	  392.75
     35.7700	  516.00	  515.69	-1739.19	  392.51
     35.8700	  490.00	  514.95	-1764.45	  392.28
     35.9700	  514.00	  514.29	-1739.79	  392.05
     36.0700	  512.00	  514.17	-1741.67	  391.82
     36.1700	  526.00	  513.65	-1727.15	  391.60
     36.2700	  525.00	  513.18	-1727.68	  391.37
     36.3700	  514.00	  512.75	-1738.25	  391.15
     36.4700	  538.00	  512.37	-1713.87	  390.93
     36.5700	  514.00	  512.02	-1737.52	  390.71
     36.6700	  503.00	  511.72	-1748.22	  390.49
     36.7700	  490.00	  511.47	-1760.97	  390.27
     36.8700	  505.00	  511.30	-1745.80	  390.06
     36.9700	  506.00	  511.28	-1744.78	  389.84
     37.0700	  566.00	  511.54	-1685.04	  389.63
     37.1700	  539.00	  512.34	-1712.84	  389.42
     37.2700	  508.00	  514.03	-1745.53	  389.21
     37.3700	  520.00	  516.91	-1736.41	  389.01
     37.4700	  566.00	  520.89	-1694.39	  388.80
     37.5700	  487.00	  525.20	-1777.70	  388.60
     37.6700	  508.00	  528.35	-1759.85	  388.40
     37.7700	  527.00	  528.72	-1741.22	  388.20
     37.8700	  536.00	  526.14	-1729.64	  388.00
     37.9700	  525.00	  522.14	-1736.64	  387.80
     38.0700	  578.00	  518.10	-1679.60	  387.61
     38.1700	  514.00	  514.58	-1740.08	  387.41
     38.2700	  549.00	  511.79	-1702.29	  387.22
     38.3700	  523.00	  509.78	-1726.28	  387.03
     38.4700	  518.00	  508.41	-1729.91	  386.85
     38.5700	  525.00	  507.41	-1721.91	  386.66
     38.6700	  515.00	  506.82	-1731.32	  386.48
     38.7700	  473.00	  506.40	-1772.90	  386.29
     38.8700	  520.00	  506.08	-1725.58	  386.11
     38.9700	  535.00	  505.81	-1710.31	  385.93
     39.0700	  492.00	  505.57	-1753.07	  385.76
     39.1700	  549.00	  505.27	-1695.77	  385.58
     39.2700	  499.00	  505.07	-1745.57	  385.41
     39.3700	  506.00	  505.02	-1738.52	  385.24
     39.4700	  504.00	  504.84	-1740.34	  385.07
     39.5700	  485.00	  504.68	-1759.18	  384.90
     39.6700	  498.00	  504.53	-1746.03	  384.73
     39.7700	  481.00	  504.38	-1762.88	  384.57
     39.8700	  488.00	  504.25	-1755.75	  384.41
     39.9700	  517.00	  504.13	-1726.63	  384.24
     40.0700	  506.00	  504.01	-1737.51	  384.09
     40.1700	  531.00	  503.91	-1712.41	  383.93
     40.2700	  493.00	  503.81	-1750.31	  383.77
     40.3700	  497.00	  503.73	-1746.23	  383.62
     40.4700	  531.00	  503.67	-1712.17	  383.47
     40.5700	  526.00	  503.61	-1717.11	  383.32
     40.6700	  484.00	  503.58	-1759.08	  383.17
     40.7700	  533.00	  503.56	-1710.06	  383.02
     40.8700	  492.00	  503.57	-1751.07	  382.88
     40.9700	  473.00	  503.60	-1770.10	  382.74
     41.0700	  493.00	  503.67	-1750.17	  382.59
     41.1700	  480.00	  503.78	-1763.28	  382.46
     41.2700	  475.00	  503.91	-1768.41	  382.32
     41.3700	  509.00	  504.13	-1734.63	  382.18
     41.4700	  508.00	  504.88	-1736.38	  382.05
     41.5700	  469.00	  505.32	-1775.82	  381.92
     41.6700	  469.00	  505.93	-1776.43	  381.79
     41.7700	  500.00	  506.87	-1746.37	  381.66
     41.8700	  510.00	  508.43	-1737.93	  381.53
     41.9700	  491.00	  511.31	-1759.81	  381.41
     42.0700	  512.00	  516.78	-1744.28	  381.28
     42.1700	  533.00	  526.80	-1733.30	  381.16
     42.2700	  534.00	  543.55	-1749.05	  381.04
     42.3700	  551.00	  568.18	-1756.68	  380.93
     42.4700	  547.00	  598.61	-1791.11	  380.81
     42.5700	  598.00	  628.27	-1769.77	  380.70
     42.6700	  557.00	  646.49	-1828.99	  380.59
     42.7700	  567.00	  643.80	-1816.30	  380.48
     42.8700	  579.00	  620.85	-1781.35	  380.37
     42.9700	  574.00	  589.00	-1754.50	  380.26
     43.0700	  555.00	  559.10	-1743.60	  380.16
     43.1700	  548.00	  536.49	-1727.99	  380.06
     43.2700	  561.00	  521.93	-1700.43	  379.95
     43.3700	  499.00	  513.63	-1754.13	  379.86
     43.4700	  505.00	  509.25	-1743.75	  379.76
     43.5700	  487.00	  506.94	-1759.44	  379.66
     43.6700	  519.00	  505.79	-1726.29	  379.57
     43.7700	  481.00	  504.97	-1763.47	  379.48
     43.8700	  473.00	  504.35	-1770.85	  379.39
     43.9700	  478.00	  503.88	-1765.38	  379.30
     44.0700	  488.00	  503.51	-1755.01	  379.21
     44.1700	  513.00	  503.23	-1729.73	  379.13
     44.2700	  511.00	  503.00	-1731.50	  379.05
     44.3700	  466.00	  502.83	-1776.33	  378.96
     44.4700	  511.00	  502.71	-1731.21	  378.89
     44.5700	  522.00	  502.62	-1720.12	  378.81
     44.6700	  470.00	  502.43	-1771.93	  378.73
     44.7700	  491.00	  502.40	-1750.90	  378.66
     44.8700	  473.00	  502.40	-1768.90	  378.59
     44.9700	  521.00	  502.43	-1720.93	  378.52
     45.0700	  490.00	  502.47	-1751.97	  378.45
     45.1700	  503.00	  502.73	-1739.23	  378.38
     45.2700	  507.00	  502.82	-1735.32	  378.32
     45.3700	  504.00	  502.93	-1738.43	  378.25
     45.4700	  500.00	  503.07	-1742.57	  378.19
     45.5700	  500.00	  503.23	-1742.73	  378.13
     45.6700	  537.00	  503.42	-1705.92	  378.07
     45.7700	  499.00	  503.64	-1744.14	  378.02
     45.8700	  530.00	  503.88	-1713.38	  377.96
     45.9700	  470.00	  504.16	-1773.66	  377.91
     46.0700	  491.00	  504.47	-1752.97	  377.86
     46.1700	  559.00	  504.83	-1685.33	  377.81
     46.2700	  506.00	  505.23	-1738.73	  377.76
     46.3700	  519.00	  505.68	-1726.18	  377.72
     46.4700	  485.00	  506.20	-1760.70	  377.67
     46.5700	  510.00	  506.79	-1736.29	  377.63
     46.6700	  545.00	  507.48	-1701.98	  377.59
     46.7700	  500.00	  508.29	-1747.79	  377.55
     46.8700	  491.00	  509.30	-1757.80	  377.52
     46.9700	  481.00	  510.65	-1769.15	  377.48
     47.0700	  531.00	  512.71	-1721.21	  377.45
     47.1700	  525.00	  515.93	-1730.43	  377.42
     47.2700	  584.00	  521.34	-1676.84	  377.39
     47.3700	  524.00	  530.13	-1745.63	  377.36
     47.4700	  523.00	  543.37	-1759.87	  377.33
     47.5700	  537.00	  561.07	-1763.57	  377.31
     47.6700	  626.00	  581.38	-1694.88	  377.28
     47.7700	  591.00	  599.94	-1748.44	  377.26
     47.8700	  615.00	  610.68	-1735.18	  377.24
     47.9700	  608.00	  609.16	-1740.66	  377.22
     48.0700	  572.00	  596.70	-1764.20	  377.21
     48.1700	  570.00	  579.46	-1748.96	  377.19
     48.2700	  544.00	  563.21	-1758.71	  377.18
     48.3700	  511.00	  551.17	-1779.67	  377.17
     48.4700	  563.00	  544.19	-1720.69	  377.15
     48.5700	  551.00	  541.70	-1730.20	  377.15
     48.6700	  552.00	  542.59	-1730.09	  377.14
     48.7700	  501.00	  545.91	-1784.41	  377.13
     48.8700	  535.00	  551.17	-1755.67	  377.13
     48.9700	  499.00	  558.38	-1798.88	  377.13
     49.0700	  549.00	  568.18	-1758.68	  377.13
     49.1700	  581.00	  582.14	-1740.64	  377.13
     49.2700	  572.00	  603.60	-1771.10	  377.13
     49.3700	  617.00	  639.29	-1761.79	  377.14
     49.4700	  674.00	  699.43	-1764.93	  377.14
     49.5700	  810.00	  800.00	-1729.50	  377.15
     49.6700	  978.00	  959.06	-1720.56	  377.16
     49.7700	 1084.00	 1190.34	-1845.84	  377.17
     49.8700	 1417.00	 1492.90	-1815.40	  377.18
     49.9700	 1882.00	 1839.31	-1696.81	  377.20
     50.0700	 2206.00	 2166.44	-1699.94	  377.21
     50.1700	 2512.00	 2379.47	-1606.97	  377.23
     50.2700	 2489.00	 2391.59	-1642.09	  377.25
     50.3700	 2270.00	 2195.13	-1664.63	  377.27
     50.4700	 1831.00	 1872.94	-1781.44	  377.29
     50.5700	 1403.00	 1526.18	-1862.68	  377.31
     50.6700	 1034.00	 1222.50	-1928.00	  377.33
     50.7700	  879.00	  991.94	-1852.44	  377.36
     50.8700	  714.00	  836.41	-1861.91	  377.39
     50.9700	  708.00	  741.19	-1772.69	  377.42
     51.0700	  667.00	  685.75	-1758.25	  377.45
     51.1700	  627.00	  651.51	-1764.01	  377.48
     51.2700	  618.00	  626.45	-1747.95	  377.51
     51.3700	  575.00	  605.49	-1769.99	  377.55
     51.4700	  579.00	  587.69	-1748.19	  377.58
     51.5700	  560.00	  573.26	-1752.76	  377.62
     51.6700	  533.00	  562.30	-1768.80	  377.66
     51.7700	  555.00	  554.49	-1738.99	  377.70
     51.8700	  573.00	  549.22	-1715.72	  377.74
     51.9700	  525.00	  545.84	-1760.34	  377.78
     52.0700	  591.00	  544.05	-1692.55	  377.83
     52.1700	  493.00	  543.10	-1789.60	  377.88
     52.2700	  536.00	  543.12	-1746.62	  377.92
     52.3700	  578.00	  544.26	-1705.76	  377.97
     52.4700	  559.00	  547.01	-1727.51	  378.02
     52.5700	  543.00	  552.56	-1749.06	  378.07
     52.6700	  535.00	  563.30	-1767.80	  378.13
     52.7700	  600.00	  583.42	-1722.92	  378.18
     52.8700	  691.00	  619.11	-1667.61	  378.23
     52.9700	  704.00	  677.58	-1713.08	  378.29
     53.0700	  793.00	  764.31	-1710.81	  378.35
     53.1700	  989.00	  878.84	-1629.34	  378.41
     53.2700	 1087.00	 1010.23	-1662.73	  378.47
     53.3700	 1128.00	 1134.51	-1746.01	  378.53
     53.4700	 1171.00	 1216.85	-1785.35	  378.60
     53.5700	 1151.00	 1225.67	-1814.17	  378.66
     53.6700	 1049.00	 1156.56	-1847.06	  378.73
     53.7700	 1042.00	 1037.35	-1734.85	  378.79
     53.8700	  844.00	  904.74	-1800.24	  378.86
     53.9700	  804.00	  785.59	-1721.09	  378.93
     54.0700	  714.00	  693.29	-1718.79	  379.00
     54.1700	  583.00	  629.99	-1786.49	  379.07
     54.2700	  630.00	  590.93	-1700.43	  379.15
     54.3700	  607.00	  568.86	-1701.36	  379.22
     54.4700	  558.00	  557.18	-1738.68	  379.30
     54.5700	  572.00	  551.27	-1718.77	  379.37
     54.6700	  557.00	  548.41	-1730.91	  379.45
     54.7700	  555.00	  547.28	-1731.78	  379.53
     54.8700	  585.00	  547.25	-1701.75	  379.61
     54.9700	  600.00	  548.05	-1687.55	  379.69
     55.0700	  558.00	  549.65	-1731.15	  379.77
     55.1700	  584.00	  551.99	-1707.49	  379.86
     55.2700	  573.00	  555.16	-1721.66	  379.94
     55.3700	  594.00	  559.28	-1704.78	  380.03
     55.4700	  567.00	  564.58	-1737.08	  380.11
     55.5700	  573.00	  571.47	-1737.97	  380.20
     55.6700	  594.00	  580.75	-1726.25	  380.29
     55.7700	  609.00	  594.12	-1724.62	  380.38
     55.8700	  581.00	  614.92	-1773.42	  380.47
     55.9700	  647.00	  649.30	-1741.80	  380.57
     56.0700	  711.00	  707.46	-1735.96	  380.66
     56.1700	  745.00	  803.97	-1798.47	  380.75
     56.2700	  886.00	  956.00	-1809.50	  380.85
     56.3700	 1092.00	 1178.19	-1825.69	  380.95
     56.4700	 1396.00	 1474.63	-1818.13	  381.04
     56.5700	 1718.00	 1829.37	-1850.87	  381.14
     56.6700	 2122.00	 2199.17	-1816.67	  381.24
     56.7700	 2452.00	 2511.16	-1798.66	  381.34
     56.8700	 2548.00	 2676.08	-1867.58	  381.44
     56.9700	 2585.00	 2633.05	-1787.55	  381.54
     57.0700	 2361.00	 2398.66	-1777.16	  381.65
     57.1700	 2155.00	 2053.44	-1637.94	  381.75
     57.2700	 1624.00	 1684.50	-1800.00	  381.86
     57.3700	 1260.00	 1353.14	-1832.64	  381.96
     57.4700	 1051.00	 1090.48	-1778.98	  382.07
     57.5700	  843.00	  903.25	-1799.75	  382.18
     57.6700	  795.00	  782.21	-1726.71	  382.29
     57.7700	  676.00	  711.48	-1774.98	  382.39
     57.8700	  737.00	  675.80	-1678.30	  382.51
     57.9700	  689.00	  664.21	-1714.71	  382.62
     58.0700	  648.00	  670.79	-1762.29	  382.73
     58.1700	  694.00	  693.48	-1738.98	  382.84
     58.2700	  756.00	  732.24	-1715.74	  382.95
     58.3700	  847.00	  787.27	-1679.77	  383.07
     58.4700	  859.00	  857.36	-1737.86	  383.18
     58.5700	 1071.00	  938.38	-1606.88	  383.30
     58.6700	 1215.00	 1022.63	-1547.13	  383.42
     58.7700	 1247.00	 1100.99	-1593.49	  383.53
     58.8700	 1441.00	 1167.05	-1465.55	  383.65
     58.9700	 1441.00	 1217.29	-1515.79	  383.77
     59.0700	 1551.00	 1247.01	-1435.51	  383.89
     59.1700	 1482.00	 1251.55	-1509.05	  384.01
     59.2700	 1402.00	 1233.64	-1571.14	  384.13
     59.3700	 1368.00	 1204.41	-1575.91	  384.26
     59.4700	 1233.00	 1175.74	-1682.24	  384.38
     59.5700	 1199.00	 1156.10	-1696.60	  384.50
     59.6700	 1140.00	 1153.46	-1752.96	  384.62
     59.7700	 1209.00	 1177.30	-1707.80	  384.75
     59.8700	 1254.00	 1233.67	-1719.17	  384.87
     59.9700	 1251.00	 1318.82	-1807.32	  385.00
     60.0700	 1508.00	 1416.35	-1647.85	  385.13
     60.1700	 1582.00	 1497.74	-1655.24	  385.25
     60.2700	 1608.00	 1529.35	-1660.85	  385.38
     60.3700	 1516.00	 1489.53	-1713.03	  385.51
     60.4700	 1502.00	 1384.11	-1621.61	  385.64
     60.5700	 1232.00	 1240.18	-1747.68	  385.77
     60.6700	 1095.00	 1087.55	-1732.05	  385.90
     60.7700	  931.00	  948.15	-1756.65	  386.03
     60.8700	  832.00	  834.54	-1742.04	  386.16
     60.9700	  711.00	  751.22	-1779.72	  386.29
     61.0700	  715.00	  697.29	-1721.79	  386.42
     61.1700	  670.00	  669.47	-1738.97	  386.56
     61.2700	  623.00	  664.90	-1781.40	  386.69
     61.3700	  607.00	  682.92	-1815.42	  386.82
     61.4700	  731.00	  725.30	-1733.80	  386.96
     61.5700	  771.00	  794.99	-1763.49	  387.09
     61.6700	  875.00	  893.82	-1758.32	  387.23
     61.7700	  967.00	 1019.47	-1791.97	  387.36
     61.8700	 1073.00	 1162.91	-1829.41	  387.50
     61.9700	 1266.00	 1306.55	-1780.05	  387.63
     62.0700	 1347.00	 1424.24	-1816.74	  387.77
     62.1700	 1357.00	 1486.01	-1868.51	  387.91
     62.2700	 1387.00	 1471.83	-1824.33	  388.04
     62.3700	 1296.00	 1385.86	-1829.36	  388.18
     62.4700	 1155.00	 1253.31	-1837.81	  388.32
     62.5700	 1095.00	 1104.04	-1748.54	  388.46
     62.6700	  945.00	  961.47	-1755.97	  388.60
     62.7700	  791.00	  839.94	-1788.44	  388.73
     62.8700	  701.00	  745.50	-1784.00	  388.87
     62.9700	  674.00	  677.83	-1743.33	  389.01
     63.0700	  606.00	  632.68	-1766.18	  389.15
     63.1700	  601.00	  604.42	-1742.92	  389.29
     63.2700	  527.00	  587.74	-1800.24	  389.43
     63.3700	  585.00	  578.70	-1733.20	  389.57
     63.4700	  558.00	  574.94	-1756.44	  389.72
     63.5700	  564.00	  575.57	-1751.07	  389.86
     63.6700	  578.00	  580.96	-1742.46	  390.00
     63.7700	  607.00	  592.47	-1724.97	  390.14
     63.8700	  562.00	  612.04	-1789.54	  390.28
     63.9700	  656.00	  641.74	-1725.24	  390.42
     64.0700	  727.00	  682.87	-1695.37	  390.56
     64.1700	  798.00	  735.11	-1676.61	  390.71
     64.2700	  827.00	  795.64	-1708.14	  390.85
     64.3700	  903.00	  858.47	-1694.97	  390.99
     64.4700	 1001.00	  913.98	-1652.48	  391.13
     64.5700	  981.00	  952.46	-1710.96	  391.28
     64.6700	 1026.00	  965.32	-1678.82	  391.42
     64.7700	 1032.00	  950.92	-1658.42	  391.56
     64.8700	  964.00	  914.37	-1689.87	  391.71
     64.9700	  915.00	  864.26	-1688.76	  391.85
     65.0700	  809.00	  809.80	-1740.30	  391.99
     65.1700	  799.00	  758.21	-1698.71	  392.14
     65.2700	  716.00	  713.49	-1736.99	  392.28
     65.3700	  688.00	  676.64	-1728.14	  392.42
     65.4700	  710.00	  646.91	-1676.41	  392.57
     65.5700	  629.00	  623.21	-1733.71	  392.71
     65.6700	  648.00	  604.65	-1696.15	  392.85
     65.7700	  567.00	  590.47	-1762.97	  392.99
     65.8700	  548.00	  580.04	-1771.54	  393.14
     65.9700	  526.00	  572.82	-1786.32	  393.28
     66.0700	  543.00	  568.31	-1764.81	  393.42
     66.1700	  555.00	  566.07	-1750.57	  393.57
     66.2700	  634.00	  565.68	-1671.19	  393.71
     66.3700	  514.00	  566.85	-1792.35	  393.85
     66.4700	  595.00	  569.52	-1714.02	  394.00
     66.5700	  583.00	  573.52	-1730.02	  394.14
     66.6700	  578.00	  579.38	-1740.88	  394.28
     66.7700	  571.00	  588.00	-1756.50	  394.42
     66.8700	  572.00	  601.15	-1768.65	  394.56
     66.9700	  578.00	  621.87	-1783.37	  394.71
     67.0700	  577.00	  654.89	-1817.39	  394.85
     67.1700	  666.00	  706.92	-1780.42	  394.99
     67.2700	  739.00	  786.37	-1786.87	  395.13
     67.3700	  895.00	  902.27	-1746.77	  395.27
     67.4700	 1085.00	 1061.62	-1716.12	  395.41
     67.5700	 1288.00	 1266.89	-1718.39	  395.55
     67.6700	 1566.00	 1512.23	-1685.73	  395.70
     67.7700	 1760.00	 1781.07	-1760.57	  395.84
     67.8700	 2024.00	 2044.54	-1760.04	  395.98
     67.9700	 2361.00	 2262.78	-1641.28	  396.12
     68.0700	 2426.00	 2390.81	-1704.31	  396.25
     68.1700	 2384.00	 2395.83	-1751.33	  396.39
     68.2700	 2298.00	 2276.54	-1718.04	  396.53
     68.3700	 2049.00	 2063.75	-1754.25	  396.67
     68.4700	 1865.00	 1802.30	-1676.80	  396.81
     68.5700	 1528.00	 1533.03	-1744.53	  396.95
     68.6700	 1251.00	 1285.72	-1774.22	  397.08
     68.7700	 1052.00	 1077.68	-1765.18	  397.22
     68.8700	  889.00	  915.44	-1765.94	  397.36
     68.9700	  804.00	  797.15	-1732.65	  397.49
     69.0700	  702.00	  715.85	-1753.35	  397.63
     69.1700	  666.00	  662.65	-1736.15	  397.77
     69.2700	  663.00	  629.02	-1705.52	  397.90
     69.3700	  559.00	  608.11	-1788.61	  398.04
     69.4700	  628.00	  595.04	-1706.54	  398.17
     69.5700	  596.00	  586.65	-1730.15	  398.30
     69.6700	  598.00	  581.06	-1722.56	  398.44
     69.7700	  528.00	  577.23	-1788.73	  398.57
     69.8700	  595.00	  574.59	-1719.09	  398.70
     69.9700	  601.00	  572.87	-1711.37	  398.83
     70.0700	  597.00	  571.96	-1714.46	  398.97
     70.1700	  594.00	  571.76	-1717.26	  399.10
     70.2700	  580.00	  572.32	-1731.82	  399.23
     70.3700	  573.00	  573.75	-1740.25	  399.36
     70.4700	  581.00	  576.32	-1734.82	  399.49
     70.5700	  574.00	  580.53	-1746.03	  399.62
     70.6700	  602.00	  587.30	-1724.80	  399.74
     70.7700	  599.00	  598.22	-1738.72	  399.87
     70.8700	  589.00	  615.77	-1766.27	  400.00
     70.9700	  618.00	  643.57	-1765.07	  400.12
     71.0700	  627.00	  686.45	-1798.95	  400.25
     71.1700	  760.00	  750.06	-1729.56	  400.37
     71.2700	  855.00	  839.96	-1724.46	  400.50
     71.3700	  955.00	  960.29	-1744.79	  400.62
     71.4700	 1075.00	 1111.74	-1776.24	  400.75
     71.5700	 1254.00	 1290.70	-1776.20	  400.87
     71.6700	 1438.00	 1484.42	-1785.92	  400.99
     71.7700	 1657.00	 1675.41	-1757.91	  401.11
     71.8700	 1788.00	 1838.71	-1790.21	  401.23
     71.9700	 1939.00	 1945.96	-1746.46	  401.35
     72.0700	 1958.00	 1973.92	-1755.42	  401.47
     72.1700	 1899.00	 1915.86	-1756.36	  401.59
     72.2700	 1827.00	 1785.71	-1698.21	  401.71
     72.3700	 1685.00	 1609.90	-1664.40	  401.82
     72.4700	 1465.00	 1415.76	-1690.26	  401.94
     72.5700	 1307.00	 1226.71	-1659.21	  402.05
     72.6700	 1152.00	 1057.83	-1645.33	  402.17
     72.7700	 1025.00	  917.51	-1632.01	  402.28
     72.8700	  837.00	  808.01	-1710.51	  402.40
     72.9700	  781.00	  727.14	-1685.64	  402.51
     73.0700	  729.00	  670.18	-1680.68	  402.62
     73.1700	  728.00	  631.55	-1643.05	  402.73
     73.2700	  686.00	  606.00	-1659.50	  402.84
     73.3700	  689.00	  589.25	-1639.75	  402.95
     73.4700	  620.00	  578.20	-1697.70	  403.06
     73.5700	  610.00	  570.76	-1700.26	  403.16
     73.6700	  572.00	  565.67	-1733.17	  403.27
     73.7700	  566.00	  562.16	-1735.66	  403.37
     73.8700	  620.00	  559.81	-1679.31	  403.48
     73.9700	  552.00	  558.35	-1745.85	  403.58
     74.0700	  547.00	  557.61	-1750.11	  403.68
     74.1700	  605.00	  557.42	-1691.92	  403.79
     74.2700	  591.00	  557.61	-1706.11	  403.89
     74.3700	  595.00	  557.95	-1702.45	  403.99
     74.4700	  640.00	  558.20	-1657.70	  404.09
     74.5700	  618.00	  558.11	-1679.61	  404.18
     74.6700	  632.00	  557.50	-1665.00	  404.28
     74.7700	  645.00	  556.35	-1650.85	  404.38
     74.8700	  592.00	  554.79	-1702.29	  404.47
     74.9700	  625.00	  553.07	-1667.57	  404.56
     75.0700	  603.00	  551.50	-1688.00	  404.66
     75.1700	  594.00	  550.32	-1695.82	  404.75
     75.2700	  540.00	  549.97	-1749.47	  404.84
     75.3700	  544.00	  550.76	-1746.26	  404.93
     75.4700	  560.00	  553.09	-1732.59	  405.02
     75.5700	  593.00	  557.42	-1703.92	  405.11
     75.6700	  588.00	  564.40	-1715.90	  405.19
     75.7700	  533.00	  574.37	-1780.87	  405.28
     75.8700	  572.00	  587.61	-1755.11	  405.36
     75.9700	  613.00	  604.05	-1730.55	  405.45
     76.0700	  660.00	  623.16	-1702.66	  405.53
     76.1700	  675.00	  643.83	-1708.33	  405.61
     76.2700	  650.00	  664.32	-1753.82	  405.69
     76.3700	  669.00	  682.36	-1752.86	  405.77
     76.4700	  663.00	  695.33	-1771.83	  405.85
     76.5700	  698.00	  700.88	-1742.38	  405.92
     76.6700	  682.00	  697.85	-1755.35	  406.00
     76.7700	  702.00	  686.84	-1724.34	  406.07
     76.8700	  627.00	  669.90	-1782.40	  406.15
     76.9700	  646.00	  649.47	-1742.97	  406.22
     77.0700	  618.00	  628.34	-1749.84	  406.29
     77.1700	  622.00	  608.24	-1725.74	  406.36
     77.2700	  590.00	  590.44	-1739.94	  406.43
     77.3700	  562.00	  575.65	-1753.15	  406.49
     77.4700	  565.00	  564.02	-1738.52	  406.56
     77.5700	  543.00	  555.33	-1751.83	  406.62
     77.6700	  523.00	  549.13	-1765.63	  406.69
     77.7700	  494.00	  544.88	-1790.38	  406.75
     77.8700	  503.00	  542.06	-1778.56	  406.81
     77.9700	  526.00	  540.23	-1753.73	  406.87
     78.0700	  508.00	  539.06	-1770.56	  406.93
     78.1700	  513.00	  538.31	-1764.81	  406.99
     78.2700	  551.00	  537.83	-1726.33	  407.04
     78.3700	  494.00	  537.53	-1783.03	  407.10
     78.4700	  536.00	  537.35	-1740.85	  407.15
     78.5700	  508.00	  537.29	-1768.79	  407.20
     78.6700	  533.00	  537.32	-1743.82	  407.25
     78.7700	  540.00	  537.46	-1736.96	  407.30
     78.8700	  492.00	  537.74	-1785.24	  407.35
     78.9700	  505.00	  538.17	-1772.67	  407.40
     79.0700	  535.00	  538.80	-1743.30	  407.45
     79.1700	  528.00	  539.67	-1751.17	  407.49
     79.2700	  494.00	  540.84	-1786.34	  407.53
     79.3700	  513.00	  542.17	-1768.67	  407.57
     79.4700	  488.00	  544.07	-1795.57	  407.61
     79.5700	  485.00	  546.42	-1800.92	  407.65
     79.6700	  526.00	  549.29	-1762.79	  407.69
     79.7700	  546.00	  552.75	-1746.25	  407.73
     79.8700	  518.00	  556.92	-1778.42	  407.76
     79.9700	  569.00	  561.96	-1732.46	  407.79
     80.0700	  548.00	  568.08	-1759.58	  407.83
     80.1700	  567.00	  575.58	-1748.08	  407.86
     80.2700	  597.00	  584.77	-1727.27	  407.89
     80.3700	  559.00	  595.96	-1776.46	  407.91
     80.4700	  569.00	  609.29	-1779.79	  407.94
     80.5700	  606.00	  624.67	-1758.17	  407.97
     80.6700	  618.00	  641.68	-1763.18	  407.99
     80.7700	  635.00	  659.55	-1764.05	  408.01
     80.8700	  662.00	  677.18	-1754.68	  408.03
     80.9700	  661.00	  693.28	-1771.78	  408.05
     81.0700	  677.00	  706.60	-1769.10	  408.07
     81.1700	  710.00	  716.17	-1745.67	  408.08
     81.2700	  736.00	  721.30	-1724.80	  408.10
     81.3700	  774.00	  721.69	-1687.19	  408.11
     81.4700	  776.00	  717.38	-1680.88	  408.12
     81.5700	  766.00	  708.82	-1682.32	  408.13
     81.6700	  739.00	  696.65	-1697.15	  408.14
     81.7700	  680.00	  681.73	-1741.23	  408.15
     81.8700	  745.00	  665.05	-1659.55	  408.16
     81.9700	  681.00	  647.69	-1706.19	  408.16
     82.0700	  693.00	  630.69	-1677.19	  408.16
     82.1700	  657.00	  614.79	-1697.29	  408.16
     82.2700	  646.00	  600.60	-1694.10	  408.16
     82.3700	  629.00	  588.32	-1698.82	  408.16
     82.4700	  602.00	  578.03	-1715.53	  408.16
     82.5700	  639.00	  569.73	-1670.23	  408.16
     82.6700	  547.00	  563.32	-1755.82	  408.15
     82.7700	  589.00	  558.73	-1709.23	  408.14
     82.8700	  575.00	  555.81	-1720.31	  408.13
     82.9700	  562.00	  554.48	-1731.98	  408.12
     83.0700	  593.00	  554.62	-1701.12	  408.11
     83.1700	  539.00	  556.14	-1756.64	  408.09
     83.2700	  548.00	  558.91	-1750.41	  408.08
     83.3700	  553.00	  562.77	-1749.27	  408.06
     83.4700	  549.00	  567.47	-1757.97	  408.04
     83.5700	  521.00	  572.68	-1791.18	  408.02
     83.6700	  581.00	  577.96	-1736.46	  408.00
     83.7700	  553.00	  582.80	-1769.30	  407.98
     83.8700	  604.00	  586.61	-1722.11	  407.95
     83.9700	  605.00	  588.83	-1723.33	  407.93
     84.0700	  533.00	  589.08	-1795.58	  407.90
     84.1700	  592.00	  587.26	-1734.76	  407.87
     84.2700	  589.00	  583.64	-1734.14	  407.84
     84.3700	  531.00	  578.69	-1787.19	  407.80
     84.4700	  581.00	  572.97	-1731.47	  407.77
     84.5700	  541.00	  566.99	-1765.49	  407.73
     84.6700	  566.00	  561.18	-1734.68	  407.70
     84.7700	  555.00	  555.85	-1740.35	  407.66
     84.8700	  542.00	  551.20	-1748.70	  407.62
     84.9700	  529.00	  547.32	-1757.82	  407.57
     85.0700	  549.00	  544.23	-1734.73	  407.53
     85.1700	  518.00	  541.86	-1763.36	  407.48
     85.2700	  516.00	  540.14	-1763.64	  407.44
     85.3700	  509.00	  538.95	-1769.45	  407.39
     85.4700	  528.00	  538.20	-1749.70	  407.34
     85.5700	  534.00	  537.80	-1743.30	  407.29
     85.6700	  560.00	  537.72	-1717.22	  407.23
     85.7700	  543.00	  537.94	-1734.44	  407.18
     85.8700	  559.00	  538.49	-1718.99	  407.12
     85.9700	  547.00	  539.45	-1731.95	  407.06
     86.0700	  523.00	  540.91	-1757.41	  407.00
     86.1700	  534.00	  543.04	-1748.54	  406.94
     86.2700	  556.00	  546.00	-1729.50	  406.88
     86.3700	  559.00	  549.97	-1730.47	  406.81
     86.4700	  568.00	  555.12	-1726.62	  406.74
     86.5700	  546.00	  561.57	-1755.07	  406.67
     86.6700	  542.00	  569.31	-1766.81	  406.60
     86.7700	  582.00	  578.26	-1735.76	  406.53
     86.8700	  610.00	  587.80	-1717.30	  406.46
     86.9700	  570.00	  598.15	-1767.65	  406.39
     87.0700	  561.00	  608.36	-1786.86	  406.31
     87.1700	  665.00	  617.65	-1692.15	  406.23
     87.2700	  652.00	  625.18	-1712.68	  406.15
     87.3700	  654.00	  630.10	-1715.60	  406.07
     87.4700	  635.00	  631.80	-1736.30	  405.99
     87.5700	  615.00	  630.08	-1754.58	  405.90
     87.6700	  653.00	  625.24	-1711.74	  405.81
     87.7700	  671.00	  618.00	-1686.50	  405.73
     87.8700	  631.00	  609.25	-1717.75	  405.64
     87.9700	  599.00	  599.91	-1740.41	  405.55
     88.0700	  672.00	  590.83	-1658.33	  405.45
     88.1700	  597.00	  582.69	-1725.19	  405.36
     88.2700	  584.00	  576.02	-1731.52	  405.26
     88.3700	  597.00	  571.16	-1713.66	  405.16
     88.4700	  562.00	  568.28	-1745.78	  405.07
     88.5700	  599.00	  567.37	-1707.87	  404.96
     88.6700	  587.00	  568.28	-1720.78	  404.86
     88.7700	  591.00	  570.73	-1719.23	  404.76
     88.8700	  614.00	  574.35	-1699.85	  404.65
     88.9700	  554.00	  578.66	-1764.16	  404.54
     89.0700	  608.00	  583.15	-1714.65	  404.44
     89.1700	  569.00	  587.26	-1757.76	  404.32
     89.2700	  581.00	  590.44	-1748.94	  404.21
     89.3700	  556.00	  592.20	-1775.70	  404.10
     89.4700	  603.00	  592.23	-1728.73	  403.98
     89.5700	  616.00	  590.47	-1713.97	  403.87
     89.6700	  555.00	  587.11	-1771.61	  403.75
     89.7700	  568.00	  582.52	-1754.02	  403.63
     89.8700	  552.00	  577.15	-1764.65	  403.50
     89.9700	  574.00	  571.44	-1736.94	  403.38
     90.0700	  509.00	  565.76	-1796.26	  403.26
     90.1700	  544.00	  560.40	-1755.90	  403.13
     90.2700	  590.00	  555.59	-1705.09	  403.00
     90.3700	  537.00	  551.45	-1753.95	  402.87
     90.4700	  545.00	  548.04	-1742.54	  402.74
     90.5700	  525.00	  545.36	-1759.86	  402.61
     90.6700	  528.00	  543.35	-1754.85	  402.47
     90.7700	  512.00	  541.94	-1769.44	  402.34
     90.8700	  530.00	  541.05	-1750.55	  402.20
     90.9700	  543.00	  540.61	-1737.11	  402.06
     91.0700	  514.00	  540.58	-1766.08	  401.92
     91.1700	  512.00	  540.93	-1768.43	  401.78
     91.2700	  515.00	  541.67	-1766.17	  401.63
     91.3700	  493.00	  542.86	-1789.36	  401.49
     91.4700	  571.00	  544.58	-1713.08	  401.34
     91.5700	  519.00	  546.98	-1767.48	  401.19
     91.6700	  532.00	  550.22	-1757.72	  401.04
     91.7700	  549.00	  554.50	-1745.00	  400.89
     91.8700	  527.00	  560.04	-1772.54	  400.74
     91.9700	  504.00	  567.05	-1802.55	  400.58
     92.0700	  547.00	  575.49	-1767.99	  400.42
     92.1700	  548.00	  585.96	-1777.46	  400.27
     92.2700	  587.00	  598.27	-1750.77	  400.11
     92.3700	  615.00	  612.37	-1736.87	  399.95
     92.4700	  655.00	  628.07	-1712.57	  399.78
     92.5700	  639.00	  645.04	-1745.54	  399.62
     92.6700	  647.00	  662.83	-1755.33	  399.46
     92.7700	  695.00	  680.80	-1725.30	  399.29
     92.8700	  738.00	  698.24	-1699.74	  399.12
     92.9700	  697.00	  714.42	-1756.92	  398.95
     93.0700	  772.00	  728.70	-1696.20	  398.78
     93.1700	  765.00	  740.75	-1715.25	  398.61
     93.2700	  754.00	  750.61	-1736.11	  398.43
     93.3700	  789.00	  758.71	-1709.21	  398.26
     93.4700	  813.00	  765.64	-1692.14	  398.08
     93.5700	  819.00	  772.06	-1692.56	  397.90
     93.6700	  859.00	  778.55	-1659.05	  397.73
     93.7700	  778.00	  785.67	-1747.17	  397.54
     93.8700	  864.00	  793.90	-1669.40	  397.36
     93.9700	  866.00	  803.75	-1677.25	  397.18
     94.0700	  883.00	  815.64	-1672.14	  396.99
     94.1700	  874.00	  829.73	-1695.23	  396.81
     94.2700	  817.00	  845.85	-1768.35	  396.62
     94.3700	  876.00	  863.33	-1726.83	  396.43
     94.4700	  868.00	  881.09	-1752.59	  396.24
     94.5700	  925.00	  897.57	-1712.07	  396.05
     94.6700	  920.00	  910.96	-1730.46	  395.85
     94.7700	  926.00	  919.37	-1732.87	  395.66
     94.8700	  917.00	  921.16	-1743.66	  395.46
     94.9700	  950.00	  915.41	-1704.91	  395.27
     95.0700	  912.00	  902.16	-1729.66	  395.07
     95.1700	  858.00	  882.39	-1763.89	  394.87
     95.2700	  836.00	  857.75	-1761.25	  394.67
     95.3700	  781.00	  830.23	-1788.73	  394.47
     95.4700	  776.00	  801.90	-1765.40	  394.26
     95.5700	  786.00	  774.74	-1728.24	  394.06
     95.6700	  743.00	  750.56	-1747.06	  393.85
     95.7700	  698.00	  731.03	-1772.53	  393.64
     95.8700	  672.00	  717.62	-1785.12	  393.44
     95.9700	  662.00	  711.63	-1789.13	  393.23
     96.0700	  698.00	  714.19	-1755.69	  393.02
     96.1700	  761.00	  726.22	-1704.72	  392.80
     96.2700	  778.00	  748.43	-1709.93	  392.59
     96.3700	  772.00	  781.26	-1748.76	  392.38
     96.4700	  843.00	  824.75	-1721.25	  392.16
     96.5700	  828.00	  878.55	-1790.05	  391.94
     96.6700	  892.00	  941.71	-1789.21	  391.73
     96.7700	  904.00	 1012.65	-1848.15	  391.51
     96.8700	 1082.00	 1089.10	-1746.60	  391.29
     96.9700	 1202.00	 1168.04	-1705.54	  391.07
     97.0700	 1200.00	 1245.83	-1785.33	  390.84
     97.1700	 1339.00	 1318.21	-1718.71	  390.62
     97.2700	 1413.00	 1380.56	-1707.06	  390.40
     97.3700	 1433.00	 1428.31	-1734.81	  390.17
     97.4700	 1422.00	 1457.56	-1775.06	  389.95
     97.5700	 1427.00	 1465.89	-1778.39	  389.72
     97.6700	 1524.00	 1452.89	-1668.39	  389.49
     97.7700	 1390.00	 1420.25	-1769.75	  389.26
     97.8700	 1376.00	 1371.25	-1734.75	  389.03
     97.9700	 1319.00	 1310.12	-1730.62	  388.80
     98.0700	 1218.00	 1241.29	-1762.79	  388.57
     98.1700	 1153.00	 1169.06	-1755.56	  388.33
     98.2700	 1085.00	 1097.39	-1751.89	  388.10
     98.3700	 1094.00	 1029.67	-1675.17	  387.86
     98.4700	  955.00	  968.73	-1753.23	  387.63
     98.5700	  802.00	  916.87	-1854.37	  387.39
     98.6700	  870.00	  875.82	-1745.32	  387.15
     98.7700	  787.00	  846.92	-1799.42	  386.92
     98.8700	  791.00	  831.12	-1779.62	  386.68
     98.9700	  772.00	  829.06	-1796.56	  386.44
     99.0700	  880.00	  841.12	-1700.62	  386.19
     99.1700	  859.00	  867.49	-1747.99	  385.95
     99.2700	  945.00	  908.19	-1702.69	  385.71
     99.3700	 1018.00	  962.98	-1684.48	  385.47
     99.4700	 1022.00	 1031.30	-1748.80	  385.22
     99.5700	 1135.00	 1112.22	-1716.72	  384.98
     99.6700	 1216.00	 1204.32	-1727.82	  384.73
     99.7700	 1289.00	 1305.59	-1756.09	  384.49
     99.8700	 1366.00	 1413.33	-1786.83	  384.24
     99.9700	 1522.00	 1524.12	-1741.62	  383.99
    100.0700	 1623.00	 1633.89	-1750.39	  383.74
    100.1700	 1751.00	 1738.16	-1726.66	  383.49
    100.2700	 1925.00	 1832.36	-1646.86	  383.25
    100.3700	 1996.00	 1912.40	-1655.90	  383.00
    100.4700	 2013.00	 1975.04	-1701.54	  382.74
    100.5700	 2054.00	 2018.03	-1703.53	  382.49
    100.6700	 2014.00	 2039.99	-1765.49	  382.24
    100.7700	 2025.00	 2040.16	-1754.66	  381.99
    100.8700	 2021.00	 2018.48	-1736.98	  381.74
    100.9700	 2042.00	 1975.87	-1673.37	  381.48
    101.0700	 1917.00	 1914.52	-1737.02	  381.23
    101.1700	 1917.00	 1837.99	-1660.49	  380.97
    101.2700	 1761.00	 1750.91	-1729.41	  380.72
    101.3700	 1622.00	 1658.40	-1775.90	  380.47
    101.4700	 1532.00	 1565.46	-1772.96	  380.21
    101.5700	 1467.00	 1476.45	-1748.95	  379.95
    101.6700	 1478.00	 1394.83	-1656.33	  379.70
    101.7700	 1345.00	 1323.02	-1717.52	  379.44
    101.8700	 1258.00	 1262.37	-1743.87	  379.18
    101.9700	 1186.00	 1213.20	-1766.70	  378.93
    102.0700	 1177.00	 1174.82	-1737.32	  378.67
    102.1700	 1162.00	 1145.72	-1723.22	  378.41
    102.2700	 1129.00	 1123.72	-1734.22	  378.15
    102.3700	 1110.00	 1106.22	-1735.72	  377.89
    102.4700	 1081.00	 1090.41	-1748.91	  377.64
    102.5700	 1126.00	 1073.69	-1687.19	  377.38
    102.6700	 1069.00	 1053.97	-1724.47	  377.12
    102.7700	 1014.00	 1029.94	-1755.44	  376.86
    102.8700	  954.00	 1001.18	-1786.68	  376.60
    102.9700	  993.00	  968.02	-1714.52	  376.34
    103.0700	  897.00	  931.35	-1773.85	  376.08
    103.1700	  929.00	  892.35	-1702.85	  375.82
    103.2700	  787.00	  852.31	-1804.81	  375.56
    103.3700	  805.00	  812.45	-1746.95	  375.30
    103.4700	  757.00	  773.91	-1756.41	  375.04
    103.5700	  732.00	  737.62	-1745.12	  374.79
    103.6700	  683.00	  704.31	-1760.81	  374.53
    103.7700	  654.00	  674.47	-1759.97	  374.27
    103.8700	  644.00	  648.36	-1743.86	  374.01
    103.9700	  627.00	  626.06	-1738.56	  373.75
    104.0700	  601.00	  607.46	-1745.96	  373.49
    104.1700	  620.00	  592.32	-1711.82	  373.23
    104.2700	  613.00	  580.31	-1706.81	  372.97
    104.3700	  556.00	  571.05	-1754.55	  372.71
    104.4700	  572.00	  564.15	-1731.65	  372.46
    104.5700	  527.00	  559.23	-1771.73	  372.20
    104.6700	  549.00	  555.93	-1746.43	  371.94
    104.7700	  507.00	  553.94	-1786.44	  371.68
    104.8700	  590.00	  552.97	-1702.47	  371.43
    104.9700	  513.00	  552.85	-1779.35	  371.17
    105.0700	  530.00	  553.37	-1762.87	  370.91
    105.1700	  577.00	  554.39	-1716.89	  370.66
    105.2700	  599.00	  555.87	-1696.37	  370.40
    105.3700	  534.00	  557.76	-1763.26	  370.15
    105.4700	  512.00	  560.04	-1787.54	  369.89
    105.5700	  544.00	  562.77	-1758.27	  369.64
    105.6700	  536.00	  566.01	-1769.51	  369.39
    105.7700	  529.00	  569.89	-1780.39	  369.13
    105.8700	  574.00	  574.51	-1740.01	  368.88
    105.9700	  555.00	  579.97	-1764.47	  368.63
    106.0700	  578.00	  586.34	-1747.84	  368.38
    106.1700	  579.00	  593.66	-1754.16	  368.13
    106.2700	  607.00	  601.89	-1734.39	  367.88
    106.3700	  583.00	  610.94	-1767.44	  367.63
    106.4700	  583.00	  620.65	-1777.15	  367.38
    106.5700	  613.00	  630.78	-1757.28	  367.14
    106.6700	  636.00	  641.06	-1744.56	  366.89
    106.7700	  633.00	  651.14	-1757.64	  366.64
    106.8700	  643.00	  660.65	-1757.15	  366.40
    106.9700	  659.00	  669.21	-1749.71	  366.15
    107.0700	  657.00	  676.45	-1758.95	  365.91
    107.1700	  667.00	  682.11	-1754.61	  365.67
    107.2700	  656.00	  686.03	-1769.53	  365.43
    107.3700	  678.00	  688.23	-1749.73	  365.19
    107.4700	  697.00	  688.90	-1731.40	  364.95
    107.5700	  656.00	  688.36	-1771.86	  364.71
    107.6700	  741.00	  687.04	-1685.54	  364.48
    107.7700	  720.00	  685.35	-1704.85	  364.24
    107.8700	  653.00	  683.71	-1770.21	  364.01
    107.9700	  688.00	  682.44	-1733.94	  363.77
    108.0700	  663.00	  681.76	-1758.26	  363.54
    108.1700	  732.00	  681.78	-1689.28	  363.31
    108.2700	  648.00	  682.50	-1774.00	  363.08
    108.3700	  690.00	  683.78	-1733.28	  362.85
    108.4700	  728.00	  685.40	-1696.90	  362.63
    108.5700	  720.00	  687.01	-1706.51	  362.40
    108.6700	  708.00	  688.24	-1719.74	  362.18
    108.7700	  666.00	  688.65	-1762.15	  361.95
    108.8700	  678.00	  687.83	-1749.33	  361.73
    108.9700	  688.00	  685.50	-1737.00	  361.51
    109.0700	  694.00	  681.45	-1726.95	  361.29
    109.1700	  708.00	  675.64	-1707.14	  361.08
    109.2700	  700.00	  668.21	-1707.71	  360.86
    109.3700	  656.00	  659.38	-1742.88	  360.65
    109.4700	  625.00	  649.48	-1763.98	  360.44
    109.5700	  610.00	  638.85	-1768.35	  360.23
    109.6700	  662.00	  627.86	-1705.36	  360.02
    109.7700	  628.00	  616.83	-1728.33	  359.81
    109.8700	  589.00	  606.08	-1756.58	  359.61
    109.9700	  601.00	  595.87	-1734.37	  359.41
    110.0700	  576.00	  586.41	-1749.91	  359.21
    110.1700	  543.00	  577.86	-1774.36	  359.01
    110.2700	  559.00	  570.31	-1750.81	  358.81
    110.3700	  589.00	  563.83	-1714.33	  358.61
    110.4700	  535.00	  558.41	-1762.91	  358.42
    110.5700	  588.00	  554.03	-1705.53	  358.23
    110.6700	  548.00	  550.63	-1742.13	  358.04
    110.7700	  541.00	  548.13	-1746.63	  357.85
    110.8700	  571.00	  546.43	-1714.93	  357.67
    110.9700	  544.00	  545.44	-1740.94	  357.49
    111.0700	  507.00	  545.07	-1777.57	  357.31
    111.1700	  523.00	  545.22	-1761.72	  357.13
    111.2700	  569.00	  545.82	-1716.32	  356.95
    111.3700	  544.00	  546.79	-1742.29	  356.78
    111.4700	  529.00	  548.08	-1758.58	  356.61
    111.5700	  557.00	  549.65	-1732.15	  356.44
    111.6700	  563.00	  551.45	-1727.95	  356.28
    111.7700	  612.00	  553.47	-1680.97	  356.11
    111.8700	  598.00	  555.68	-1697.18	  355.95
    111.9700	  554.00	  558.08	-1743.58	  355.79
    112.0700	  539.00	  560.67	-1761.18	  355.64
    112.1700	  559.00	  563.48	-1743.98	  355.48
    112.2700	  569.00	  566.51	-1737.01	  355.33
    112.3700	  507.00	  569.81	-1802.31	  355.19
    112.4700	  566.00	  573.40	-1746.90	  355.04
    112.5700	  583.00	  577.35	-1733.85	  354.90
    112.6700	  568.00	  581.72	-1753.22	  354.76
    112.7700	  611.00	  586.59	-1715.09	  354.62
    112.8700	  614.00	  592.08	-1717.58	  354.49
    112.9700	  635.00	  598.34	-1702.84	  354.36
    113.0700	  720.00	  605.54	-1625.04	  354.23
    113.1700	  618.00	  613.94	-1735.44	  354.11
    113.2700	  724.00	  623.84	-1639.34	  353.99
    113.3700	  663.00	  635.66	-1712.16	  353.87
    113.4700	  769.00	  649.90	-1620.40	  353.75
    113.5700	  783.00	  667.19	-1623.69	  353.64
    113.6700	  780.00	  688.31	-1647.81	  353.53
    113.7700	  852.00	  714.24	-1601.74	  353.43
    113.8700	  884.00	  746.12	-1601.62	  353.33
    113.9700	  903.00	  785.32	-1621.82	  353.23
    114.0700	  965.00	  833.39	-1607.89	  353.13
    114.1700	  993.00	  892.15	-1638.65	  353.04
    114.2700	 1112.00	  963.60	-1591.10	  352.95
    114.3700	 1164.00	 1049.89	-1625.39	  352.87
    114.4700	 1311.00	 1153.32	-1581.82	  352.79
    114.5700	 1420.00	 1276.22	-1595.72	  352.71
    114.6700	 1496.00	 1420.87	-1664.37	  352.64
    114.7700	 1665.00	 1589.46	-1663.96	  352.57
    114.8700	 1890.00	 1783.79	-1633.29	  352.50
    114.9700	 2181.00	 2005.26	-1563.76	  352.44
    115.0700	 2335.00	 2254.62	-1659.12	  352.38
    115.1700	 2557.00	 2531.95	-1714.45	  352.33
    115.2700	 2753.00	 2836.42	-1822.92	  352.27
    115.3700	 3076.00	 3166.09	-1829.59	  352.23
    115.4700	 3422.00	 3517.94	-1835.44	  352.19
    115.5700	 3760.00	 3887.65	-1867.15	  352.15
    115.6700	 4221.00	 4269.83	-1788.33	  352.11
    115.7700	 4635.00	 4657.84	-1762.34	  352.08
    115.8700	 4697.00	 5043.76	-2086.26	  352.06
    115.9700	 5116.00	 5418.62	-2042.12	  352.04
    116.0700	 5461.00	 5772.52	-2051.02	  352.02
    116.1700	 5986.00	 6094.99	-1848.49	  352.01
    116.2700	 6262.00	 6375.33	-1852.83	  352.00
    116.3700	 6625.00	 6603.08	-1717.58	  351.99
    116.4700	 6741.00	 6768.99	-1767.49	  352.00
    116.5700	 6869.00	 6865.85	-1736.35	  352.00
    116.6700	 6958.00	 6889.37	-1670.87	  352.01
    116.7700	 6819.00	 6838.68	-1759.18	  352.03
    116.8700	 6885.00	 6716.46	-1570.96	  352.05
    116.9700	 6504.00	 6528.60	-1764.10	  352.07
    117.0700	 6348.00	 6283.50	-1675.00	  352.10
    117.1700	 6040.00	 5991.01	-1690.51	  352.13
    117.2700	 5625.00	 5661.65	-1776.15	  352.17
    117.3700	 5282.00	 5306.04	-1763.54	  352.22
    117.4700	 4942.00	 4934.27	-1731.77	  352.26
    117.5700	 4464.00	 4555.66	-1831.16	  352.32
    117.6700	 4350.00	 4178.38	-1567.88	  352.38
    117.7700	 3995.00	 3809.44	-1553.94	  352.44
    117.8700	 3622.00	 3454.78	-1572.28	  352.51
    117.9700	 3183.00	 3119.06	-1675.56	  352.59
    118.0700	 2831.00	 2805.76	-1714.26	  352.67
    118.1700	 2598.00	 2517.19	-1658.69	  352.75
    118.2700	 2297.00	 2254.61	-1697.11	  352.84
    118.3700	 1981.00	 2018.48	-1776.98	  352.94
    118.4700	 1743.00	 1808.45	-1804.95	  353.04
    118.5700	 1571.00	 1623.58	-1792.08	  353.15
    118.6700	 1444.00	 1462.38	-1757.88	  353.26
    118.7700	 1201.00	 1323.05	-1861.55	  353.38
    118.8700	 1122.00	 1203.61	-1821.11	  353.51
    118.9700	 1081.00	 1101.94	-1760.44	  353.64
    119.0700	  969.00	 1015.95	-1786.45	  353.77
    119.1700	  845.00	  943.58	-1838.08	  353.92
    119.2700	  845.00	  882.92	-1777.42	  354.06
    119.3700	  793.00	  832.24	-1778.74	  354.22
    119.4700	  745.00	  789.97	-1784.47	  354.38
    119.5700	  719.00	  754.77	-1775.27	  354.55
    119.6700	  691.00	  725.44	-1773.94	  354.72
    119.7700	  692.00	  701.00	-1748.50	  354.90
    119.8700	  621.00	  680.60	-1799.10	  355.08
    119.9700	  617.00	  663.57	-1786.07	  355.28
    120.0700	  601.00	  649.32	-1787.82	  355.47
    120.1700	  560.00	  637.40	-1816.90	  355.68
    120.2700	  632.00	  627.43	-1734.93	  355.89
    120.3700	  569.00	  619.13	-1789.63	  356.11
    120.4700	  569.00	  612.24	-1782.74	  356.33
    120.5700	  562.00	  606.58	-1784.08	  356.56
    120.6700	  600.00	  602.01	-1741.51	  356.80
    120.7700	  581.00	  598.39	-1756.89	  357.05
    120.8700	  585.00	  595.65	-1750.15	  357.30
    120.9700	  563.00	  593.70	-1770.20	  357.56
    121.0700	  579.00	  592.49	-1752.99	  357.82
    121.1700	  597.00	  591.96	-1734.46	  358.10
    121.2700	  586.00	  592.06	-1745.56	  358.38
    121.3700	  627.00	  592.74	-1705.24	  358.66
    121.4700	  597.00	  593.96	-1736.46	  358.96
    121.5700	  595.00	  595.67	-1740.17	  359.26
    121.6700	  564.00	  597.79	-1773.29	  359.57
    121.7700	  569.00	  600.28	-1770.78	  359.89
    121.8700	  613.00	  603.05	-1729.55	  360.21
    121.9700	  635.00	  606.04	-1710.54	  360.54
    122.0700	  576.00	  609.17	-1772.67	  360.88
    122.1700	  584.00	  612.32	-1767.82	  361.23
    122.2700	  642.00	  615.41	-1712.91	  361.59
    122.3700	  604.00	  618.34	-1753.84	  361.95
    122.4700	  575.00	  621.01	-1785.51	  362.32
    122.5700	  593.00	  623.31	-1769.81	  362.70
    122.6700	  659.00	  625.16	-1705.66	  363.08
    122.7700	  595.00	  626.50	-1771.00	  363.48
    122.8700	  638.00	  627.28	-1728.78	  363.88
    122.9700	  668.00	  627.46	-1698.96	  364.29
    123.0700	  612.00	  627.06	-1754.56	  364.71
    123.1700	  640.00	  626.09	-1725.59	  365.14
    123.2700	  659.00	  624.59	-1705.09	  365.58
    123.3700	  688.00	  622.63	-1674.13	  366.02
    123.4700	  654.00	  620.27	-1705.77	  366.47
    123.5700	  611.00	  617.57	-1746.07	  366.94
    123.6700	  675.00	  614.62	-1679.12	  367.41
    123.7700	  616.00	  611.49	-1734.99	  367.89
    123.8700	  662.00	  608.23	-1685.73	  368.37
    123.9700	  620.00	  604.93	-1724.43	  368.87
    124.0700	  606.00	  601.63	-1735.13	  369.38
    124.1700	  594.00	  598.39	-1743.89	  369.89
    124.2700	  609.00	  595.26	-1725.76	  370.41
    124.3700	  581.00	  592.25	-1750.75	  370.95
    124.4700	  636.00	  589.41	-1692.91	  371.49
    124.5700	  570.00	  586.76	-1756.26	  372.04
    124.6700	  610.00	  584.31	-1713.81	  372.60
    124.7700	  515.00	  582.08	-1806.58	  373.17
    124.8700	  612.00	  580.08	-1707.58	  373.75
    124.9700	  593.00	  491.67	-1638.17	  374.34
    125.0700	  562.00	  492.27	-1739.50	  374.94
    125.1700	  614.00	  492.88	-1739.50	  375.55
    125.2700	  630.00	  493.50	-1739.50	  376.17
    125.3700	  577.00	  494.13	-1739.50	  376.79
    125.4700	  566.00	  494.76	-1739.50	  377.43
    125.5700	  546.00	  495.41	-1739.50	  378.08
    125.6700	  536.00	  496.07	-1739.50	  378.74
    125.7700	  539.00	  496.74	-1739.50	  379.41
    125.8700	  612.00	  497.42	-1739.50	  380.08
    125.9700	  569.00	  498.11	-1739.50	  380.77
    126.0700	  576.00	  498.80	-1739.50	  381.47
    126.1700	  570.00	  499.51	-1739.50	  382.18
    126.2700	  613.00	  500.23	-1739.50	  382.90
    126.3700	  608.00	  500.96	-1739.50	  383.63
    126.4700	  646.00	  501.71	-1739.50	  384.37
    126.5700	  626.00	  502.46	-1739.50	  385.13
    126.6700	  594.00	  503.22	-1739.50	  385.89
    126.7700	  626.00	  503.99	-1739.50	  386.66
    126.8700	  656.00	  504.78	-1739.50	  387.45
    126.9700	  628.00	  505.57	-1739.50	  388.24
    127.0700	  656.00	  506.38	-1739.50	  389.05
    127.1700	  664.00	  507.20	-1739.50	  389.87
    127.2700	  603.00	  508.03	-1739.50	  390.69
    127.3700	  645.00	  508.87	-1739.50	  391.53
    127.4700	  691.00	  509.72	-1739.50	  392.39
    127.5700	  709.00	  510.58	-1739.50	  393.25
    127.6700	  653.00	  511.46	-1739.50	  394.12
    127.7700	  684.00	  512.34	-1739.50	  395.01
    127.8700	  709.00	  513.24	-1739.50	  395.91
    127.9700	  726.00	  514.15	-1739.50	  396.82
    128.0700	  786.00	  515.07	-1739.50	  397.74
    128.1700	  808.00	  516.00	-1739.50	  398.67
    128.2700	  783.00	  516.95	-1739.50	  399.62
    128.3700	  778.00	  517.91	-1739.50	  400.58
    128.4700	  779.00	  518.88	-1739.50	  401.55
    128.5700	    0.00	  519.86	-1739.50	  402.53
    128.6700	    0.00	  520.85	-1739.50	  403.52
     12.3092	        	        	        	        	       0	(  0  0  2)	  0  1
     24.8864	        	        	        	        	       0	(  0  0  4)	  0  1
     28.3374	        	        	        	        	       0	(  1  0  0)	  0  1
     29.0340	        	        	        	        	       0	(  1  0  1)	  0  1
     31.0386	        	        	        	        	       0	(  1  0  2)	  0  1
     34.1445	        	        	        	        	       0	(  1  0  3)	  0  1
     37.7791	        	        	        	        	       0	(  0  0  6)	  0  1
     38.1187	        	        	        	        	       0	(  1  0  4)	  0  1
     42.7656	        	        	        	        	       0	(  1  0  5)	  0  1
     47.9460	        	        	        	        	       0	(  1  0  6)	  0  1
     50.2721	        	        	        	        	       0	(  1  1  0)	  0  1
     51.1932	        	        	        	        	       0	(  0  0  8)	  0  1
     51.9936	        	        	        	        	       0	(  1  1  2)	  0  1
     53.5726	        	        	        	        	       0	(  1  0  7)	  0  1
     56.9374	        	        	        	        	       0	(  1  1  4)	  0  1
     58.7681	        	        	        	        	       0	(  2  0  0)	  0  1
     59.1593	        	        	        	        	       0	(  2  0  1)	  0  1
     59.5989	        	        	        	        	       0	(  1  0  8)	  0  1
     60.3237	        	        	        	        	       0	(  2  0  2)	  0  1
     62.2353	        	        	        	        	       0	(  2  0  3)	  0  1
     64.6258	        	        	        	        	       0	(  1  1  6)	  0  1
     64.8571	        	        	        	        	       0	(  2  0  4)	  0  1
     65.4131	        	        	        	        	       0	(  0  0 10)	  0  1
     66.0106	        	        	        	        	       0	(  1  0  9)	  0  1
     68.1486	        	        	        	        	       0	(  2  0  5)	  0  1
     72.0727	        	        	        	        	       0	(  2  0  6)	  0  1
     72.8215	        	        	        	        	       0	(  1  0 10)	  0  1
     74.6553	        	        	        	        	       0	(  1  1  8)	  0  1
     76.6029	        	        	        	        	       0	(  2  0  7)	  0  1
     80.0732	        	        	        	        	       0	(  1  0 11)	  0  1
     80.8816	        	        	        	        	       0	(  0  0 12)	  0  1
     81.0064	        	        	        	        	       0	(  2  1  0)	  0  1
     81.3459	        	        	        	        	       0	(  2  1  1)	  0  1
     81.7287	        	        	        	        	       0	(  2  0  8)	  0  1
     82.3629	        	        	        	        	       0	(  2  1  2)	  0  1
     84.0526	        	        	        	        	       0	(  2  1  3)	  0  1
     86.4101	        	        	        	        	       0	(  2  1  4)	  0  1
     86.9158	        	        	        	        	       0	(  1  1 10)	  0  1
     87.4614	        	        	        	        	       0	(  2  0  9)	  0  1
     87.8404	        	        	        	        	       0	(  1  0 12)	  0  1
     89.4330	        	        	        	        	       0	(  2  1  5)	  0  1
     93.1268	        	        	        	        	       0	(  2  1  6)	  0  1
     93.8426	        	        	        	        	       0	(  2  0 10)	  0  1
     94.8929	        	        	        	        	       0	(  3  0  0)	  0  1
     95.2299	        	        	        	        	       0	(  3  0  1)	  0  1
     96.2422	        	        	        	        	       0	(  3  0  2)	  0  1
     96.2451	        	        	        	        	       0	(  1  0 13)	  0  1
     97.5110	        	        	        	        	       0	(  2  1  7)	  0  1
     97.9338	        	        	        	        	       0	(  3  0  3)	  0  1
     98.4035	        	        	        	        	       0	(  0  0 14)	  0  1
    100.3144	        	        	        	        	       0	(  3  0  4)	  0  1
    100.9569	        	        	        	        	       0	(  2  0 11)	  0  1
    101.7707	        	        	        	        	       0	(  1  1 12)	  0  1
    102.6281	        	        	        	        	       0	(  2  1  8)	  0  1
    103.4028	        	        	        	        	       0	(  3  0  5)	  0  1
    105.4867	        	        	        	        	       0	(  1  0 14)	  0  1
    107.2338	        	        	        	        	       0	(  3  0  6)	  0  1
    108.5582	        	        	        	        	       0	(  2  1  9)	  0  1
    108.9584	        	        	        	        	       0	(  2  0 12)	  0  1
    111.8689	        	        	        	        	       0	(  3  0  7)	  0  1
    115.4464	        	        	        	        	       0	(  2  1 10)	  0  1
    115.9148	        	        	        	        	       0	(  1  0 15)	  0  1
    116.6128	        	        	        	        	       0	(  2  2  0)	  0  1
    117.4155	        	        	        	        	       0	(  3  0  8)	  0  1
    118.1263	        	        	        	        	       0	(  2  2  2)	  0  1
    118.1296	        	        	        	        	       0	(  2  0 13)	  0  1
    119.8602	        	        	        	        	       0	(  0  0 16)	  0  1
    120.5881	        	        	        	        	       0	(  1  1 14)	  0  1
    122.8063	        	        	        	        	       0	(  2  2  4)	  0  1
    123.5615	        	        	        	        	       0	(  2  1 11)	  0  1
    124.0663	        	        	        	        	       0	(  3  0  9)	  0  1
    124.6753	        	        	        	        	       0	(  3  1  0)	  0  1
    125.0851	        	        	        	        	       0	(  3  1  1)	  0  1
    126.3270	        	        	        	        	       0	(  3  1  2)	  0  1
    128.2338	        	        	        	        	       0	(  1  0 16)	  0  1
    128.4426	        	        	        	        	       0	(  3  1  3)	  0  1
    129.0395	        	        	        	        	       0	(  2  0 14)	  0  1
    131.2348	        	        	        	        	       0	(  2  2  6)	  0  1
    131.5144	        	        	        	        	       0	(  3  1  4)	  0  1
    132.1936	        	        	        	        	       0	(  3  0 10)	  0  1
    133.4555	        	        	        	        	       0	(  2  1 12)	  0  1
    135.6953	        	        	        	        	       0	(  3  1  5)	  0  1
    141.2813	        	        	        	        	       0	(  3  1  6)	  0  1
    142.6492	        	        	        	        	       0	(  3  0 11)	  0  1
    143.1404	        	        	        	        	       0	(  2  0 15)	  0  1
    144.3518	        	        	        	        	       0	(  1  0 17)	  0  1
    145.4425	        	        	        	        	       0	(  2  2  8)	  0  1
    146.5750	        	        	        	        	       0	(  2  1 13)	  0  1
    148.9380	        	        	        	        	       0	(  3  1  7)	  0  1
    149.4383	        	        	        	        	       0	(  1  1 16)	  0  1
    153.7821	        	        	        	        	       0	(  0  0 18)	  0  1
    158.4614	        	        	        	        	       0	(  3  0 12)	  0  1
    158.8016	        	        	        	        	       0	(  4  0  0)	  0  1
    159.7555	        	        	        	        	       0	(  4  0  1)	  0  1
    160.8866	        	        	        	        	       0	(  3  1  8)	  0  1
    162.9223	        	        	        	        	       0	(  4  0  2)	  0  1
    169.2865	        	        	        	        	       0	(  2  0 16)	  0  1
    170.2157	        	        	        	        	       0	(  4  0  3)	  0  1
    173.5583	        	        	        	        	       0	(  2  1 14)	  0  1
