MSG Master    CELL:    5.91909   5.91909  23.26898   90.0000   90.0000  120.0000   SPGR: P 63/m m c             TEMP:   1074.85
  1   1280     2.52000     0.00000    -0.12970     0.00000     0.00000    0
    99     0     2
       0.00000      10.00000
     125.00000     130.00000
 2Theta	Yobs	Ycal	Yobs-Ycal	Backg	Posr	(hkl)	K
      0.7700	    0.00	  539.17	-1752.50	  420.91
      0.8700	    0.00	  539.96	-1752.50	  421.70
      0.9700	   49.00	  540.74	-1752.50	  422.48
      1.0700	   45.00	  541.51	-1752.50	  423.24
      1.1700	   51.00	  542.26	-1752.50	  424.00
      1.2700	   39.00	  543.01	-1752.50	  424.75
      1.3700	   38.00	  543.74	-1752.50	  425.48
      1.4700	  108.00	  544.47	-1752.50	  426.20
      1.5700	  266.00	  545.18	-1752.50	  426.91
      1.6700	  477.00	  545.88	-1752.50	  427.62
      1.7700	  565.00	  546.57	-1752.50	  428.31
      1.8700	  639.00	  547.25	-1752.50	  428.99
      1.9700	  692.00	  547.92	-1752.50	  429.66
      2.0700	  774.00	  548.58	-1752.50	  430.31
      2.1700	  810.00	  549.23	-1752.50	  430.96
      2.2700	  753.00	  549.86	-1752.50	  431.60
      2.3700	  724.00	  550.49	-1752.50	  432.23
      2.4700	  728.00	  551.11	-1752.50	  432.85
      2.5700	  675.00	  551.72	-1752.50	  433.45
      2.6700	  674.00	  552.32	-1752.50	  434.05
      2.7700	  622.00	  552.90	-1752.50	  434.64
      2.8700	  653.00	  553.48	-1752.50	  435.22
      2.9700	  644.00	  554.05	-1752.50	  435.78
      3.0700	  581.00	  554.61	-1752.50	  436.34
      3.1700	  593.00	  555.16	-1752.50	  436.89
      3.2700	  656.00	  555.69	-1752.50	  437.43
      3.3700	  624.00	  556.22	-1752.50	  437.96
      3.4700	  726.00	  556.74	-1752.50	  438.48
      3.5700	  795.00	  557.25	-1752.50	  438.99
      3.6700	  866.00	  557.75	-1752.50	  439.49
      3.7700	  944.00	  558.25	-1752.50	  439.98
      3.8700	  930.00	  558.73	-1752.50	  440.46
      3.9700	  978.00	  559.20	-1752.50	  440.94
      4.0700	 1059.00	  559.67	-1752.50	  441.40
      4.1700	 1061.00	  560.12	-1752.50	  441.86
      4.2700	 1069.00	  560.57	-1752.50	  442.30
      4.3700	 1082.00	  561.00	-1752.50	  442.74
      4.4700	 1103.00	  561.43	-1752.50	  443.17
      4.5700	 1110.00	  561.85	-1752.50	  443.59
      4.6700	 1022.00	  562.26	-1752.50	  444.00
      4.7700	 1037.00	  562.67	-1752.50	  444.40
      4.8700	  963.00	  563.06	-1752.50	  444.80
      4.9700	  965.00	  563.45	-1752.50	  445.18
      5.0700	 1024.00	  563.82	-1752.50	  445.56
      5.1700	  905.00	  564.19	-1752.50	  445.93
      5.2700	  861.00	  564.55	-1752.50	  446.29
      5.3700	  860.00	  564.90	-1752.50	  446.64
      5.4700	  888.00	  565.25	-1752.50	  446.98
      5.5700	  855.00	  565.58	-1752.50	  447.32
      5.6700	  840.00	  565.91	-1752.50	  447.65
      5.7700	  882.00	  566.23	-1752.50	  447.97
      5.8700	  840.00	  566.54	-1752.50	  448.28
      5.9700	  804.00	  566.85	-1752.50	  448.58
      6.0700	  804.00	  567.14	-1752.50	  448.88
      6.1700	  786.00	  567.43	-1752.50	  449.17
      6.2700	  767.00	  567.71	-1752.50	  449.45
      6.3700	  781.00	  567.99	-1752.50	  449.72
      6.4700	  768.00	  568.25	-1752.50	  449.99
      6.5700	  747.00	  568.51	-1752.50	  450.25
      6.6700	  734.00	  568.76	-1752.50	  450.50
      6.7700	  721.00	  569.00	-1752.50	  450.74
      6.8700	  715.00	  569.24	-1752.50	  450.98
      6.9700	  689.00	  569.47	-1752.50	  451.21
      7.0700	  694.00	  569.69	-1752.50	  451.43
      7.1700	  716.00	  569.91	-1752.50	  451.64
      7.2700	  689.00	  570.11	-1752.50	  451.85
      7.3700	  709.00	  570.31	-1752.50	  452.05
      7.4700	  698.00	  570.51	-1752.50	  452.24
      7.5700	  691.00	  570.69	-1752.50	  452.43
      7.6700	  685.00	  570.87	-1752.50	  452.61
      7.7700	  670.00	  571.05	-1752.50	  452.78
      7.8700	  656.00	  571.21	-1752.50	  452.95
      7.9700	  636.00	  571.37	-1752.50	  453.11
      8.0700	  642.00	  571.53	-1752.50	  453.26
      8.1700	  615.00	  571.67	-1752.50	  453.41
      8.2700	  618.00	  571.81	-1752.50	  453.55
      8.3700	  604.00	  571.95	-1752.50	  453.68
      8.4700	  595.00	  572.07	-1752.50	  453.81
      8.5700	  662.00	  572.20	-1752.50	  453.93
      8.6700	  623.00	  572.31	-1752.50	  454.05
      8.7700	  645.00	  572.42	-1752.50	  454.16
      8.8700	  623.00	  572.52	-1752.50	  454.26
      8.9700	  626.00	  572.62	-1752.50	  454.35
      9.0700	  605.00	  572.71	-1752.50	  454.44
      9.1700	  609.00	  572.79	-1752.50	  454.53
      9.2700	  606.00	  572.87	-1752.50	  454.61
      9.3700	  624.00	  572.94	-1752.50	  454.68
      9.4700	  608.00	  573.01	-1752.50	  454.75
      9.5700	  559.00	  573.07	-1752.50	  454.81
      9.6700	  617.00	  573.13	-1752.50	  454.86
      9.7700	  583.00	  573.17	-1752.50	  454.91
      9.8700	  591.00	  573.22	-1752.50	  454.95
      9.9700	  601.00	  573.26	-1752.50	  454.99
     10.0700	  594.00	  574.04	-1732.54	  455.03
     10.1700	  636.00	  574.15	-1690.65	  455.05
     10.2700	  605.00	  574.27	-1721.77	  455.07
     10.3700	  563.00	  574.41	-1763.91	  455.09
     10.4700	  567.00	  574.60	-1760.10	  455.10
     10.5700	  602.00	  574.90	-1725.40	  455.11
     10.6700	  609.00	  575.40	-1718.90	  455.11
     10.7700	  574.00	  576.20	-1754.70	  455.11
     10.8700	  573.00	  577.38	-1756.88	  455.10
     10.9700	  610.00	  578.93	-1721.43	  455.08
     11.0700	  601.00	  580.81	-1732.31	  455.06
     11.1700	  593.00	  583.02	-1742.52	  455.04
     11.2700	  564.00	  585.58	-1774.08	  455.01
     11.3700	  625.00	  588.58	-1716.08	  454.97
     11.4700	  571.00	  592.15	-1773.65	  454.94
     11.5700	  600.00	  596.47	-1748.97	  454.89
     11.6700	  615.00	  601.90	-1739.40	  454.84
     11.7700	  568.00	  609.02	-1793.52	  454.79
     11.8700	  643.00	  618.78	-1728.28	  454.73
     11.9700	  669.00	  631.89	-1715.39	  454.67
     12.0700	  692.00	  646.84	-1707.34	  454.60
     12.1700	  673.00	  657.42	-1736.92	  454.53
     12.2700	  671.00	  653.84	-1735.34	  454.46
     12.3700	  578.00	  633.38	-1807.88	  454.38
     12.4700	  634.00	  608.82	-1727.32	  454.29
     12.5700	  632.00	  591.21	-1711.71	  454.20
     12.6700	  552.00	  581.90	-1782.40	  454.11
     12.7700	  551.00	  577.81	-1779.31	  454.02
     12.8700	  579.00	  576.00	-1749.50	  453.91
     12.9700	  593.00	  575.01	-1734.51	  453.81
     13.0700	  580.00	  574.33	-1746.83	  453.70
     13.1700	  601.00	  573.81	-1725.31	  453.59
     13.2700	  571.00	  573.40	-1754.90	  453.47
     13.3700	  497.00	  573.04	-1828.54	  453.35
     13.4700	  525.00	  572.74	-1800.24	  453.22
     13.5700	  553.00	  572.46	-1771.96	  453.10
     13.6700	  590.00	  572.21	-1734.71	  452.96
     13.7700	  545.00	  571.98	-1779.48	  452.83
     13.8700	  557.00	  571.76	-1767.26	  452.69
     13.9700	  546.00	  571.55	-1778.05	  452.54
     14.0700	  597.00	  571.35	-1726.85	  452.40
     14.1700	  562.00	  571.15	-1761.65	  452.25
     14.2700	  549.00	  570.95	-1774.45	  452.09
     14.3700	  558.00	  570.76	-1765.26	  451.94
     14.4700	  600.00	  570.56	-1723.06	  451.77
     14.5700	  548.00	  570.37	-1774.87	  451.61
     14.6700	  554.00	  570.18	-1768.68	  451.44
     14.7700	  560.00	  569.98	-1762.48	  451.27
     14.8700	  576.00	  569.79	-1746.29	  451.10
     14.9700	  510.00	  569.59	-1812.09	  450.92
     15.0700	  542.00	  569.40	-1779.90	  450.74
     15.1700	  562.00	  569.20	-1759.70	  450.56
     15.2700	  554.00	  569.00	-1767.50	  450.37
     15.3700	  585.00	  568.80	-1736.30	  450.18
     15.4700	  518.00	  568.59	-1803.09	  449.99
     15.5700	  597.00	  568.39	-1723.89	  449.79
     15.6700	  587.00	  568.18	-1733.68	  449.59
     15.7700	  558.00	  567.97	-1762.47	  449.39
     15.8700	  544.00	  567.76	-1776.26	  449.19
     15.9700	  550.00	  567.54	-1770.04	  448.98
     16.0700	  590.00	  567.33	-1729.83	  448.77
     16.1700	  576.00	  567.11	-1743.61	  448.56
     16.2700	  527.00	  566.91	-1792.41	  448.34
     16.3700	  594.00	  566.69	-1725.19	  448.12
     16.4700	  586.00	  566.47	-1732.97	  447.90
     16.5700	  559.00	  566.24	-1759.74	  447.68
     16.6700	  554.00	  566.01	-1764.51	  447.45
     16.7700	  573.00	  565.78	-1745.28	  447.23
     16.8700	  570.00	  565.54	-1748.04	  446.99
     16.9700	  561.00	  565.31	-1756.81	  446.76
     17.0700	  564.00	  565.07	-1753.57	  446.53
     17.1700	  570.00	  564.83	-1747.33	  446.29
     17.2700	  555.00	  564.59	-1762.09	  446.05
     17.3700	  527.00	  564.35	-1789.85	  445.81
     17.4700	  543.00	  564.10	-1773.60	  445.56
     17.5700	  565.00	  563.85	-1751.35	  445.32
     17.6700	  566.00	  563.60	-1750.10	  445.07
     17.7700	  560.00	  563.35	-1755.85	  444.82
     17.8700	  594.00	  563.09	-1721.59	  444.56
     17.9700	  543.00	  562.93	-1772.43	  444.31
     18.0700	  533.00	  562.68	-1782.18	  444.05
     18.1700	  572.00	  562.42	-1742.92	  443.79
     18.2700	  557.00	  562.16	-1757.66	  443.53
     18.3700	  546.00	  561.90	-1768.40	  443.27
     18.4700	  539.00	  561.64	-1775.14	  443.00
     18.5700	  568.00	  561.37	-1745.87	  442.73
     18.6700	  539.00	  561.11	-1774.61	  442.47
     18.7700	  591.00	  560.84	-1722.34	  442.20
     18.8700	  564.00	  560.65	-1749.15	  441.92
     18.9700	  545.00	  560.38	-1767.88	  441.65
     19.0700	  550.00	  560.11	-1762.61	  441.37
     19.1700	  552.00	  559.84	-1760.34	  441.10
     19.2700	  573.00	  559.57	-1739.07	  440.82
     19.3700	  561.00	  559.29	-1750.79	  440.54
     19.4700	  539.00	  559.02	-1772.52	  440.26
     19.5700	  576.00	  558.74	-1735.24	  439.97
     19.6700	  562.00	  558.46	-1748.96	  439.69
     19.7700	  546.00	  558.18	-1764.68	  439.40
     19.8700	  563.00	  557.90	-1747.40	  439.11
     19.9700	  548.00	  557.62	-1762.12	  438.83
     20.0700	  575.00	  557.34	-1734.84	  438.54
     20.1700	  544.00	  557.06	-1765.56	  438.24
     20.2700	  514.00	  556.78	-1795.28	  437.95
     20.3700	  560.00	  556.49	-1748.99	  437.66
     20.4700	  535.00	  556.21	-1773.71	  437.36
     20.5700	  537.00	  555.89	-1771.39	  437.06
     20.6700	  564.00	  555.61	-1744.11	  436.77
     20.7700	  513.00	  555.32	-1794.82	  436.47
     20.8700	  558.00	  555.07	-1749.57	  436.17
     20.9700	  536.00	  554.79	-1771.29	  435.87
     21.0700	  522.00	  554.50	-1785.00	  435.56
     21.1700	  543.00	  554.21	-1763.71	  435.26
     21.2700	  564.00	  553.93	-1742.43	  434.96
     21.3700	  595.00	  553.64	-1711.14	  434.65
     21.4700	  628.00	  553.36	-1677.86	  434.35
     21.5700	  551.00	  553.07	-1754.57	  434.04
     21.6700	  555.00	  552.79	-1750.29	  433.73
     21.7700	  521.00	  552.51	-1784.01	  433.42
     21.8700	  567.00	  552.22	-1737.72	  433.11
     21.9700	  531.00	  551.94	-1773.44	  432.80
     22.0700	  563.00	  551.67	-1741.17	  432.49
     22.1700	  527.00	  551.39	-1776.89	  432.18
     22.2700	  564.00	  551.11	-1739.61	  431.87
     22.3700	  517.00	  550.84	-1786.34	  431.55
     22.4700	  564.00	  550.57	-1739.07	  431.24
     22.5700	  562.00	  550.31	-1740.81	  430.93
     22.6700	  575.00	  550.05	-1727.55	  430.61
     22.7700	  566.00	  549.80	-1736.30	  430.29
     22.8700	  570.00	  549.55	-1732.05	  429.98
     22.9700	  539.00	  549.32	-1762.82	  429.66
     23.0700	  546.00	  549.09	-1755.59	  429.35
     23.1700	  549.00	  548.88	-1752.38	  429.03
     23.2700	  562.00	  548.69	-1739.19	  428.71
     23.3700	  547.00	  548.53	-1754.03	  428.39
     23.4700	  546.00	  548.39	-1754.89	  428.07
     23.5700	  556.00	  548.30	-1744.80	  427.75
     23.6700	  565.00	  548.27	-1735.77	  427.43
     23.7700	  586.00	  548.47	-1714.97	  427.11
     23.8700	  557.00	  548.74	-1744.24	  426.79
     23.9700	  517.00	  549.43	-1784.93	  426.47
     24.0700	  585.00	  550.95	-1718.45	  426.15
     24.1700	  583.00	  553.95	-1723.45	  425.83
     24.2700	  532.00	  559.25	-1779.75	  425.51
     24.3700	  588.00	  567.82	-1732.32	  425.19
     24.4700	  596.00	  580.69	-1737.19	  424.87
     24.5700	  553.00	  598.24	-1797.74	  424.55
     24.6700	  649.00	  617.77	-1721.27	  424.22
     24.7700	  637.00	  631.41	-1746.91	  423.90
     24.8700	  645.00	  628.48	-1735.98	  423.58
     24.9700	  587.00	  607.57	-1773.07	  423.26
     25.0700	  563.00	  582.26	-1771.76	  422.94
     25.1700	  557.00	  563.50	-1759.00	  422.62
     25.2700	  563.00	  553.09	-1742.59	  422.29
     25.3700	  551.00	  548.30	-1749.80	  421.97
     25.4700	  585.00	  546.15	-1713.65	  421.65
     25.5700	  521.00	  545.02	-1776.52	  421.33
     25.6700	  528.00	  544.27	-1768.77	  421.01
     25.7700	  550.00	  543.72	-1746.22	  420.69
     25.8700	  547.00	  543.30	-1748.80	  420.37
     25.9700	  555.00	  542.98	-1740.48	  420.05
     26.0700	  567.00	  542.74	-1728.24	  419.73
     26.1700	  546.00	  542.57	-1749.07	  419.40
     26.2700	  519.00	  542.47	-1775.97	  419.08
     26.3700	  580.00	  542.45	-1714.95	  418.76
     26.4700	  593.00	  542.50	-1702.00	  418.45
     26.5700	  538.00	  542.65	-1757.15	  418.13
     26.6700	  517.00	  542.89	-1778.39	  417.81
     26.7700	  566.00	  543.27	-1729.77	  417.49
     26.8700	  581.00	  543.81	-1715.31	  417.17
     26.9700	  582.00	  544.56	-1715.06	  416.85
     27.0700	  541.00	  545.59	-1757.09	  416.54
     27.1700	  580.00	  547.03	-1719.53	  416.22
     27.2700	  519.00	  549.12	-1782.62	  415.90
     27.3700	  584.00	  552.32	-1720.82	  415.59
     27.4700	  549.00	  557.56	-1761.06	  415.27
     27.5700	  611.00	  566.46	-1707.96	  414.96
     27.6700	  569.00	  581.57	-1765.07	  414.64
     27.7700	  554.00	  606.13	-1804.63	  414.33
     27.8700	  571.00	  642.87	-1824.37	  414.01
     27.9700	  687.00	  691.73	-1757.23	  413.70
     28.0700	  739.00	  746.92	-1760.42	  413.39
     28.1700	  864.00	  794.46	-1682.96	  413.08
     28.2700	  966.00	  813.82	-1600.32	  412.77
     28.3700	  885.00	  793.92	-1661.42	  412.46
     28.4700	  822.00	  755.48	-1685.98	  412.15
     28.5700	  684.00	  730.49	-1798.99	  411.84
     28.6700	  707.00	  732.92	-1778.42	  411.53
     28.7700	  731.00	  757.65	-1779.15	  411.22
     28.8700	  815.00	  785.36	-1722.86	  410.91
     28.9700	  819.00	  789.17	-1722.67	  410.61
     29.0700	  743.00	  752.79	-1762.29	  410.30
     29.1700	  686.00	  692.26	-1758.76	  410.00
     29.2700	  631.00	  635.13	-1756.63	  409.69
     29.3700	  578.00	  594.15	-1768.65	  409.39
     29.4700	  599.00	  569.49	-1722.99	  409.09
     29.5700	  611.00	  556.19	-1697.69	  408.79
     29.6700	  629.00	  549.18	-1672.68	  408.49
     29.7700	  551.00	  545.20	-1746.70	  408.19
     29.8700	  612.00	  542.73	-1683.23	  407.89
     29.9700	  571.00	  541.17	-1722.67	  407.59
     30.0700	  520.00	  540.40	-1772.90	  407.29
     30.1700	  620.00	  540.58	-1673.08	  407.00
     30.2700	  543.00	  542.26	-1751.76	  406.70
     30.3700	  561.00	  546.51	-1738.01	  406.41
     30.4700	  593.00	  554.93	-1714.43	  406.12
     30.5700	  587.00	  569.21	-1734.71	  405.82
     30.6700	  569.00	  589.77	-1773.27	  405.53
     30.7700	  603.00	  614.02	-1763.52	  405.24
     30.8700	  623.00	  634.96	-1764.46	  404.95
     30.9700	  577.00	  642.02	-1817.52	  404.67
     31.0700	  603.00	  628.21	-1777.71	  404.38
     31.1700	  560.00	  600.91	-1793.41	  404.09
     31.2700	  533.00	  573.75	-1793.25	  403.81
     31.3700	  549.00	  553.82	-1757.32	  403.53
     31.4700	  551.00	  541.77	-1743.27	  403.24
     31.5700	  546.00	  535.37	-1741.87	  402.96
     31.6700	  585.00	  532.08	-1699.58	  402.68
     31.7700	  531.00	  530.25	-1751.75	  402.40
     31.8700	  539.00	  529.10	-1742.60	  402.12
     31.9700	  532.00	  528.29	-1748.79	  401.85
     32.0700	  607.00	  527.72	-1673.22	  401.57
     32.1700	  505.00	  527.32	-1774.82	  401.30
     32.2700	  570.00	  527.08	-1709.58	  401.02
     32.3700	  549.00	  526.99	-1730.49	  400.75
     32.4700	  567.00	  527.05	-1712.55	  400.48
     32.5700	  523.00	  527.27	-1756.77	  400.21
     32.6700	  592.00	  527.69	-1688.19	  399.94
     32.7700	  576.00	  528.34	-1704.84	  399.68
     32.8700	  558.00	  529.30	-1723.80	  399.41
     32.9700	  533.00	  530.68	-1750.18	  399.15
     33.0700	  540.00	  532.68	-1745.18	  398.88
     33.1700	  567.00	  535.77	-1721.27	  398.62
     33.2700	  537.00	  540.97	-1756.47	  398.36
     33.3700	  549.00	  550.55	-1754.05	  398.10
     33.4700	  565.00	  568.91	-1756.41	  397.84
     33.5700	  560.00	  602.99	-1795.49	  397.59
     33.6700	  613.00	  660.92	-1800.42	  397.33
     33.7700	  791.00	  746.30	-1707.80	  397.08
     33.8700	  851.00	  849.80	-1751.30	  396.82
     33.9700	 1027.00	  943.42	-1668.92	  396.57
     34.0700	 1062.00	  984.28	-1674.78	  396.32
     34.1700	  982.00	  941.14	-1711.64	  396.08
     34.2700	  896.00	  836.54	-1693.04	  395.83
     34.3700	  751.00	  724.58	-1726.08	  395.58
     34.4700	  623.00	  638.33	-1767.83	  395.34
     34.5700	  589.00	  584.42	-1747.92	  395.10
     34.6700	  534.00	  555.43	-1773.93	  394.85
     34.7700	  520.00	  540.96	-1773.46	  394.61
     34.8700	  574.00	  533.44	-1711.94	  394.38
     34.9700	  533.00	  528.94	-1748.44	  394.14
     35.0700	  533.00	  525.83	-1745.33	  393.90
     35.1700	  515.00	  523.48	-1760.98	  393.67
     35.2700	  546.00	  521.64	-1728.14	  393.44
     35.3700	  494.00	  520.12	-1778.62	  393.21
     35.4700	  523.00	  518.86	-1748.36	  392.98
     35.5700	  548.00	  517.80	-1722.30	  392.75
     35.6700	  514.00	  516.88	-1755.38	  392.52
     35.7700	  543.00	  516.08	-1725.58	  392.30
     35.8700	  532.00	  515.38	-1735.88	  392.08
     35.9700	  531.00	  515.24	-1736.74	  391.85
     36.0700	  501.00	  514.68	-1766.18	  391.63
     36.1700	  514.00	  514.18	-1752.68	  391.41
     36.2700	  555.00	  513.72	-1711.22	  391.20
     36.3700	  529.00	  513.31	-1736.81	  390.98
     36.4700	  502.00	  512.93	-1763.43	  390.77
     36.5700	  518.00	  512.59	-1747.09	  390.56
     36.6700	  481.00	  512.28	-1783.78	  390.34
     36.7700	  505.00	  512.02	-1759.52	  390.14
     36.8700	  523.00	  511.81	-1741.31	  389.93
     36.9700	  495.00	  511.70	-1769.20	  389.72
     37.0700	  490.00	  511.79	-1774.29	  389.52
     37.1700	  498.00	  512.26	-1766.76	  389.31
     37.2700	  536.00	  513.42	-1729.92	  389.11
     37.3700	  499.00	  515.58	-1769.08	  388.91
     37.4700	  500.00	  518.83	-1771.33	  388.72
     37.5700	  527.00	  522.69	-1748.19	  388.52
     37.6700	  554.00	  526.09	-1724.59	  388.32
     37.7700	  531.00	  527.69	-1749.19	  388.13
     37.8700	  534.00	  527.01	-1745.51	  387.94
     37.9700	  489.00	  524.84	-1788.34	  387.75
     38.0700	  497.00	  521.90	-1777.40	  387.56
     38.1700	  514.00	  518.45	-1756.95	  387.38
     38.2700	  508.00	  515.01	-1759.51	  387.19
     38.3700	  553.00	  512.16	-1711.66	  387.01
     38.4700	  518.00	  510.11	-1744.61	  386.83
     38.5700	  510.00	  508.79	-1751.29	  386.65
     38.6700	  526.00	  507.98	-1734.48	  386.47
     38.7700	  522.00	  507.38	-1737.88	  386.29
     38.8700	  464.00	  507.03	-1795.53	  386.12
     38.9700	  488.00	  506.75	-1771.25	  385.94
     39.0700	  504.00	  506.51	-1755.01	  385.77
     39.1700	  524.00	  506.29	-1734.79	  385.60
     39.2700	  526.00	  506.01	-1732.51	  385.44
     39.3700	  491.00	  505.83	-1767.33	  385.27
     39.4700	  512.00	  505.65	-1746.15	  385.11
     39.5700	  471.00	  505.49	-1786.99	  384.94
     39.6700	  513.00	  505.46	-1744.96	  384.78
     39.7700	  500.00	  505.32	-1757.82	  384.62
     39.8700	  504.00	  505.19	-1753.69	  384.46
     39.9700	  499.00	  505.07	-1758.57	  384.31
     40.0700	  534.00	  504.96	-1723.46	  384.15
     40.1700	  494.00	  504.85	-1763.35	  384.00
     40.2700	  482.00	  504.76	-1775.26	  383.85
     40.3700	  476.00	  504.68	-1781.18	  383.70
     40.4700	  500.00	  504.61	-1757.11	  383.55
     40.5700	  509.00	  504.56	-1748.06	  383.41
     40.6700	  488.00	  504.52	-1769.02	  383.26
     40.7700	  479.00	  504.50	-1778.00	  383.12
     40.8700	  473.00	  504.50	-1784.00	  382.98
     40.9700	  509.00	  504.52	-1748.02	  382.84
     41.0700	  546.00	  504.58	-1711.08	  382.71
     41.1700	  472.00	  504.67	-1785.17	  382.57
     41.2700	  484.00	  504.78	-1773.28	  382.44
     41.3700	  484.00	  504.98	-1773.48	  382.31
     41.4700	  482.00	  505.25	-1775.75	  382.17
     41.5700	  506.00	  506.05	-1752.55	  382.05
     41.6700	  505.00	  506.61	-1754.11	  381.92
     41.7700	  513.00	  507.44	-1746.94	  381.80
     41.8700	  500.00	  508.84	-1761.34	  381.67
     41.9700	  510.00	  511.46	-1753.96	  381.55
     42.0700	  503.00	  516.59	-1766.09	  381.43
     42.1700	  503.00	  526.31	-1775.81	  381.31
     42.2700	  521.00	  543.17	-1774.67	  381.20
     42.3700	  557.00	  568.50	-1764.00	  381.08
     42.4700	  567.00	  600.61	-1786.11	  380.97
     42.5700	  564.00	  632.53	-1821.03	  380.86
     42.6700	  599.00	  652.75	-1806.25	  380.75
     42.7700	  661.00	  650.77	-1742.27	  380.64
     42.8700	  544.00	  626.76	-1835.26	  380.54
     42.9700	  533.00	  592.87	-1812.37	  380.43
     43.0700	  553.00	  561.07	-1760.57	  380.33
     43.1700	  539.00	  537.29	-1750.79	  380.23
     43.2700	  516.00	  522.30	-1758.80	  380.13
     43.3700	  507.00	  514.01	-1759.51	  380.03
     43.4700	  527.00	  509.77	-1735.27	  379.94
     43.5700	  515.00	  507.59	-1745.09	  379.84
     43.6700	  529.00	  506.36	-1729.86	  379.75
     43.7700	  488.00	  505.74	-1770.24	  379.66
     43.8700	  502.00	  505.17	-1755.67	  379.57
     43.9700	  548.00	  504.74	-1709.24	  379.49
     44.0700	  513.00	  504.40	-1743.90	  379.40
     44.1700	  488.00	  504.18	-1768.68	  379.32
     44.2700	  528.00	  503.98	-1728.48	  379.24
     44.3700	  499.00	  503.83	-1757.33	  379.16
     44.4700	  458.00	  503.72	-1798.22	  379.08
     44.5700	  518.00	  503.52	-1738.02	  379.00
     44.6700	  488.00	  503.47	-1767.97	  378.93
     44.7700	  512.00	  503.45	-1743.95	  378.86
     44.8700	  495.00	  503.46	-1760.96	  378.78
     44.9700	  518.00	  503.49	-1737.99	  378.71
     45.0700	  521.00	  503.54	-1735.04	  378.65
     45.1700	  516.00	  503.62	-1740.12	  378.58
     45.2700	  474.00	  503.90	-1782.40	  378.52
     45.3700	  473.00	  504.01	-1783.51	  378.45
     45.4700	  525.00	  504.16	-1731.66	  378.39
     45.5700	  555.00	  504.32	-1701.82	  378.33
     45.6700	  475.00	  504.51	-1782.01	  378.27
     45.7700	  491.00	  504.72	-1766.22	  378.22
     45.8700	  509.00	  504.96	-1748.46	  378.16
     45.9700	  452.00	  505.24	-1805.74	  378.11
     46.0700	  498.00	  505.54	-1760.04	  378.06
     46.1700	  504.00	  505.89	-1754.39	  378.01
     46.2700	  522.00	  506.28	-1736.78	  377.96
     46.3700	  516.00	  506.72	-1743.22	  377.92
     46.4700	  514.00	  507.22	-1745.72	  377.87
     46.5700	  510.00	  507.78	-1750.28	  377.83
     46.6700	  491.00	  508.43	-1769.93	  377.79
     46.7700	  564.00	  509.20	-1697.70	  377.75
     46.8700	  492.00	  510.13	-1770.63	  377.71
     46.9700	  508.00	  511.34	-1755.84	  377.67
     47.0700	  490.00	  513.09	-1775.59	  377.64
     47.1700	  506.00	  515.93	-1762.43	  377.61
     47.2700	  486.00	  520.74	-1787.24	  377.58
     47.3700	  529.00	  528.83	-1752.33	  377.55
     47.4700	  525.00	  541.27	-1768.77	  377.52
     47.5700	  569.00	  558.39	-1741.89	  377.49
     47.6700	  584.00	  578.53	-1747.03	  377.47
     47.7700	  559.00	  597.48	-1790.98	  377.44
     47.8700	  583.00	  609.11	-1778.61	  377.42
     47.9700	  606.00	  608.59	-1755.09	  377.40
     48.0700	  587.00	  596.82	-1762.32	  377.38
     48.1700	  568.00	  579.90	-1764.40	  377.37
     48.2700	  578.00	  563.76	-1738.26	  377.35
     48.3700	  525.00	  551.88	-1779.38	  377.34
     48.4700	  582.00	  545.21	-1715.71	  377.32
     48.5700	  539.00	  543.13	-1756.63	  377.31
     48.6700	  490.00	  544.45	-1806.95	  377.30
     48.7700	  582.00	  548.20	-1718.70	  377.30
     48.8700	  522.00	  553.90	-1784.40	  377.29
     48.9700	  574.00	  561.63	-1740.13	  377.29
     49.0700	  567.00	  572.09	-1757.59	  377.28
     49.1700	  600.00	  587.03	-1739.53	  377.28
     49.2700	  589.00	  610.10	-1773.60	  377.28
     49.3700	  702.00	  648.12	-1698.62	  377.28
     49.4700	  673.00	  712.54	-1792.04	  377.29
     49.5700	  854.00	  819.85	-1718.35	  377.29
     49.6700	  921.00	  987.55	-1819.05	  377.30
     49.7700	 1156.00	 1229.07	-1825.57	  377.30
     49.8700	 1452.00	 1541.73	-1842.23	  377.31
     49.9700	 1918.00	 1895.37	-1729.87	  377.32
     50.0700	 2261.00	 2223.51	-1715.01	  377.34
     50.1700	 2467.00	 2428.55	-1714.05	  377.35
     50.2700	 2466.00	 2425.68	-1712.18	  377.36
     50.3700	 2282.00	 2214.02	-1684.52	  377.38
     50.4700	 1884.00	 1881.37	-1749.87	  377.40
     50.5700	 1448.00	 1528.93	-1833.43	  377.42
     50.6700	 1066.00	 1222.89	-1909.39	  377.44
     50.7700	  794.00	  991.70	-1950.20	  377.46
     50.8700	  742.00	  836.36	-1846.86	  377.48
     50.9700	  642.00	  741.72	-1852.22	  377.51
     51.0700	  620.00	  687.05	-1819.55	  377.53
     51.1700	  614.00	  653.71	-1792.21	  377.56
     51.2700	  623.00	  629.27	-1758.77	  377.59
     51.3700	  589.00	  608.48	-1771.98	  377.62
     51.4700	  572.00	  590.52	-1771.02	  377.65
     51.5700	  565.00	  575.87	-1763.37	  377.69
     51.6700	  585.00	  564.80	-1732.30	  377.72
     51.7700	  567.00	  557.00	-1742.50	  377.76
     51.8700	  575.00	  551.73	-1729.23	  377.80
     51.9700	  549.00	  548.16	-1751.66	  377.83
     52.0700	  576.00	  545.68	-1722.18	  377.87
     52.1700	  555.00	  544.05	-1741.55	  377.92
     52.2700	  507.00	  543.47	-1788.97	  377.96
     52.3700	  571.00	  543.70	-1725.20	  378.00
     52.4700	  575.00	  545.37	-1722.87	  378.05
     52.5700	  559.00	  549.49	-1742.99	  378.09
     52.6700	  578.00	  558.19	-1732.69	  378.14
     52.7700	  566.00	  575.40	-1761.90	  378.19
     52.8700	  645.00	  607.38	-1714.88	  378.24
     52.9700	  741.00	  662.03	-1673.53	  378.29
     53.0700	  806.00	  746.23	-1692.73	  378.35
     53.1700	  929.00	  861.18	-1684.68	  378.40
     53.2700	 1025.00	  997.19	-1724.69	  378.46
     53.3700	 1175.00	 1130.32	-1707.82	  378.51
     53.4700	 1234.00	 1224.23	-1742.73	  378.57
     53.5700	 1196.00	 1243.62	-1800.12	  378.63
     53.6700	 1062.00	 1179.41	-1869.91	  378.69
     53.7700	 1006.00	 1058.10	-1804.60	  378.75
     53.8700	  851.00	  919.09	-1820.59	  378.81
     53.9700	  756.00	  792.83	-1789.33	  378.88
     54.0700	  719.00	  695.00	-1728.50	  378.94
     54.1700	  604.00	  628.50	-1777.00	  379.01
     54.2700	  595.00	  588.14	-1745.64	  379.08
     54.3700	  579.00	  565.87	-1739.37	  379.15
     54.4700	  555.00	  554.39	-1751.90	  379.22
     54.5700	  595.00	  548.80	-1706.30	  379.29
     54.6700	  578.00	  546.22	-1720.72	  379.36
     54.7700	  622.00	  545.26	-1675.76	  379.43
     54.8700	  546.00	  545.31	-1751.81	  379.51
     54.9700	  555.00	  546.15	-1743.65	  379.58
     55.0700	  589.00	  547.70	-1711.20	  379.66
     55.1700	  571.00	  549.96	-1731.46	  379.73
     55.2700	  557.00	  553.01	-1748.51	  379.81
     55.3700	  567.00	  556.97	-1742.47	  379.89
     55.4700	  570.00	  562.02	-1744.52	  379.97
     55.5700	  579.00	  568.55	-1742.05	  380.05
     55.6700	  550.00	  577.34	-1779.84	  380.14
     55.7700	  587.00	  589.98	-1755.48	  380.22
     55.8700	  610.00	  609.69	-1752.19	  380.31
     55.9700	  619.00	  642.54	-1776.04	  380.39
     56.0700	  643.00	  698.70	-1808.20	  380.48
     56.1700	  721.00	  793.03	-1824.53	  380.57
     56.2700	  876.00	  943.30	-1819.80	  380.66
     56.3700	 1147.00	 1165.11	-1770.61	  380.75
     56.4700	 1384.00	 1463.20	-1831.70	  380.84
     56.5700	 1743.00	 1821.77	-1831.27	  380.93
     56.6700	 2134.00	 2196.64	-1815.14	  381.02
     56.7700	 2341.00	 2513.20	-1924.70	  381.11
     56.8700	 2585.00	 2680.36	-1847.86	  381.21
     56.9700	 2555.00	 2636.09	-1833.59	  381.30
     57.0700	 2385.00	 2397.59	-1765.09	  381.40
     57.1700	 1983.00	 2047.09	-1816.59	  381.50
     57.2700	 1720.00	 1673.63	-1706.13	  381.59
     57.3700	 1291.00	 1339.68	-1801.18	  381.69
     57.4700	 1048.00	 1076.87	-1781.37	  381.79
     57.5700	  813.00	  891.37	-1830.87	  381.89
     57.6700	  767.00	  773.04	-1758.54	  382.00
     57.7700	  696.00	  705.25	-1761.75	  382.10
     57.8700	  679.00	  672.39	-1745.89	  382.20
     57.9700	  708.00	  663.54	-1708.04	  382.31
     58.0700	  714.00	  673.01	-1711.51	  382.41
     58.1700	  725.00	  699.03	-1726.53	  382.52
     58.2700	  816.00	  741.82	-1678.32	  382.62
     58.3700	  807.00	  801.66	-1747.16	  382.73
     58.4700	 1020.00	  877.25	-1609.75	  382.84
     58.5700	 1112.00	  964.01	-1604.51	  382.95
     58.6700	 1247.00	 1053.54	-1559.04	  383.06
     58.7700	 1443.00	 1135.98	-1445.48	  383.17
     58.8700	 1556.00	 1204.38	-1400.88	  383.28
     58.9700	 1582.00	 1254.60	-1425.10	  383.39
     59.0700	 1570.00	 1281.14	-1463.64	  383.50
     59.1700	 1581.00	 1279.30	-1450.80	  383.61
     59.2700	 1444.00	 1253.16	-1561.66	  383.73
     59.3700	 1385.00	 1215.83	-1583.33	  383.84
     59.4700	 1274.00	 1180.70	-1659.20	  383.96
     59.5700	 1198.00	 1156.62	-1711.12	  384.07
     59.6700	 1167.00	 1150.54	-1736.04	  384.19
     59.7700	 1060.00	 1170.48	-1862.98	  384.31
     59.8700	 1245.00	 1221.71	-1729.21	  384.42
     59.9700	 1310.00	 1300.54	-1743.04	  384.54
     60.0700	 1421.00	 1391.04	-1722.54	  384.66
     60.1700	 1558.00	 1465.52	-1660.02	  384.78
     60.2700	 1639.00	 1491.66	-1605.16	  384.90
     60.3700	 1540.00	 1449.32	-1661.82	  385.02
     60.4700	 1439.00	 1345.07	-1658.57	  385.14
     60.5700	 1250.00	 1205.28	-1707.78	  385.26
     60.6700	 1077.00	 1058.39	-1733.89	  385.39
     60.7700	  916.00	  925.13	-1761.63	  385.51
     60.8700	  794.00	  817.21	-1775.71	  385.63
     60.9700	  709.00	  738.65	-1782.15	  385.76
     61.0700	  683.00	  688.35	-1757.85	  385.88
     61.1700	  642.00	  663.16	-1773.66	  386.00
     61.2700	  626.00	  660.52	-1787.02	  386.13
     61.3700	  611.00	  680.17	-1821.67	  386.26
     61.4700	  632.00	  724.30	-1844.80	  386.38
     61.5700	  739.00	  796.30	-1809.80	  386.51
     61.6700	  844.00	  898.20	-1806.70	  386.64
     61.7700	  939.00	 1027.70	-1841.20	  386.76
     61.8700	 1095.00	 1175.37	-1832.87	  386.89
     61.9700	 1268.00	 1322.88	-1807.38	  387.02
     62.0700	 1338.00	 1443.04	-1857.54	  387.15
     62.1700	 1400.00	 1505.01	-1857.51	  387.28
     62.2700	 1390.00	 1488.60	-1851.10	  387.41
     62.3700	 1298.00	 1398.75	-1853.25	  387.54
     62.4700	 1191.00	 1261.78	-1823.28	  387.67
     62.5700	 1080.00	 1108.38	-1780.88	  387.80
     62.6700	  890.00	  962.53	-1825.03	  387.93
     62.7700	  770.00	  838.81	-1821.31	  388.06
     62.8700	  671.00	  743.19	-1824.69	  388.19
     62.9700	  621.00	  675.09	-1806.59	  388.32
     63.0700	  602.00	  629.95	-1780.45	  388.46
     63.1700	  581.00	  601.85	-1773.35	  388.59
     63.2700	  544.00	  585.32	-1793.82	  388.72
     63.3700	  520.00	  576.32	-1808.82	  388.85
     63.4700	  555.00	  572.45	-1769.95	  388.99
     63.5700	  568.00	  572.84	-1757.34	  389.12
     63.6700	  575.00	  577.87	-1755.37	  389.25
     63.7700	  615.00	  588.98	-1726.48	  389.39
     63.8700	  659.00	  608.28	-1701.78	  389.52
     63.9700	  658.00	  638.03	-1732.53	  389.66
     64.0700	  719.00	  679.79	-1713.29	  389.79
     64.1700	  814.00	  733.40	-1671.90	  389.92
     64.2700	  849.00	  795.97	-1699.47	  390.06
     64.3700	  930.00	  861.25	-1683.75	  390.19
     64.4700	 1033.00	  919.62	-1639.12	  390.33
     64.5700	 1023.00	  959.72	-1689.22	  390.46
     64.6700	 1084.00	  972.05	-1640.55	  390.60
     64.7700	 1029.00	  955.69	-1679.19	  390.73
     64.8700	  943.00	  915.55	-1725.05	  390.87
     64.9700	  925.00	  861.02	-1688.52	  391.01
     65.0700	  838.00	  802.15	-1716.65	  391.14
     65.1700	  815.00	  746.94	-1684.44	  391.28
     65.2700	  722.00	  699.93	-1730.43	  391.41
     65.3700	  673.00	  662.35	-1741.85	  391.55
     65.4700	  632.00	  633.29	-1753.79	  391.68
     65.5700	  565.00	  611.16	-1798.66	  391.82
     65.6700	  561.00	  594.50	-1786.00	  391.96
     65.7700	  555.00	  582.16	-1779.66	  392.09
     65.8700	  599.00	  573.31	-1726.81	  392.23
     65.9700	  532.00	  567.30	-1787.80	  392.36
     66.0700	  560.00	  563.65	-1756.15	  392.50
     66.1700	  570.00	  561.96	-1744.46	  392.63
     66.2700	  538.00	  561.88	-1776.38	  392.77
     66.3700	  545.00	  563.16	-1770.66	  392.91
     66.4700	  551.00	  565.66	-1767.16	  393.04
     66.5700	  539.00	  569.48	-1782.98	  393.18
     66.6700	  581.00	  575.08	-1746.58	  393.31
     66.7700	  556.00	  583.15	-1779.65	  393.45
     66.8700	  598.00	  595.47	-1749.97	  393.58
     66.9700	  598.00	  615.00	-1769.50	  393.72
     67.0700	  638.00	  646.41	-1760.91	  393.85
     67.1700	  639.00	  696.46	-1809.96	  393.99
     67.2700	  714.00	  773.75	-1812.25	  394.12
     67.3700	  879.00	  887.60	-1761.10	  394.25
     67.4700	 1009.00	 1045.86	-1789.36	  394.39
     67.5700	 1250.00	 1251.18	-1753.68	  394.52
     67.6700	 1519.00	 1498.56	-1732.06	  394.66
     67.7700	 1785.00	 1771.24	-1738.74	  394.79
     67.8700	 2134.00	 2040.02	-1658.52	  394.92
     67.9700	 2301.00	 2264.03	-1715.53	  395.06
     68.0700	 2367.00	 2397.44	-1782.94	  395.19
     68.1700	 2386.00	 2406.13	-1772.63	  395.32
     68.2700	 2367.00	 2287.62	-1673.12	  395.45
     68.3700	 2036.00	 2072.90	-1789.40	  395.59
     68.4700	 1856.00	 1807.67	-1704.17	  395.72
     68.5700	 1572.00	 1533.95	-1714.45	  395.85
     68.6700	 1253.00	 1282.63	-1782.13	  395.98
     68.7700	 1043.00	 1071.70	-1781.20	  396.11
     68.8700	  886.00	  907.96	-1774.46	  396.24
     68.9700	  761.00	  789.36	-1780.86	  396.37
     69.0700	  692.00	  708.43	-1768.93	  396.50
     69.1700	  678.00	  655.90	-1730.40	  396.63
     69.2700	  610.00	  623.03	-1765.53	  396.76
     69.3700	  597.00	  602.78	-1758.28	  396.89
     69.4700	  605.00	  590.22	-1737.72	  397.01
     69.5700	  549.00	  582.20	-1785.70	  397.14
     69.6700	  604.00	  576.85	-1725.35	  397.27
     69.7700	  593.00	  573.17	-1732.67	  397.40
     69.8700	  535.00	  570.61	-1788.11	  397.52
     69.9700	  598.00	  568.91	-1723.41	  397.65
     70.0700	  558.00	  567.95	-1762.45	  397.77
     70.1700	  564.00	  567.66	-1756.16	  397.90
     70.2700	  550.00	  568.09	-1770.59	  398.02
     70.3700	  573.00	  569.29	-1748.79	  398.15
     70.4700	  555.00	  571.51	-1769.01	  398.27
     70.5700	  585.00	  575.19	-1742.69	  398.39
     70.6700	  587.00	  581.17	-1746.67	  398.52
     70.7700	  561.00	  590.90	-1782.40	  398.64
     70.8700	  621.00	  606.73	-1738.23	  398.76
     70.9700	  613.00	  632.16	-1771.66	  398.88
     71.0700	  648.00	  671.91	-1776.41	  399.00
     71.1700	  749.00	  731.72	-1735.22	  399.12
     71.2700	  819.00	  817.42	-1750.92	  399.24
     71.3700	  890.00	  933.54	-1796.04	  399.36
     71.4700	 1051.00	 1082.20	-1783.70	  399.48
     71.5700	 1197.00	 1257.87	-1813.37	  399.59
     71.6700	 1348.00	 1450.78	-1855.28	  399.71
     71.7700	 1617.00	 1642.92	-1778.42	  399.83
     71.8700	 1747.00	 1809.50	-1815.00	  399.94
     71.9700	 1963.00	 1922.05	-1711.55	  400.06
     72.0700	 1917.00	 1956.55	-1792.05	  400.17
     72.1700	 1836.00	 1904.81	-1821.31	  400.28
     72.2700	 1831.00	 1779.49	-1700.99	  400.40
     72.3700	 1672.00	 1606.25	-1686.75	  400.51
     72.4700	 1505.00	 1414.02	-1661.52	  400.62
     72.5700	 1368.00	 1225.53	-1610.03	  400.73
     72.6700	 1185.00	 1056.81	-1624.31	  400.84
     72.7700	 1059.00	  916.59	-1610.09	  400.95
     72.8700	  950.00	  807.21	-1609.71	  401.06
     72.9700	  840.00	  726.43	-1638.93	  401.17
     73.0700	  779.00	  669.44	-1642.94	  401.27
     73.1700	  790.00	  630.64	-1593.14	  401.38
     73.2700	  678.00	  604.80	-1679.30	  401.49
     73.3700	  722.00	  587.71	-1618.21	  401.59
     73.4700	  606.00	  576.32	-1722.82	  401.69
     73.5700	  615.00	  568.61	-1706.11	  401.80
     73.6700	  597.00	  563.33	-1718.83	  401.90
     73.7700	  567.00	  559.73	-1745.23	  402.00
     73.8700	  631.00	  557.38	-1678.88	  402.10
     73.9700	  569.00	  556.01	-1739.51	  402.20
     74.0700	  568.00	  555.42	-1739.92	  402.30
     74.1700	  611.00	  555.45	-1696.95	  402.40
     74.2700	  647.00	  555.90	-1661.40	  402.50
     74.3700	  581.00	  556.52	-1728.02	  402.59
     74.4700	  620.00	  557.06	-1689.56	  402.69
     74.5700	  636.00	  557.23	-1673.73	  402.78
     74.6700	  653.00	  556.81	-1656.31	  402.88
     74.7700	  617.00	  555.74	-1691.24	  402.97
     74.8700	  631.00	  554.15	-1675.65	  403.06
     74.9700	  598.00	  552.30	-1706.80	  403.15
     75.0700	  542.00	  550.51	-1761.01	  403.24
     75.1700	  542.00	  549.07	-1759.57	  403.33
     75.2700	  550.00	  548.34	-1750.84	  403.42
     75.3700	  552.00	  548.77	-1749.27	  403.51
     75.4700	  567.00	  550.73	-1736.23	  403.59
     75.5700	  569.00	  554.70	-1738.20	  403.68
     75.6700	  566.00	  561.11	-1747.61	  403.76
     75.7700	  600.00	  570.64	-1723.14	  403.85
     75.8700	  620.00	  583.50	-1716.00	  403.93
     75.9700	  621.00	  599.71	-1731.21	  404.01
     76.0700	  605.00	  618.79	-1766.29	  404.09
     76.1700	  660.00	  639.67	-1732.17	  404.17
     76.2700	  657.00	  660.66	-1756.16	  404.25
     76.3700	  709.00	  679.45	-1722.95	  404.32
     76.4700	  684.00	  693.39	-1761.89	  404.40
     76.5700	  708.00	  700.01	-1744.51	  404.47
     76.6700	  701.00	  697.94	-1749.44	  404.55
     76.7700	  680.00	  687.59	-1760.09	  404.62
     76.8700	  620.00	  670.93	-1803.43	  404.69
     76.9700	  672.00	  650.43	-1730.93	  404.76
     77.0700	  635.00	  628.98	-1746.48	  404.83
     77.1700	  606.00	  608.44	-1754.94	  404.90
     77.2700	  544.00	  590.21	-1798.71	  404.97
     77.3700	  519.00	  575.03	-1808.53	  405.04
     77.4700	  560.00	  563.12	-1755.62	  405.10
     77.5700	  504.00	  554.26	-1802.76	  405.16
     77.6700	  513.00	  547.97	-1787.47	  405.23
     77.7700	  496.00	  543.70	-1800.20	  405.29
     77.8700	  494.00	  540.89	-1799.39	  405.35
     77.9700	  504.00	  539.10	-1787.60	  405.41
     78.0700	  499.00	  537.97	-1791.47	  405.47
     78.1700	  501.00	  537.26	-1788.76	  405.52
     78.2700	  555.00	  536.82	-1734.32	  405.58
     78.3700	  528.00	  536.56	-1761.06	  405.63
     78.4700	  558.00	  536.42	-1730.92	  405.69
     78.5700	  511.00	  536.37	-1777.87	  405.74
     78.6700	  499.00	  536.42	-1789.92	  405.79
     78.7700	  523.00	  536.57	-1766.07	  405.84
     78.8700	  564.00	  536.84	-1725.34	  405.89
     78.9700	  510.00	  537.25	-1779.75	  405.94
     79.0700	  501.00	  537.85	-1789.35	  405.98
     79.1700	  522.00	  538.68	-1769.18	  406.03
     79.2700	  542.00	  539.81	-1750.31	  406.07
     79.3700	  579.00	  541.13	-1714.63	  406.11
     79.4700	  489.00	  543.08	-1806.58	  406.15
     79.5700	  526.00	  545.56	-1772.06	  406.19
     79.6700	  505.00	  548.69	-1796.19	  406.23
     79.7700	  515.00	  552.61	-1790.11	  406.27
     79.8700	  532.00	  557.48	-1777.98	  406.31
     79.9700	  528.00	  563.54	-1788.04	  406.34
     80.0700	  587.00	  571.03	-1736.53	  406.37
     80.1700	  570.00	  580.25	-1762.75	  406.40
     80.2700	  547.00	  591.49	-1796.99	  406.44
     80.3700	  581.00	  604.99	-1776.49	  406.46
     80.4700	  604.00	  620.77	-1769.27	  406.49
     80.5700	  575.00	  638.55	-1816.05	  406.52
     80.6700	  618.00	  657.70	-1792.20	  406.55
     80.7700	  652.00	  677.13	-1777.63	  406.57
     80.8700	  651.00	  695.43	-1796.93	  406.59
     80.9700	  678.00	  711.03	-1785.53	  406.61
     81.0700	  719.00	  722.54	-1756.04	  406.63
     81.1700	  713.00	  729.01	-1768.51	  406.65
     81.2700	  742.00	  729.96	-1740.46	  406.67
     81.3700	  757.00	  725.42	-1720.92	  406.68
     81.4700	  788.00	  715.89	-1680.39	  406.70
     81.5700	  764.00	  702.32	-1690.82	  406.71
     81.6700	  754.00	  685.86	-1684.36	  406.72
     81.7700	  761.00	  667.67	-1659.17	  406.73
     81.8700	  708.00	  648.85	-1693.35	  406.74
     81.9700	  659.00	  630.43	-1723.93	  406.75
     82.0700	  670.00	  613.19	-1695.69	  406.76
     82.1700	  661.00	  597.86	-1689.36	  406.76
     82.2700	  660.00	  584.71	-1677.21	  406.76
     82.3700	  604.00	  573.84	-1722.34	  406.77
     82.4700	  621.00	  565.20	-1696.70	  406.77
     82.5700	  537.00	  558.62	-1774.12	  406.77
     82.6700	  594.00	  553.95	-1712.45	  406.76
     82.7700	  534.00	  550.96	-1769.46	  406.76
     82.8700	  570.00	  549.48	-1731.98	  406.75
     82.9700	  536.00	  549.38	-1765.88	  406.75
     83.0700	  535.00	  550.56	-1768.06	  406.74
     83.1700	  552.00	  552.91	-1753.41	  406.73
     83.2700	  564.00	  556.35	-1744.85	  406.72
     83.3700	  506.00	  560.74	-1807.24	  406.71
     83.4700	  541.00	  565.84	-1777.34	  406.69
     83.5700	  550.00	  571.36	-1773.86	  406.68
     83.6700	  565.00	  576.88	-1764.38	  406.66
     83.7700	  596.00	  581.90	-1738.40	  406.64
     83.8700	  560.00	  585.84	-1778.34	  406.62
     83.9700	  544.00	  588.16	-1796.66	  406.60
     84.0700	  535.00	  588.48	-1805.98	  406.58
     84.1700	  589.00	  586.71	-1750.21	  406.55
     84.2700	  543.00	  583.11	-1792.61	  406.53
     84.3700	  599.00	  578.17	-1731.67	  406.50
     84.4700	  546.00	  572.46	-1778.96	  406.47
     84.5700	  560.00	  566.49	-1758.99	  406.44
     84.6700	  571.00	  560.72	-1742.22	  406.41
     84.7700	  521.00	  555.44	-1786.94	  406.38
     84.8700	  534.00	  550.88	-1769.38	  406.34
     84.9700	  527.00	  547.15	-1772.65	  406.30
     85.0700	  557.00	  544.26	-1739.76	  406.27
     85.1700	  515.00	  542.20	-1779.70	  406.23
     85.2700	  557.00	  540.87	-1736.37	  406.19
     85.3700	  526.00	  540.21	-1766.71	  406.14
     85.4700	  495.00	  540.11	-1797.61	  406.10
     85.5700	  554.00	  540.51	-1739.01	  406.05
     85.6700	  524.00	  541.35	-1769.85	  406.01
     85.7700	  527.00	  542.59	-1768.09	  405.96
     85.8700	  533.00	  544.21	-1763.71	  405.91
     85.9700	  543.00	  546.20	-1755.70	  405.86
     86.0700	  500.00	  548.57	-1801.07	  405.80
     86.1700	  534.00	  551.35	-1769.85	  405.75
     86.2700	  567.00	  554.59	-1740.09	  405.69
     86.3700	  570.00	  558.38	-1740.88	  405.64
     86.4700	  550.00	  562.81	-1765.31	  405.58
     86.5700	  520.00	  568.01	-1800.51	  405.52
     86.6700	  594.00	  574.05	-1732.55	  405.45
     86.7700	  579.00	  580.64	-1754.14	  405.39
     86.8700	  606.00	  588.26	-1734.76	  405.33
     86.9700	  607.00	  596.28	-1741.78	  405.26
     87.0700	  643.00	  604.26	-1713.76	  405.19
     87.1700	  632.00	  611.57	-1732.07	  405.12
     87.2700	  619.00	  617.51	-1751.01	  405.05
     87.3700	  625.00	  621.36	-1748.86	  404.98
     87.4700	  603.00	  622.55	-1772.05	  404.90
     87.5700	  681.00	  620.83	-1692.33	  404.83
     87.6700	  613.00	  616.42	-1755.92	  404.75
     87.7700	  658.00	  609.90	-1704.40	  404.67
     87.8700	  648.00	  602.07	-1706.57	  404.59
     87.9700	  590.00	  593.76	-1756.26	  404.51
     88.0700	  631.00	  585.77	-1707.27	  404.42
     88.1700	  576.00	  578.74	-1755.24	  404.34
     88.2700	  602.00	  573.21	-1723.71	  404.25
     88.3700	  584.00	  569.51	-1738.01	  404.16
     88.4700	  578.00	  567.82	-1742.32	  404.07
     88.5700	  556.00	  568.14	-1764.64	  403.98
     88.6700	  569.00	  570.32	-1753.82	  403.89
     88.7700	  585.00	  574.08	-1741.58	  403.80
     88.8700	  592.00	  579.03	-1739.53	  403.70
     88.9700	  567.00	  584.66	-1770.16	  403.60
     89.0700	  580.00	  590.39	-1762.89	  403.50
     89.1700	  623.00	  595.60	-1725.10	  403.40
     89.2700	  605.00	  599.66	-1747.16	  403.30
     89.3700	  635.00	  601.99	-1719.49	  403.20
     89.4700	  598.00	  602.24	-1756.74	  403.09
     89.5700	  562.00	  600.31	-1790.81	  402.99
     89.6700	  602.00	  596.43	-1746.93	  402.88
     89.7700	  596.00	  591.05	-1747.55	  402.77
     89.8700	  576.00	  584.69	-1761.19	  402.66
     89.9700	  555.00	  577.88	-1775.38	  402.54
     90.0700	  521.00	  571.08	-1802.58	  402.43
     90.1700	  534.00	  564.66	-1783.16	  402.32
     90.2700	  506.00	  558.87	-1805.37	  402.20
     90.3700	  548.00	  553.88	-1758.38	  402.08
     90.4700	  559.00	  549.74	-1743.24	  401.96
     90.5700	  537.00	  546.47	-1761.97	  401.84
     90.6700	  586.00	  544.00	-1710.50	  401.72
     90.7700	  589.00	  542.23	-1705.73	  401.59
     90.8700	  529.00	  541.06	-1764.56	  401.47
     90.9700	  527.00	  540.41	-1765.91	  401.34
     91.0700	  519.00	  540.20	-1773.70	  401.21
     91.1700	  513.00	  540.39	-1779.89	  401.08
     91.2700	  517.00	  540.98	-1776.48	  400.95
     91.3700	  509.00	  542.01	-1785.51	  400.81
     91.4700	  498.00	  543.56	-1798.06	  400.68
     91.5700	  515.00	  545.75	-1783.25	  400.54
     91.6700	  516.00	  548.74	-1785.24	  400.41
     91.7700	  545.00	  552.72	-1760.22	  400.27
     91.8700	  555.00	  557.90	-1755.40	  400.13
     91.9700	  526.00	  564.26	-1790.76	  399.98
     92.0700	  564.00	  572.41	-1760.91	  399.84
     92.1700	  525.00	  582.26	-1809.76	  399.70
     92.2700	  593.00	  593.83	-1753.33	  399.55
     92.3700	  587.00	  607.04	-1772.54	  399.40
     92.4700	  594.00	  621.69	-1780.19	  399.25
     92.5700	  626.00	  637.43	-1763.93	  399.10
     92.6700	  660.00	  653.76	-1746.26	  398.95
     92.7700	  702.00	  670.09	-1720.59	  398.80
     92.8700	  728.00	  685.69	-1710.19	  398.64
     92.9700	  696.00	  699.88	-1756.38	  398.49
     93.0700	  783.00	  712.05	-1681.55	  398.33
     93.1700	  772.00	  721.97	-1702.47	  398.17
     93.2700	  810.00	  729.76	-1672.26	  398.01
     93.3700	  846.00	  735.98	-1642.48	  397.85
     93.4700	  818.00	  741.40	-1675.90	  397.69
     93.5700	  799.00	  746.88	-1700.38	  397.53
     93.6700	  818.00	  753.19	-1687.69	  397.36
     93.7700	  850.00	  761.00	-1663.50	  397.19
     93.8700	  814.00	  770.84	-1709.34	  397.03
     93.9700	  899.00	  783.14	-1636.64	  396.86
     94.0700	  863.00	  798.11	-1687.61	  396.69
     94.1700	  853.00	  815.73	-1715.23	  396.51
     94.2700	  884.00	  835.57	-1704.07	  396.34
     94.3700	  874.00	  856.77	-1735.27	  396.17
     94.4700	  858.00	  878.03	-1772.53	  395.99
     94.5700	  929.00	  897.63	-1721.13	  395.81
     94.6700	  913.00	  913.61	-1753.11	  395.64
     94.7700	  938.00	  923.96	-1738.46	  395.46
     94.8700	  902.00	  926.99	-1777.49	  395.28
     94.9700	  953.00	  921.79	-1721.29	  395.09
     95.0700	  844.00	  908.47	-1816.97	  394.91
     95.1700	  915.00	  888.10	-1725.60	  394.73
     95.2700	  776.00	  862.49	-1838.99	  394.54
     95.3700	  812.00	  833.74	-1774.24	  394.35
     95.4700	  816.00	  803.99	-1740.49	  394.17
     95.5700	  720.00	  775.27	-1807.77	  393.98
     95.6700	  686.00	  749.42	-1815.92	  393.79
     95.7700	  633.00	  728.08	-1847.58	  393.60
     95.8700	  697.00	  712.69	-1768.19	  393.40
     95.9700	  703.00	  704.52	-1754.02	  393.21
     96.0700	  686.00	  704.66	-1771.16	  393.02
     96.1700	  720.00	  714.00	-1746.50	  392.82
     96.2700	  705.00	  733.23	-1780.73	  392.62
     96.3700	  756.00	  762.84	-1759.34	  392.42
     96.4700	  813.00	  802.91	-1742.41	  392.22
     96.5700	  890.00	  853.19	-1715.69	  392.02
     96.6700	  895.00	  912.84	-1770.34	  391.82
     96.7700	  952.00	  980.43	-1780.93	  391.62
     96.8700	 1019.00	 1053.86	-1787.36	  391.42
     96.9700	 1094.00	 1130.31	-1788.81	  391.21
     97.0700	 1177.00	 1206.31	-1781.81	  391.01
     97.1700	 1225.00	 1277.76	-1805.26	  390.80
     97.2700	 1343.00	 1340.22	-1749.72	  390.59
     97.3700	 1346.00	 1389.21	-1795.71	  390.38
     97.4700	 1442.00	 1420.81	-1731.31	  390.18
     97.5700	 1430.00	 1432.40	-1754.90	  389.96
     97.6700	 1483.00	 1423.27	-1692.77	  389.75
     97.7700	 1368.00	 1394.72	-1779.22	  389.54
     97.8700	 1342.00	 1349.72	-1760.22	  389.33
     97.9700	 1311.00	 1292.23	-1733.73	  389.11
     98.0700	 1290.00	 1226.60	-1689.10	  388.90
     98.1700	 1102.00	 1157.08	-1807.58	  388.68
     98.2700	 1107.00	 1087.63	-1733.13	  388.46
     98.3700	 1021.00	 1021.66	-1753.16	  388.25
     98.4700	  932.00	  962.10	-1782.60	  388.03
     98.5700	  875.00	  911.23	-1788.73	  387.81
     98.6700	  865.00	  870.89	-1758.39	  387.59
     98.7700	  748.00	  842.43	-1846.93	  387.37
     98.8700	  815.00	  826.83	-1764.33	  387.15
     98.9700	  784.00	  824.76	-1793.26	  386.92
     99.0700	  836.00	  836.66	-1753.16	  386.70
     99.1700	  834.00	  862.76	-1781.26	  386.48
     99.2700	  927.00	  903.10	-1728.60	  386.25
     99.3700	  925.00	  957.47	-1784.97	  386.02
     99.4700	 1016.00	 1025.39	-1761.89	  385.80
     99.5700	 1064.00	 1105.95	-1794.45	  385.57
     99.6700	 1192.00	 1197.82	-1758.32	  385.34
     99.7700	 1266.00	 1299.09	-1785.59	  385.11
     99.8700	 1367.00	 1407.15	-1792.65	  384.89
     99.9700	 1531.00	 1518.70	-1740.20	  384.66
    100.0700	 1598.00	 1629.74	-1784.24	  384.43
    100.1700	 1763.00	 1735.87	-1725.37	  384.19
    100.2700	 1895.00	 1832.57	-1690.07	  383.96
    100.3700	 1863.00	 1915.74	-1805.24	  383.73
    100.4700	 1967.00	 1982.15	-1767.65	  383.50
    100.5700	 2115.00	 2029.50	-1667.00	  383.26
    100.6700	 2068.00	 2056.38	-1740.88	  383.03
    100.7700	 2072.00	 2061.96	-1742.46	  382.80
    100.8700	 2088.00	 2045.93	-1710.43	  382.56
    100.9700	 2057.00	 2008.79	-1704.29	  382.33
    101.0700	 2000.00	 1952.19	-1704.69	  382.09
    101.1700	 1886.00	 1879.14	-1745.64	  381.85
    101.2700	 1837.00	 1793.87	-1709.37	  381.62
    101.3700	 1749.00	 1701.39	-1704.89	  381.38
    101.4700	 1573.00	 1606.75	-1786.25	  381.14
    101.5700	 1637.00	 1514.61	-1630.11	  380.90
    101.6700	 1420.00	 1428.77	-1761.27	  380.67
    101.7700	 1383.00	 1352.01	-1721.51	  380.43
    101.8700	 1281.00	 1286.10	-1757.60	  380.19
    101.9700	 1248.00	 1231.69	-1736.19	  379.95
    102.0700	 1156.00	 1188.42	-1784.92	  379.71
    102.1700	 1139.00	 1155.03	-1768.53	  379.47
    102.2700	 1156.00	 1129.52	-1726.02	  379.23
    102.3700	 1163.00	 1109.37	-1698.87	  378.99
    102.4700	 1063.00	 1091.82	-1781.32	  378.75
    102.5700	 1154.00	 1074.17	-1672.67	  378.51
    102.6700	 1078.00	 1054.19	-1728.69	  378.27
    102.7700	 1059.00	 1030.36	-1723.86	  378.03
    102.8700	 1044.00	 1002.04	-1710.54	  377.79
    102.9700	  926.00	  969.40	-1795.90	  377.54
    103.0700	  899.00	  933.20	-1786.70	  377.30
    103.1700	  865.00	  894.53	-1782.03	  377.06
    103.2700	  832.00	  854.67	-1775.17	  376.82
    103.3700	  832.00	  814.85	-1735.35	  376.58
    103.4700	  758.00	  776.24	-1770.74	  376.34
    103.5700	  762.00	  739.81	-1730.31	  376.10
    103.6700	  727.00	  706.33	-1731.83	  375.86
    103.7700	  671.00	  676.32	-1757.82	  375.61
    103.8700	  654.00	  650.11	-1748.61	  375.37
    103.9700	  570.00	  627.78	-1810.28	  375.13
    104.0700	  631.00	  609.27	-1730.77	  374.89
    104.1700	  592.00	  594.34	-1754.84	  374.65
    104.2700	  590.00	  582.67	-1745.17	  374.41
    104.3700	  559.00	  573.89	-1767.39	  374.17
    104.4700	  583.00	  567.61	-1737.11	  373.93
    104.5700	  576.00	  563.43	-1739.93	  373.69
    104.6700	  573.00	  560.99	-1740.49	  373.45
    104.7700	  534.00	  559.94	-1778.44	  373.21
    104.8700	  500.00	  560.01	-1812.51	  372.97
    104.9700	  519.00	  560.91	-1794.41	  372.73
    105.0700	  543.00	  562.49	-1771.99	  372.49
    105.1700	  536.00	  564.55	-1781.05	  372.25
    105.2700	  543.00	  566.98	-1776.48	  372.01
    105.3700	  559.00	  569.67	-1763.17	  371.78
    105.4700	  571.00	  572.61	-1754.11	  371.54
    105.5700	  530.00	  575.81	-1798.31	  371.30
    105.6700	  531.00	  579.33	-1800.83	  371.07
    105.7700	  561.00	  583.26	-1774.76	  370.83
    105.8700	  535.00	  587.76	-1805.26	  370.60
    105.9700	  610.00	  592.95	-1735.45	  370.36
    106.0700	  530.00	  598.96	-1821.46	  370.13
    106.1700	  626.00	  605.84	-1732.34	  369.89
    106.2700	  542.00	  613.63	-1824.13	  369.66
    106.3700	  602.00	  622.25	-1772.75	  369.43
    106.4700	  595.00	  631.58	-1789.08	  369.20
    106.5700	  629.00	  641.39	-1764.89	  368.97
    106.6700	  641.00	  651.38	-1762.88	  368.74
    106.7700	  660.00	  661.22	-1753.72	  368.51
    106.8700	  700.00	  670.49	-1722.99	  368.28
    106.9700	  642.00	  678.76	-1789.26	  368.05
    107.0700	  643.00	  685.63	-1795.13	  367.83
    107.1700	  649.00	  690.77	-1794.27	  367.60
    107.2700	  653.00	  693.96	-1793.46	  367.38
    107.3700	  673.00	  695.19	-1774.69	  367.15
    107.4700	  713.00	  694.62	-1734.12	  366.93
    107.5700	  681.00	  692.55	-1764.05	  366.71
    107.6700	  717.00	  689.43	-1724.93	  366.49
    107.7700	  672.00	  685.73	-1766.23	  366.27
    107.8700	  671.00	  681.90	-1763.40	  366.05
    107.9700	  716.00	  678.33	-1714.83	  365.83
    108.0700	  644.00	  675.32	-1783.82	  365.61
    108.1700	  666.00	  673.06	-1759.56	  365.40
    108.2700	  697.00	  671.63	-1727.13	  365.18
    108.3700	  714.00	  670.98	-1709.48	  364.97
    108.4700	  717.00	  670.95	-1706.45	  364.76
    108.5700	  696.00	  671.28	-1727.78	  364.55
    108.6700	  684.00	  671.64	-1740.14	  364.34
    108.7700	  698.00	  671.64	-1726.14	  364.13
    108.8700	  676.00	  670.90	-1747.40	  363.92
    108.9700	  716.00	  669.07	-1705.57	  363.72
    109.0700	  655.00	  665.93	-1763.43	  363.52
    109.1700	  655.00	  661.35	-1758.85	  363.31
    109.2700	  655.00	  655.36	-1752.86	  363.11
    109.3700	  595.00	  648.10	-1805.60	  362.91
    109.4700	  615.00	  639.80	-1777.30	  362.71
    109.5700	  617.00	  630.75	-1766.25	  362.52
    109.6700	  573.00	  621.27	-1800.77	  362.32
    109.7700	  631.00	  611.65	-1733.15	  362.13
    109.8700	  623.00	  602.17	-1731.67	  361.94
    109.9700	  590.00	  593.09	-1755.59	  361.75
    110.0700	  576.00	  584.60	-1761.10	  361.56
    110.1700	  554.00	  576.88	-1775.38	  361.38
    110.2700	  581.00	  570.03	-1741.53	  361.19
    110.3700	  540.00	  564.11	-1776.61	  361.01
    110.4700	  539.00	  559.14	-1772.64	  360.83
    110.5700	  554.00	  555.10	-1753.60	  360.65
    110.6700	  602.00	  551.96	-1702.46	  360.47
    110.7700	  539.00	  549.64	-1763.14	  360.30
    110.8700	  570.00	  548.06	-1730.56	  360.13
    110.9700	  514.00	  547.15	-1785.65	  359.96
    111.0700	  544.00	  546.82	-1755.31	  359.79
    111.1700	  531.00	  546.98	-1768.48	  359.62
    111.2700	  552.00	  547.58	-1748.08	  359.46
    111.3700	  541.00	  548.54	-1760.04	  359.29
    111.4700	  518.00	  549.83	-1784.33	  359.13
    111.5700	  561.00	  551.40	-1742.90	  358.98
    111.6700	  497.00	  553.23	-1808.73	  358.82
    111.7700	  574.00	  555.30	-1733.80	  358.67
    111.8700	  543.00	  557.59	-1767.09	  358.52
    111.9700	  585.00	  560.11	-1727.61	  358.37
    112.0700	  535.00	  562.86	-1780.36	  358.22
    112.1700	  508.00	  565.84	-1810.34	  358.08
    112.2700	  560.00	  569.09	-1761.59	  357.94
    112.3700	  563.00	  572.63	-1762.13	  357.80
    112.4700	  649.00	  576.49	-1679.99	  357.66
    112.5700	  615.00	  580.73	-1718.23	  357.53
    112.6700	  615.00	  585.41	-1722.91	  357.40
    112.7700	  610.00	  590.62	-1733.12	  357.27
    112.8700	  709.00	  596.46	-1639.96	  357.15
    112.9700	  697.00	  603.09	-1658.59	  357.02
    113.0700	  706.00	  610.70	-1657.20	  356.90
    113.1700	  732.00	  619.54	-1640.04	  356.79
    113.2700	  736.00	  629.93	-1646.43	  356.67
    113.3700	  763.00	  642.28	-1631.78	  356.56
    113.4700	  783.00	  657.12	-1626.62	  356.46
    113.5700	  825.00	  675.08	-1602.58	  356.35
    113.6700	  887.00	  696.96	-1562.46	  356.25
    113.7700	  935.00	  723.74	-1541.24	  356.15
    113.8700	  963.00	  756.57	-1546.07	  356.05
    113.9700	 1043.00	  796.82	-1506.32	  355.96
    114.0700	 1039.00	  846.06	-1559.56	  355.87
    114.1700	 1073.00	  906.10	-1585.60	  355.78
    114.2700	 1127.00	  978.91	-1604.41	  355.70
    114.3700	 1224.00	 1066.65	-1595.15	  355.62
    114.4700	 1258.00	 1171.58	-1666.08	  355.55
    114.5700	 1469.00	 1296.02	-1579.52	  355.47
    114.6700	 1613.00	 1442.24	-1581.74	  355.40
    114.7700	 1747.00	 1612.29	-1617.79	  355.34
    114.8700	 1915.00	 1808.03	-1645.53	  355.28
    114.9700	 2085.00	 2030.76	-1698.26	  355.22
    115.0700	 2403.00	 2281.29	-1630.79	  355.16
    115.1700	 2636.00	 2559.60	-1676.10	  355.11
    115.2700	 2841.00	 2864.75	-1776.25	  355.06
    115.3700	 3125.00	 3194.92	-1822.42	  355.02
    115.4700	 3422.00	 3546.98	-1877.48	  354.98
    115.5700	 3764.00	 3916.82	-1905.32	  354.94
    115.6700	 4034.00	 4298.97	-2017.47	  354.91
    115.7700	 4425.00	 4686.73	-2014.23	  354.88
    115.8700	 4832.00	 5072.41	-1992.91	  354.85
    115.9700	 5141.00	 5447.04	-2058.54	  354.83
    116.0700	 5463.00	 5800.93	-2090.43	  354.82
    116.1700	 6059.00	 6123.58	-1817.08	  354.80
    116.2700	 6392.00	 6404.22	-1764.72	  354.80
    116.3700	 6684.00	 6632.57	-1701.07	  354.79
    116.4700	 6716.00	 6799.28	-1835.78	  354.79
    116.5700	 7010.00	 6897.13	-1639.63	  354.80
    116.6700	 6952.00	 6921.68	-1722.18	  354.80
    116.7700	 6857.00	 6871.96	-1767.46	  354.82
    116.8700	 6824.00	 6750.53	-1679.03	  354.83
    116.9700	 6681.00	 6563.24	-1634.74	  354.86
    117.0700	 6417.00	 6318.30	-1653.80	  354.88
    117.1700	 5983.00	 6025.61	-1795.11	  354.91
    117.2700	 5785.00	 5695.80	-1663.30	  354.95
    117.3700	 5232.00	 5339.37	-1859.87	  354.99
    117.4700	 4958.00	 4966.54	-1761.04	  355.03
    117.5700	 4718.00	 4586.50	-1621.00	  355.08
    117.6700	 4283.00	 4207.58	-1677.08	  355.14
    117.7700	 3993.00	 3836.98	-1596.48	  355.20
    117.8700	 3634.00	 3480.51	-1599.01	  355.26
    117.9700	 3306.00	 3142.99	-1589.49	  355.33
    118.0700	 2889.00	 2827.81	-1691.31	  355.40
    118.1700	 2578.00	 2537.42	-1711.92	  355.48
    118.2700	 2228.00	 2273.18	-1797.68	  355.57
    118.3700	 1955.00	 2035.47	-1832.97	  355.66
    118.4700	 1767.00	 1824.02	-1809.52	  355.75
    118.5700	 1545.00	 1637.80	-1845.30	  355.85
    118.6700	 1352.00	 1475.40	-1875.90	  355.95
    118.7700	 1242.00	 1335.06	-1845.56	  356.06
    118.8700	 1114.00	 1214.73	-1853.23	  356.18
    118.9700	 1018.00	 1112.33	-1846.83	  356.30
    119.0700	  924.00	 1025.72	-1854.22	  356.43
    119.1700	  886.00	  952.87	-1819.37	  356.56
    119.2700	  869.00	  891.86	-1775.36	  356.70
    119.3700	  725.00	  840.92	-1868.42	  356.84
    119.4700	  729.00	  798.49	-1821.99	  356.99
    119.5700	  731.00	  763.19	-1784.69	  357.14
    119.6700	  660.00	  733.83	-1826.33	  357.30
    119.7700	  624.00	  709.40	-1837.90	  357.47
    119.8700	  620.00	  689.04	-1821.54	  357.64
    119.9700	  674.00	  672.07	-1750.57	  357.82
    120.0700	  614.00	  657.89	-1796.39	  358.01
    120.1700	  572.00	  646.04	-1826.54	  358.20
    120.2700	  633.00	  636.13	-1755.63	  358.39
    120.3700	  603.00	  627.85	-1777.35	  358.60
    120.4700	  570.00	  620.97	-1803.47	  358.80
    120.5700	  597.00	  615.29	-1770.79	  359.02
    120.6700	  620.00	  610.65	-1743.15	  359.24
    120.7700	  644.00	  606.93	-1715.43	  359.47
    120.8700	  581.00	  604.05	-1775.55	  359.70
    120.9700	  544.00	  601.93	-1810.43	  359.95
    121.0700	  620.00	  600.51	-1733.01	  360.19
    121.1700	  558.00	  599.74	-1794.24	  360.45
    121.2700	  584.00	  599.59	-1768.09	  360.71
    121.3700	  569.00	  600.00	-1783.50	  360.98
    121.4700	  558.00	  600.95	-1795.45	  361.25
    121.5700	  603.00	  602.39	-1751.89	  361.53
    121.6700	  608.00	  604.25	-1748.75	  361.82
    121.7700	  580.00	  606.50	-1779.00	  362.11
    121.8700	  591.00	  609.04	-1770.54	  362.42
    121.9700	  565.00	  611.83	-1799.33	  362.72
    122.0700	  614.00	  614.78	-1753.28	  363.04
    122.1700	  608.00	  617.80	-1762.30	  363.36
    122.2700	  622.00	  620.78	-1751.28	  363.70
    122.3700	  633.00	  623.63	-1743.13	  364.03
    122.4700	  618.00	  626.24	-1760.74	  364.38
    122.5700	  592.00	  628.52	-1789.02	  364.73
    122.6700	  647.00	  630.38	-1735.88	  365.09
    122.7700	  614.00	  631.74	-1770.24	  365.46
    122.8700	  664.00	  632.55	-1721.05	  365.84
    122.9700	  679.00	  632.77	-1706.27	  366.22
    123.0700	  660.00	  632.40	-1724.90	  366.61
    123.1700	  651.00	  631.46	-1732.96	  367.01
    123.2700	  652.00	  629.98	-1730.48	  367.41
    123.3700	  621.00	  628.02	-1759.52	  367.83
    123.4700	  693.00	  625.64	-1685.14	  368.25
    123.5700	  646.00	  622.91	-1729.41	  368.68
    123.6700	  631.00	  619.89	-1741.39	  369.12
    123.7700	  694.00	  616.67	-1675.17	  369.57
    123.8700	  602.00	  613.31	-1763.81	  370.02
    123.9700	  611.00	  609.88	-1751.38	  370.49
    124.0700	  621.00	  606.43	-1737.93	  370.96
    124.1700	  576.00	  603.03	-1779.53	  371.44
    124.2700	  596.00	  599.72	-1756.22	  371.93
    124.3700	  645.00	  596.54	-1704.04	  372.42
    124.4700	  625.00	  593.52	-1721.02	  372.93
    124.5700	  621.00	  590.68	-1722.18	  373.44
    124.6700	  617.00	  588.04	-1723.54	  373.97
    124.7700	  569.00	  585.62	-1769.12	  374.50
    124.8700	  579.00	  583.43	-1756.93	  375.04
    124.9700	  592.00	  493.85	-1654.35	  375.59
    125.0700	  555.00	  494.41	-1752.50	  376.15
    125.1700	  612.00	  494.98	-1752.50	  376.72
    125.2700	  574.00	  495.56	-1752.50	  377.29
    125.3700	  570.00	  496.14	-1752.50	  377.88
    125.4700	  560.00	  496.74	-1752.50	  378.48
    125.5700	  559.00	  497.34	-1752.50	  379.08
    125.6700	  549.00	  497.96	-1752.50	  379.69
    125.7700	  577.00	  498.58	-1752.50	  380.32
    125.8700	  586.00	  499.22	-1752.50	  380.95
    125.9700	  599.00	  499.86	-1752.50	  381.59
    126.0700	  581.00	  500.51	-1752.50	  382.25
    126.1700	  581.00	  501.17	-1752.50	  382.91
    126.2700	  611.00	  501.85	-1752.50	  383.58
    126.3700	  631.00	  502.53	-1752.50	  384.26
    126.4700	  579.00	  503.22	-1752.50	  384.96
    126.5700	  617.00	  503.92	-1752.50	  385.66
    126.6700	  587.00	  504.63	-1752.50	  386.37
    126.7700	  577.00	  505.36	-1752.50	  387.09
    126.8700	  572.00	  506.09	-1752.50	  387.82
    126.9700	  620.00	  506.83	-1752.50	  388.57
    127.0700	  654.00	  507.58	-1752.50	  389.32
    127.1700	  675.00	  508.35	-1752.50	  390.08
    127.2700	  686.00	  509.12	-1752.50	  390.86
    127.3700	  664.00	  509.91	-1752.50	  391.64
    127.4700	  701.00	  510.70	-1752.50	  392.44
    127.5700	  656.00	  511.51	-1752.50	  393.24
    127.6700	  682.00	  512.32	-1752.50	  394.06
    127.7700	  752.00	  513.15	-1752.50	  394.89
    127.8700	  753.00	  513.99	-1752.50	  395.73
    127.9700	  764.00	  514.84	-1752.50	  396.58
    128.0700	  796.00	  515.70	-1752.50	  397.44
    128.1700	  763.00	  516.57	-1752.50	  398.31
    128.2700	  743.00	  517.46	-1752.50	  399.19
    128.3700	  766.00	  518.35	-1752.50	  400.09
    128.4700	  792.00	  519.26	-1752.50	  400.99
    128.5700	    0.00	  520.18	-1752.50	  401.91
    128.6700	    1.00	  521.10	-1752.50	  402.84
     12.3048	        	        	        	        	       0	(  0  0  2)	  0  1
     24.8887	        	        	        	        	       0	(  0  0  4)	  0  1
     28.3288	        	        	        	        	       0	(  1  0  0)	  0  1
     29.0261	        	        	        	        	       0	(  1  0  1)	  0  1
     31.0325	        	        	        	        	       0	(  1  0  2)	  0  1
     34.1412	        	        	        	        	       0	(  1  0  3)	  0  1
     37.7887	        	        	        	        	       0	(  0  0  6)	  0  1
     38.1187	        	        	        	        	       0	(  1  0  4)	  0  1
     42.7692	        	        	        	        	       0	(  1  0  5)	  0  1
     47.9536	        	        	        	        	       0	(  1  0  6)	  0  1
     50.2655	        	        	        	        	       0	(  1  1  0)	  0  1
     51.2111	        	        	        	        	       0	(  0  0  8)	  0  1
     51.9888	        	        	        	        	       0	(  1  1  2)	  0  1
     53.5845	        	        	        	        	       0	(  1  0  7)	  0  1
     56.9372	        	        	        	        	       0	(  1  1  4)	  0  1
     58.7625	        	        	        	        	       0	(  2  0  0)	  0  1
     59.1541	        	        	        	        	       0	(  2  0  1)	  0  1
     59.6153	        	        	        	        	       0	(  1  0  8)	  0  1
     60.3196	        	        	        	        	       0	(  2  0  2)	  0  1
     62.2330	        	        	        	        	       0	(  2  0  3)	  0  1
     64.6326	        	        	        	        	       0	(  1  1  6)	  0  1
     64.8574	        	        	        	        	       0	(  2  0  4)	  0  1
     65.4408	        	        	        	        	       0	(  0  0 10)	  0  1
     66.0320	        	        	        	        	       0	(  1  0  9)	  0  1
     68.1520	        	        	        	        	       0	(  2  0  5)	  0  1
     72.0798	        	        	        	        	       0	(  2  0  6)	  0  1
     72.8485	        	        	        	        	       0	(  1  0 10)	  0  1
     74.6712	        	        	        	        	       0	(  1  1  8)	  0  1
     76.6144	        	        	        	        	       0	(  2  0  7)	  0  1
     80.1066	        	        	        	        	       0	(  1  0 11)	  0  1
     80.9219	        	        	        	        	       0	(  0  0 12)	  0  1
     81.0035	        	        	        	        	       0	(  2  1  0)	  0  1
     81.3434	        	        	        	        	       0	(  2  1  1)	  0  1
     81.7451	        	        	        	        	       0	(  2  0  8)	  0  1
     82.3613	        	        	        	        	       0	(  2  1  2)	  0  1
     84.0528	        	        	        	        	       0	(  2  1  3)	  0  1
     86.4127	        	        	        	        	       0	(  2  1  4)	  0  1
     86.9435	        	        	        	        	       0	(  1  1 10)	  0  1
     87.4835	        	        	        	        	       0	(  2  0  9)	  0  1
     87.8813	        	        	        	        	       0	(  1  0 12)	  0  1
     89.4388	        	        	        	        	       0	(  2  1  5)	  0  1
     93.1365	        	        	        	        	       0	(  2  1  6)	  0  1
     93.8715	        	        	        	        	       0	(  2  0 10)	  0  1
     94.8922	        	        	        	        	       0	(  3  0  0)	  0  1
     95.2296	        	        	        	        	       0	(  3  0  1)	  0  1
     96.2429	        	        	        	        	       0	(  3  0  2)	  0  1
     96.2951	        	        	        	        	       0	(  1  0 13)	  0  1
     97.5255	        	        	        	        	       0	(  2  1  7)	  0  1
     97.9364	        	        	        	        	       0	(  3  0  3)	  0  1
     98.4623	        	        	        	        	       0	(  0  0 14)	  0  1
    100.3196	        	        	        	        	       0	(  3  0  4)	  0  1
    100.9939	        	        	        	        	       0	(  2  0 11)	  0  1
    101.8150	        	        	        	        	       0	(  1  1 12)	  0  1
    102.6484	        	        	        	        	       0	(  2  1  8)	  0  1
    103.4114	        	        	        	        	       0	(  3  0  5)	  0  1
    105.5485	        	        	        	        	       0	(  1  0 14)	  0  1
    107.2468	        	        	        	        	       0	(  3  0  6)	  0  1
    108.5857	        	        	        	        	       0	(  2  1  9)	  0  1
    109.0059	        	        	        	        	       0	(  2  0 12)	  0  1
    111.8875	        	        	        	        	       0	(  3  0  7)	  0  1
    115.4832	        	        	        	        	       0	(  2  1 10)	  0  1
    115.9932	        	        	        	        	       0	(  1  0 15)	  0  1
    116.6171	        	        	        	        	       0	(  2  2  0)	  0  1
    117.4414	        	        	        	        	       0	(  3  0  8)	  0  1
    118.1324	        	        	        	        	       0	(  2  2  2)	  0  1
    118.1913	        	        	        	        	       0	(  2  0 13)	  0  1
    119.9533	        	        	        	        	       0	(  0  0 16)	  0  1
    120.6614	        	        	        	        	       0	(  1  1 14)	  0  1
    122.8182	        	        	        	        	       0	(  2  2  4)	  0  1
    123.6112	        	        	        	        	       0	(  2  1 11)	  0  1
    124.1021	        	        	        	        	       0	(  3  0  9)	  0  1
    124.6823	        	        	        	        	       0	(  3  1  0)	  0  1
    125.0926	        	        	        	        	       0	(  3  1  1)	  0  1
    126.3361	        	        	        	        	       0	(  3  1  2)	  0  1
    128.3393	        	        	        	        	       0	(  1  0 16)	  0  1
    128.4545	        	        	        	        	       0	(  3  1  3)	  0  1
    129.1234	        	        	        	        	       0	(  2  0 14)	  0  1
    131.2589	        	        	        	        	       0	(  2  2  6)	  0  1
    131.5307	        	        	        	        	       0	(  3  1  4)	  0  1
    132.2440	        	        	        	        	       0	(  3  0 10)	  0  1
    133.5255	        	        	        	        	       0	(  2  1 12)	  0  1
    135.7182	        	        	        	        	       0	(  3  1  5)	  0  1
    141.3143	        	        	        	        	       0	(  3  1  6)	  0  1
    142.7256	        	        	        	        	       0	(  3  0 11)	  0  1
    143.2696	        	        	        	        	       0	(  2  0 15)	  0  1
    144.5182	        	        	        	        	       0	(  1  0 17)	  0  1
    145.4955	        	        	        	        	       0	(  2  2  8)	  0  1
    146.6870	        	        	        	        	       0	(  2  1 13)	  0  1
    148.9893	        	        	        	        	       0	(  3  1  7)	  0  1
    149.6123	        	        	        	        	       0	(  1  1 16)	  0  1
    154.0315	        	        	        	        	       0	(  0  0 18)	  0  1
    158.6177	        	        	        	        	       0	(  3  0 12)	  0  1
    158.8411	        	        	        	        	       0	(  4  0  0)	  0  1
    159.7983	        	        	        	        	       0	(  4  0  1)	  0  1
    160.9904	        	        	        	        	       0	(  3  1  8)	  0  1
    162.9785	        	        	        	        	       0	(  4  0  2)	  0  1
    169.8029	        	        	        	        	       0	(  2  0 16)	  0  1
    170.3324	        	        	        	        	       0	(  4  0  3)	  0  1
    174.2888	        	        	        	        	       0	(  2  1 14)	  0  1
