MSG Master    CELL:    5.91913   5.91913  23.26610   90.0000   90.0000  120.0000   SPGR: P 63/m m c             TEMP:   1074.95
  1   1280     2.52000     0.00000    -0.12715     0.00000     0.00000    0
    99     0     2
       0.00000      10.00000
     125.00000     130.00000
 2Theta	Yobs	Ycal	Yobs-Ycal	Backg	Posr	(hkl)	K
      0.7700	    0.00	  546.85	-1751.00	  429.64
      0.8700	    0.00	  547.58	-1751.00	  430.37
      0.9700	   38.00	  548.30	-1751.00	  431.09
      1.0700	   42.00	  549.01	-1751.00	  431.80
      1.1700	   37.00	  549.71	-1751.00	  432.49
      1.2700	   43.00	  550.40	-1751.00	  433.18
      1.3700	   50.00	  551.07	-1751.00	  433.86
      1.4700	  109.00	  551.74	-1751.00	  434.52
      1.5700	  289.00	  552.39	-1751.00	  435.18
      1.6700	  477.00	  553.04	-1751.00	  435.82
      1.7700	  622.00	  553.67	-1751.00	  436.46
      1.8700	  659.00	  554.30	-1751.00	  437.08
      1.9700	  677.00	  554.91	-1751.00	  437.70
      2.0700	  759.00	  555.52	-1751.00	  438.30
      2.1700	  832.00	  556.11	-1751.00	  438.90
      2.2700	  734.00	  556.70	-1751.00	  439.48
      2.3700	  757.00	  557.27	-1751.00	  440.06
      2.4700	  719.00	  557.84	-1751.00	  440.62
      2.5700	  683.00	  558.39	-1751.00	  441.18
      2.6700	  670.00	  558.94	-1751.00	  441.72
      2.7700	  709.00	  559.47	-1751.00	  442.26
      2.8700	  694.00	  560.00	-1751.00	  442.78
      2.9700	  629.00	  560.51	-1751.00	  443.30
      3.0700	  591.00	  561.02	-1751.00	  443.81
      3.1700	  647.00	  561.52	-1751.00	  444.31
      3.2700	  608.00	  562.01	-1751.00	  444.79
      3.3700	  713.00	  562.49	-1751.00	  445.27
      3.4700	  707.00	  562.96	-1751.00	  445.74
      3.5700	  814.00	  563.42	-1751.00	  446.21
      3.6700	  824.00	  563.87	-1751.00	  446.66
      3.7700	  873.00	  564.32	-1751.00	  447.10
      3.8700	  967.00	  564.75	-1751.00	  447.54
      3.9700	 1009.00	  565.18	-1751.00	  447.96
      4.0700	 1020.00	  565.60	-1751.00	  448.38
      4.1700	 1046.00	  566.00	-1751.00	  448.79
      4.2700	 1054.00	  566.40	-1751.00	  449.19
      4.3700	 1091.00	  566.80	-1751.00	  449.58
      4.4700	 1048.00	  567.18	-1751.00	  449.96
      4.5700	 1050.00	  567.55	-1751.00	  450.34
      4.6700	 1031.00	  567.92	-1751.00	  450.70
      4.7700	  952.00	  568.28	-1751.00	  451.06
      4.8700	  944.00	  568.63	-1751.00	  451.41
      4.9700	  962.00	  568.97	-1751.00	  451.75
      5.0700	  974.00	  569.30	-1751.00	  452.09
      5.1700	  922.00	  569.63	-1751.00	  452.41
      5.2700	  904.00	  569.94	-1751.00	  452.73
      5.3700	  890.00	  570.25	-1751.00	  453.04
      5.4700	  883.00	  570.56	-1751.00	  453.34
      5.5700	  828.00	  570.85	-1751.00	  453.64
      5.6700	  792.00	  571.14	-1751.00	  453.92
      5.7700	  831.00	  571.41	-1751.00	  454.20
      5.8700	  817.00	  571.69	-1751.00	  454.47
      5.9700	  827.00	  571.95	-1751.00	  454.73
      6.0700	  844.00	  572.21	-1751.00	  454.99
      6.1700	  767.00	  572.45	-1751.00	  455.24
      6.2700	  817.00	  572.69	-1751.00	  455.48
      6.3700	  764.00	  572.93	-1751.00	  455.71
      6.4700	  799.00	  573.16	-1751.00	  455.94
      6.5700	  712.00	  573.37	-1751.00	  456.16
      6.6700	  719.00	  573.59	-1751.00	  456.37
      6.7700	  737.00	  573.79	-1751.00	  456.58
      6.8700	  718.00	  573.99	-1751.00	  456.78
      6.9700	  711.00	  574.18	-1751.00	  456.97
      7.0700	  723.00	  574.37	-1751.00	  457.15
      7.1700	  708.00	  574.54	-1751.00	  457.33
      7.2700	  712.00	  574.71	-1751.00	  457.50
      7.3700	  691.00	  574.88	-1751.00	  457.66
      7.4700	  623.00	  575.04	-1751.00	  457.82
      7.5700	  645.00	  575.19	-1751.00	  457.97
      7.6700	  640.00	  575.33	-1751.00	  458.12
      7.7700	  649.00	  575.47	-1751.00	  458.25
      7.8700	  650.00	  575.60	-1751.00	  458.39
      7.9700	  610.00	  575.73	-1751.00	  458.51
      8.0700	  617.00	  575.84	-1751.00	  458.63
      8.1700	  658.00	  575.96	-1751.00	  458.74
      8.2700	  670.00	  576.06	-1751.00	  458.85
      8.3700	  585.00	  576.16	-1751.00	  458.95
      8.4700	  614.00	  576.26	-1751.00	  459.04
      8.5700	  590.00	  576.34	-1751.00	  459.13
      8.6700	  632.00	  576.43	-1751.00	  459.21
      8.7700	  616.00	  576.50	-1751.00	  459.29
      8.8700	  602.00	  576.57	-1751.00	  459.36
      8.9700	  618.00	  576.64	-1751.00	  459.42
      9.0700	  624.00	  576.70	-1751.00	  459.48
      9.1700	  613.00	  576.75	-1751.00	  459.53
      9.2700	  611.00	  576.79	-1751.00	  459.58
      9.3700	  620.00	  576.84	-1751.00	  459.62
      9.4700	  599.00	  576.87	-1751.00	  459.66
      9.5700	  640.00	  576.90	-1751.00	  459.69
      9.6700	  591.00	  576.93	-1751.00	  459.71
      9.7700	  595.00	  576.95	-1751.00	  459.73
      9.8700	  618.00	  576.96	-1751.00	  459.75
      9.9700	  609.00	  576.97	-1751.00	  459.75
     10.0700	  595.00	  577.60	-1733.60	  459.76
     10.1700	  605.00	  577.66	-1723.66	  459.76
     10.2700	  591.00	  577.73	-1737.73	  459.75
     10.3700	  573.00	  577.82	-1755.82	  459.74
     10.4700	  579.00	  577.94	-1749.94	  459.72
     10.5700	  593.00	  578.16	-1736.16	  459.70
     10.6700	  609.00	  578.56	-1720.56	  459.67
     10.7700	  560.00	  579.25	-1770.25	  459.64
     10.8700	  529.00	  580.30	-1802.30	  459.60
     10.9700	  575.00	  581.70	-1757.70	  459.56
     11.0700	  601.00	  583.41	-1733.41	  459.51
     11.1700	  570.00	  585.41	-1766.41	  459.46
     11.2700	  580.00	  587.75	-1758.75	  459.41
     11.3700	  572.00	  590.49	-1769.49	  459.35
     11.4700	  559.00	  593.75	-1785.75	  459.28
     11.5700	  603.00	  597.70	-1745.70	  459.21
     11.6700	  653.00	  602.67	-1700.67	  459.14
     11.7700	  598.00	  609.20	-1762.20	  459.06
     11.8700	  656.00	  618.26	-1713.26	  458.98
     11.9700	  696.00	  630.80	-1685.80	  458.89
     12.0700	  652.00	  645.78	-1744.78	  458.80
     12.1700	  716.00	  657.16	-1692.16	  458.70
     12.2700	  642.00	  654.60	-1763.60	  458.60
     12.3700	  653.00	  634.54	-1732.54	  458.50
     12.4700	  645.00	  609.83	-1715.83	  458.39
     12.5700	  583.00	  592.33	-1760.33	  458.28
     12.6700	  570.00	  583.48	-1764.48	  458.16
     12.7700	  554.00	  579.82	-1776.82	  458.04
     12.8700	  574.00	  578.27	-1755.27	  457.92
     12.9700	  604.00	  577.41	-1724.41	  457.79
     13.0700	  542.00	  576.82	-1785.82	  457.66
     13.1700	  587.00	  576.35	-1740.35	  457.52
     13.2700	  543.00	  575.97	-1783.97	  457.38
     13.3700	  569.00	  575.63	-1757.63	  457.24
     13.4700	  573.00	  575.34	-1753.34	  457.09
     13.5700	  553.00	  575.07	-1773.07	  456.94
     13.6700	  570.00	  574.82	-1755.82	  456.79
     13.7700	  536.00	  574.59	-1789.59	  456.63
     13.8700	  592.00	  574.36	-1733.36	  456.47
     13.9700	  588.00	  574.14	-1737.14	  456.30
     14.0700	  589.00	  573.93	-1735.93	  456.13
     14.1700	  545.00	  573.71	-1779.71	  455.96
     14.2700	  526.00	  573.51	-1798.51	  455.79
     14.3700	  562.00	  573.30	-1762.30	  455.61
     14.4700	  595.00	  573.09	-1729.09	  455.43
     14.5700	  547.00	  572.88	-1776.88	  455.25
     14.6700	  597.00	  572.68	-1726.68	  455.06
     14.7700	  604.00	  572.47	-1719.47	  454.87
     14.8700	  600.00	  572.26	-1723.26	  454.67
     14.9700	  564.00	  572.05	-1759.05	  454.48
     15.0700	  547.00	  571.83	-1775.83	  454.28
     15.1700	  590.00	  571.62	-1732.62	  454.07
     15.2700	  544.00	  571.40	-1778.40	  453.87
     15.3700	  581.00	  571.18	-1741.18	  453.66
     15.4700	  540.00	  570.96	-1781.96	  453.45
     15.5700	  586.00	  570.74	-1735.74	  453.24
     15.6700	  579.00	  570.52	-1742.52	  453.02
     15.7700	  544.00	  570.29	-1777.29	  452.80
     15.8700	  577.00	  570.06	-1744.06	  452.58
     15.9700	  592.00	  569.83	-1728.83	  452.35
     16.0700	  588.00	  569.60	-1732.60	  452.12
     16.1700	  607.00	  569.36	-1713.36	  451.89
     16.2700	  577.00	  569.13	-1743.13	  451.66
     16.3700	  579.00	  568.89	-1740.89	  451.43
     16.4700	  598.00	  568.65	-1721.65	  451.19
     16.5700	  574.00	  568.43	-1745.43	  450.95
     16.6700	  539.00	  568.18	-1780.18	  450.71
     16.7700	  514.00	  567.93	-1804.93	  450.46
     16.8700	  586.00	  567.69	-1732.69	  450.21
     16.9700	  560.00	  567.43	-1758.43	  449.97
     17.0700	  544.00	  567.18	-1774.18	  449.71
     17.1700	  554.00	  566.93	-1763.93	  449.46
     17.2700	  538.00	  566.67	-1779.67	  449.20
     17.3700	  534.00	  566.41	-1783.41	  448.95
     17.4700	  522.00	  566.15	-1795.15	  448.69
     17.5700	  568.00	  565.88	-1748.88	  448.42
     17.6700	  587.00	  565.62	-1729.62	  448.16
     17.7700	  536.00	  565.35	-1780.35	  447.89
     17.8700	  571.00	  565.18	-1745.18	  447.63
     17.9700	  623.00	  564.91	-1692.91	  447.36
     18.0700	  529.00	  564.64	-1786.64	  447.08
     18.1700	  557.00	  564.37	-1758.37	  446.81
     18.2700	  538.00	  564.10	-1777.10	  446.53
     18.3700	  591.00	  563.82	-1723.82	  446.26
     18.4700	  569.00	  563.55	-1745.55	  445.98
     18.5700	  545.00	  563.27	-1769.27	  445.70
     18.6700	  581.00	  562.99	-1732.99	  445.41
     18.7700	  530.00	  562.71	-1783.71	  445.13
     18.8700	  558.00	  562.52	-1755.52	  444.84
     18.9700	  513.00	  562.23	-1800.23	  444.56
     19.0700	  579.00	  561.95	-1733.95	  444.27
     19.1700	  556.00	  561.67	-1756.67	  443.98
     19.2700	  552.00	  561.38	-1760.38	  443.69
     19.3700	  570.00	  561.09	-1742.09	  443.39
     19.4700	  546.00	  560.81	-1765.81	  443.10
     19.5700	  506.00	  560.52	-1805.52	  442.80
     19.6700	  579.00	  560.23	-1732.23	  442.50
     19.7700	  566.00	  559.93	-1744.94	  442.21
     19.8700	  580.00	  559.64	-1730.64	  441.91
     19.9700	  539.00	  559.35	-1771.35	  441.60
     20.0700	  532.00	  559.06	-1778.06	  441.30
     20.1700	  582.00	  558.76	-1727.76	  441.00
     20.2700	  535.00	  558.44	-1774.44	  440.69
     20.3700	  540.00	  558.15	-1769.15	  440.39
     20.4700	  531.00	  557.85	-1777.85	  440.08
     20.5700	  582.00	  557.56	-1726.56	  439.77
     20.6700	  571.00	  557.26	-1737.26	  439.46
     20.7700	  523.00	  556.96	-1784.96	  439.15
     20.8700	  541.00	  556.66	-1766.66	  438.84
     20.9700	  556.00	  556.40	-1751.40	  438.53
     21.0700	  561.00	  556.10	-1746.10	  438.21
     21.1700	  527.00	  555.81	-1779.81	  437.90
     21.2700	  577.00	  555.51	-1729.51	  437.59
     21.3700	  591.00	  555.21	-1715.21	  437.27
     21.4700	  513.00	  554.92	-1792.92	  436.95
     21.5700	  543.00	  554.62	-1762.62	  436.64
     21.6700	  548.00	  554.33	-1757.33	  436.32
     21.7700	  547.00	  554.03	-1758.03	  436.00
     21.8700	  576.00	  553.74	-1728.74	  435.68
     21.9700	  543.00	  553.45	-1761.45	  435.36
     22.0700	  507.00	  553.16	-1797.16	  435.04
     22.1700	  548.00	  552.87	-1755.87	  434.72
     22.2700	  559.00	  552.58	-1744.58	  434.39
     22.3700	  534.00	  552.30	-1769.30	  434.07
     22.4700	  583.00	  552.02	-1720.02	  433.75
     22.5700	  525.00	  551.74	-1777.74	  433.42
     22.6700	  579.00	  551.47	-1723.47	  433.10
     22.7700	  526.00	  551.20	-1776.20	  432.77
     22.8700	  595.00	  550.94	-1706.94	  432.45
     22.9700	  576.00	  550.69	-1725.69	  432.12
     23.0700	  549.00	  550.45	-1752.45	  431.80
     23.1700	  553.00	  550.22	-1748.22	  431.47
     23.2700	  567.00	  550.01	-1734.01	  431.14
     23.3700	  573.00	  549.82	-1727.82	  430.81
     23.4700	  612.00	  549.65	-1688.65	  430.49
     23.5700	  606.00	  549.52	-1694.52	  430.16
     23.6700	  509.00	  549.45	-1791.45	  429.83
     23.7700	  538.00	  549.46	-1762.46	  429.50
     23.8700	  598.00	  549.64	-1702.64	  429.17
     23.9700	  547.00	  550.32	-1754.32	  428.85
     24.0700	  553.00	  551.66	-1749.66	  428.52
     24.1700	  567.00	  554.44	-1738.44	  428.19
     24.2700	  547.00	  559.52	-1763.52	  427.86
     24.3700	  584.00	  567.87	-1734.87	  427.53
     24.4700	  602.00	  580.70	-1729.70	  427.20
     24.5700	  605.00	  598.77	-1744.77	  426.87
     24.6700	  604.00	  619.81	-1766.81	  426.54
     24.7700	  637.00	  635.52	-1749.52	  426.21
     24.8700	  605.00	  633.80	-1779.80	  425.88
     24.9700	  625.00	  611.96	-1737.96	  425.55
     25.0700	  591.00	  584.62	-1744.62	  425.22
     25.1700	  595.00	  564.49	-1720.49	  424.90
     25.2700	  577.00	  553.71	-1727.71	  424.57
     25.3700	  565.00	  549.03	-1735.03	  424.24
     25.4700	  525.00	  547.05	-1773.05	  423.91
     25.5700	  565.00	  546.03	-1732.03	  423.58
     25.6700	  543.00	  545.36	-1753.36	  423.25
     25.7700	  566.00	  544.87	-1729.87	  422.92
     25.8700	  563.00	  544.49	-1732.49	  422.60
     25.9700	  517.00	  544.21	-1778.21	  422.27
     26.0700	  585.00	  544.01	-1710.01	  421.94
     26.1700	  554.00	  543.87	-1740.87	  421.62
     26.2700	  560.00	  543.81	-1734.81	  421.29
     26.3700	  544.00	  543.82	-1750.82	  420.96
     26.4700	  545.00	  543.91	-1749.91	  420.64
     26.5700	  545.00	  544.09	-1750.09	  420.31
     26.6700	  554.00	  544.39	-1741.39	  419.99
     26.7700	  543.00	  544.82	-1752.82	  419.66
     26.8700	  593.00	  545.42	-1703.42	  419.34
     26.9700	  618.00	  546.25	-1679.25	  419.01
     27.0700	  536.00	  547.37	-1762.37	  418.69
     27.1700	  566.00	  548.93	-1733.93	  418.37
     27.2700	  583.00	  551.16	-1719.16	  418.04
     27.3700	  546.00	  554.58	-1759.58	  417.72
     27.4700	  580.00	  560.11	-1731.11	  417.40
     27.5700	  557.00	  569.44	-1763.44	  417.08
     27.6700	  567.00	  585.18	-1769.18	  416.76
     27.7700	  618.00	  610.67	-1743.67	  416.44
     27.8700	  642.00	  648.69	-1757.69	  416.12
     27.9700	  655.00	  699.19	-1795.19	  415.80
     28.0700	  798.00	  756.35	-1709.35	  415.49
     28.1700	  829.00	  806.11	-1728.11	  415.17
     28.2700	 1007.00	  827.65	-1571.65	  414.85
     28.3700	  900.00	  809.39	-1660.39	  414.54
     28.4700	  810.00	  772.10	-1713.10	  414.22
     28.5700	  742.00	  749.07	-1758.07	  413.91
     28.6700	  703.00	  755.31	-1803.31	  413.60
     28.7700	  777.00	  785.47	-1759.47	  413.28
     28.8700	  811.00	  818.56	-1758.56	  412.97
     28.9700	  814.00	  824.61	-1761.61	  412.66
     29.0700	  779.00	  784.68	-1756.68	  412.35
     29.1700	  746.00	  716.29	-1721.29	  412.04
     29.2700	  635.00	  651.07	-1767.07	  411.73
     29.3700	  640.00	  604.08	-1715.08	  411.43
     29.4700	  586.00	  575.73	-1740.73	  411.12
     29.5700	  631.00	  560.46	-1680.46	  410.81
     29.6700	  622.00	  552.42	-1681.42	  410.51
     29.7700	  612.00	  547.87	-1686.87	  410.21
     29.8700	  591.00	  545.03	-1705.03	  409.90
     29.9700	  559.00	  543.20	-1735.20	  409.60
     30.0700	  544.00	  542.21	-1749.21	  409.30
     30.1700	  573.00	  542.19	-1720.19	  409.00
     30.2700	  578.00	  543.69	-1716.69	  408.70
     30.3700	  493.00	  547.76	-1805.76	  408.40
     30.4700	  528.00	  556.04	-1779.04	  408.11
     30.5700	  532.00	  570.33	-1789.33	  407.81
     30.6700	  585.00	  591.20	-1757.20	  407.52
     30.7700	  656.00	  616.14	-1711.14	  407.22
     30.8700	  632.00	  638.06	-1757.06	  406.93
     30.9700	  619.00	  645.99	-1777.99	  406.64
     31.0700	  608.00	  632.33	-1775.33	  406.35
     31.1700	  539.00	  604.23	-1816.23	  406.06
     31.2700	  601.00	  576.04	-1726.04	  405.77
     31.3700	  556.00	  555.37	-1750.37	  405.48
     31.4700	  521.00	  542.90	-1772.90	  405.20
     31.5700	  586.00	  536.31	-1701.31	  404.91
     31.6700	  553.00	  532.95	-1730.95	  404.63
     31.7700	  538.00	  531.09	-1744.09	  404.35
     31.8700	  534.00	  529.90	-1746.90	  404.06
     31.9700	  523.00	  529.06	-1757.06	  403.78
     32.0700	  550.00	  528.45	-1729.45	  403.51
     32.1700	  494.00	  528.01	-1785.01	  403.23
     32.2700	  520.00	  527.72	-1758.72	  402.95
     32.3700	  526.00	  527.58	-1752.58	  402.68
     32.4700	  539.00	  527.58	-1739.58	  402.40
     32.5700	  545.00	  527.73	-1733.73	  402.13
     32.6700	  507.00	  528.07	-1772.07	  401.86
     32.7700	  546.00	  528.62	-1733.62	  401.59
     32.8700	  578.00	  529.46	-1702.46	  401.32
     32.9700	  555.00	  530.67	-1726.67	  401.05
     33.0700	  548.00	  532.46	-1735.46	  400.79
     33.1700	  538.00	  535.21	-1748.21	  400.52
     33.2700	  544.00	  539.86	-1746.86	  400.26
     33.3700	  553.00	  548.56	-1746.56	  400.00
     33.4700	  547.00	  565.46	-1769.46	  399.74
     33.5700	  590.00	  597.44	-1758.44	  399.48
     33.6700	  679.00	  652.78	-1724.78	  399.22
     33.7700	  730.00	  735.89	-1756.89	  398.97
     33.8700	  889.00	  838.47	-1700.47	  398.71
     33.9700	  985.00	  933.23	-1699.23	  398.46
     34.0700	 1090.00	  977.11	-1638.11	  398.21
     34.1700	 1020.00	  937.16	-1668.16	  397.96
     34.2700	  886.00	  833.87	-1698.87	  397.71
     34.3700	  761.00	  721.91	-1711.91	  397.46
     34.4700	  636.00	  635.66	-1750.66	  397.21
     34.5700	  591.00	  582.21	-1742.21	  396.97
     34.6700	  569.00	  553.90	-1735.90	  396.73
     34.7700	  591.00	  540.03	-1700.03	  396.48
     34.8700	  531.00	  532.92	-1752.92	  396.24
     34.9700	  531.00	  528.70	-1748.70	  396.01
     35.0700	  522.00	  525.78	-1754.78	  395.77
     35.1700	  535.00	  523.57	-1739.57	  395.53
     35.2700	  514.00	  521.82	-1758.82	  395.30
     35.3700	  513.00	  520.39	-1758.39	  395.07
     35.4700	  506.00	  519.19	-1764.19	  394.84
     35.5700	  551.00	  518.20	-1718.20	  394.61
     35.6700	  520.00	  517.33	-1748.33	  394.38
     35.7700	  516.00	  516.57	-1751.57	  394.15
     35.8700	  489.00	  516.38	-1778.38	  393.93
     35.9700	  482.00	  515.79	-1784.79	  393.70
     36.0700	  516.00	  515.26	-1750.26	  393.48
     36.1700	  497.00	  514.78	-1768.78	  393.26
     36.2700	  505.00	  514.34	-1760.34	  393.05
     36.3700	  492.00	  513.94	-1772.94	  392.83
     36.4700	  503.00	  513.58	-1761.58	  392.61
     36.5700	  513.00	  513.25	-1751.25	  392.40
     36.6700	  491.00	  512.95	-1772.95	  392.19
     36.7700	  536.00	  512.69	-1727.69	  391.98
     36.8700	  493.00	  512.49	-1770.49	  391.77
     36.9700	  546.00	  512.38	-1717.39	  391.56
     37.0700	  511.00	  512.48	-1752.48	  391.36
     37.1700	  506.00	  512.98	-1757.98	  391.15
     37.2700	  519.00	  514.26	-1746.26	  390.95
     37.3700	  527.00	  516.74	-1740.74	  390.75
     37.4700	  526.00	  520.58	-1745.58	  390.55
     37.5700	  518.00	  525.31	-1758.31	  390.36
     37.6700	  526.00	  529.59	-1754.59	  390.16
     37.7700	  535.00	  531.74	-1747.74	  389.97
     37.8700	  522.00	  531.03	-1760.03	  389.77
     37.9700	  539.00	  528.41	-1740.41	  389.58
     38.0700	  536.00	  524.88	-1739.88	  389.40
     38.1700	  501.00	  520.83	-1770.83	  389.21
     38.2700	  523.00	  516.82	-1744.82	  389.02
     38.3700	  536.00	  513.53	-1728.53	  388.84
     38.4700	  520.00	  511.18	-1742.18	  388.66
     38.5700	  540.00	  509.69	-1720.69	  388.48
     38.6700	  509.00	  508.81	-1750.81	  388.30
     38.7700	  501.00	  508.27	-1758.27	  388.12
     38.8700	  484.00	  507.81	-1774.81	  387.95
     38.9700	  509.00	  507.52	-1749.52	  387.78
     39.0700	  488.00	  507.28	-1770.28	  387.60
     39.1700	  491.00	  507.06	-1767.06	  387.44
     39.2700	  501.00	  506.77	-1756.77	  387.27
     39.3700	  539.00	  506.59	-1718.59	  387.10
     39.4700	  502.00	  506.41	-1755.41	  386.94
     39.5700	  542.00	  506.25	-1715.25	  386.77
     39.6700	  472.00	  506.10	-1785.10	  386.61
     39.7700	  459.00	  505.96	-1797.96	  386.45
     39.8700	  489.00	  505.94	-1767.94	  386.30
     39.9700	  475.00	  505.82	-1781.82	  386.14
     40.0700	  503.00	  505.71	-1753.71	  385.99
     40.1700	  485.00	  505.61	-1771.61	  385.83
     40.2700	  489.00	  505.52	-1767.52	  385.68
     40.3700	  513.00	  505.44	-1743.44	  385.54
     40.4700	  489.00	  505.37	-1767.37	  385.39
     40.5700	  519.00	  505.32	-1737.32	  385.24
     40.6700	  463.00	  505.28	-1793.28	  385.10
     40.7700	  481.00	  505.27	-1775.27	  384.96
     40.8700	  525.00	  505.27	-1731.27	  384.82
     40.9700	  536.00	  505.30	-1720.30	  384.68
     41.0700	  502.00	  505.36	-1754.36	  384.54
     41.1700	  509.00	  505.43	-1747.43	  384.41
     41.2700	  499.00	  505.58	-1757.58	  384.28
     41.3700	  495.00	  505.79	-1761.79	  384.15
     41.4700	  535.00	  506.07	-1722.07	  384.02
     41.5700	  550.00	  506.47	-1707.47	  383.89
     41.6700	  509.00	  507.03	-1749.03	  383.76
     41.7700	  472.00	  508.28	-1787.28	  383.64
     41.8700	  522.00	  509.70	-1738.70	  383.52
     41.9700	  528.00	  512.36	-1735.36	  383.40
     42.0700	  535.00	  517.68	-1733.68	  383.28
     42.1700	  539.00	  528.14	-1740.14	  383.16
     42.2700	  470.00	  546.64	-1827.64	  383.05
     42.3700	  494.00	  575.33	-1832.33	  382.93
     42.4700	  583.00	  612.58	-1780.58	  382.82
     42.5700	  608.00	  650.53	-1793.53	  382.71
     42.6700	  628.00	  675.69	-1798.69	  382.60
     42.7700	  604.00	  674.85	-1821.85	  382.50
     42.8700	  591.00	  647.62	-1807.62	  382.39
     42.9700	  595.00	  607.94	-1763.94	  382.29
     43.0700	  509.00	  570.42	-1812.42	  382.19
     43.1700	  534.00	  542.47	-1759.47	  382.09
     43.2700	  504.00	  525.07	-1772.07	  381.99
     43.3700	  498.00	  515.66	-1768.66	  381.90
     43.4700	  518.00	  510.98	-1743.98	  381.81
     43.5700	  496.00	  508.63	-1763.63	  381.71
     43.6700	  511.00	  507.33	-1747.33	  381.62
     43.7700	  482.00	  506.67	-1775.67	  381.53
     43.8700	  527.00	  506.07	-1730.07	  381.45
     43.9700	  479.00	  505.61	-1777.61	  381.36
     44.0700	  512.00	  505.26	-1744.26	  381.28
     44.1700	  520.00	  504.99	-1735.99	  381.20
     44.2700	  521.00	  504.77	-1734.77	  381.12
     44.3700	  573.00	  504.64	-1682.64	  381.04
     44.4700	  525.00	  504.41	-1730.41	  380.97
     44.5700	  453.00	  504.33	-1802.33	  380.89
     44.6700	  508.00	  504.28	-1747.28	  380.82
     44.7700	  499.00	  504.25	-1756.25	  380.75
     44.8700	  487.00	  504.25	-1768.25	  380.68
     44.9700	  495.00	  504.28	-1760.28	  380.61
     45.0700	  482.00	  504.33	-1773.33	  380.55
     45.1700	  509.00	  504.39	-1746.39	  380.48
     45.2700	  521.00	  504.66	-1734.66	  380.42
     45.3700	  543.00	  504.77	-1712.77	  380.36
     45.4700	  519.00	  504.91	-1736.91	  380.30
     45.5700	  497.00	  505.06	-1759.06	  380.24
     45.6700	  510.00	  505.24	-1746.24	  380.19
     45.7700	  517.00	  505.45	-1739.45	  380.13
     45.8700	  516.00	  505.68	-1740.68	  380.08
     45.9700	  477.00	  505.94	-1779.94	  380.03
     46.0700	  499.00	  506.23	-1758.23	  379.98
     46.1700	  497.00	  506.56	-1760.56	  379.94
     46.2700	  500.00	  506.92	-1757.92	  379.89
     46.3700	  515.00	  507.34	-1743.34	  379.85
     46.4700	  498.00	  507.80	-1760.80	  379.81
     46.5700	  534.00	  508.32	-1725.32	  379.77
     46.6700	  495.00	  508.92	-1764.92	  379.73
     46.7700	  507.00	  509.61	-1753.61	  379.69
     46.8700	  500.00	  510.44	-1761.44	  379.66
     46.9700	  524.00	  511.48	-1738.48	  379.62
     47.0700	  533.00	  512.95	-1730.95	  379.59
     47.1700	  513.00	  515.26	-1753.26	  379.56
     47.2700	  528.00	  519.20	-1742.20	  379.54
     47.3700	  517.00	  525.83	-1759.83	  379.51
     47.4700	  534.00	  536.38	-1753.38	  379.48
     47.5700	  531.00	  551.13	-1771.13	  379.46
     47.6700	  583.00	  568.87	-1736.87	  379.44
     47.7700	  569.00	  585.98	-1767.98	  379.42
     47.8700	  591.00	  597.04	-1757.04	  379.40
     47.9700	  591.00	  597.53	-1757.53	  379.38
     48.0700	  600.00	  587.89	-1738.89	  379.37
     48.1700	  613.00	  573.35	-1711.35	  379.36
     48.2700	  549.00	  559.42	-1761.42	  379.34
     48.3700	  527.00	  549.31	-1773.31	  379.33
     48.4700	  529.00	  543.98	-1765.98	  379.33
     48.5700	  525.00	  542.79	-1768.79	  379.32
     48.6700	  545.00	  544.69	-1750.69	  379.31
     48.7700	  595.00	  548.83	-1704.83	  379.31
     48.8700	  525.00	  554.81	-1780.81	  379.31
     48.9700	  546.00	  562.77	-1767.77	  379.31
     49.0700	  581.00	  573.47	-1743.47	  379.31
     49.1700	  593.00	  588.67	-1746.67	  379.31
     49.2700	  618.00	  612.01	-1745.01	  379.31
     49.3700	  651.00	  650.27	-1750.27	  379.32
     49.4700	  765.00	  714.72	-1700.72	  379.33
     49.5700	  773.00	  821.22	-1799.22	  379.34
     49.6700	  931.00	  987.74	-1807.74	  379.35
     49.7700	 1116.00	 1226.52	-1861.52	  379.36
     49.8700	 1437.00	 1535.34	-1849.34	  379.37
     49.9700	 1843.00	 1885.02	-1793.02	  379.39
     50.0700	 2197.00	 2210.87	-1764.87	  379.40
     50.1700	 2485.00	 2417.17	-1683.17	  379.42
     50.2700	 2488.00	 2419.33	-1682.33	  379.44
     50.3700	 2262.00	 2214.13	-1703.13	  379.46
     50.4700	 1922.00	 1886.76	-1715.76	  379.48
     50.5700	 1383.00	 1537.38	-1905.38	  379.51
     50.6700	 1044.00	 1232.26	-1939.26	  379.53
     50.7700	  818.00	 1000.46	-1933.46	  379.56
     50.8700	  713.00	  843.88	-1881.88	  379.59
     50.9700	  615.00	  748.11	-1884.11	  379.62
     51.0700	  600.00	  692.74	-1843.74	  379.65
     51.1700	  673.00	  658.94	-1736.94	  379.68
     51.2700	  593.00	  633.88	-1791.88	  379.72
     51.3700	  576.00	  612.06	-1787.06	  379.75
     51.4700	  593.00	  592.77	-1750.77	  379.79
     51.5700	  584.00	  576.75	-1743.75	  379.83
     51.6700	  574.00	  564.49	-1741.49	  379.87
     51.7700	  569.00	  555.76	-1737.76	  379.91
     51.8700	  572.00	  549.85	-1728.85	  379.95
     51.9700	  533.00	  545.94	-1763.94	  379.99
     52.0700	  552.00	  543.39	-1742.39	  380.04
     52.1700	  523.00	  541.81	-1769.81	  380.09
     52.2700	  553.00	  541.06	-1739.06	  380.13
     52.3700	  549.00	  541.17	-1743.17	  380.18
     52.4700	  538.00	  542.67	-1755.67	  380.23
     52.5700	  557.00	  545.93	-1739.93	  380.29
     52.6700	  604.00	  553.00	-1700.00	  380.34
     52.7700	  594.00	  567.47	-1724.47	  380.39
     52.8700	  614.00	  595.29	-1732.29	  380.45
     52.9700	  683.00	  644.43	-1712.43	  380.51
     53.0700	  770.00	  722.42	-1703.42	  380.57
     53.1700	  899.00	  831.67	-1683.67	  380.63
     53.2700	 1007.00	  963.86	-1707.86	  380.69
     53.3700	 1186.00	 1096.19	-1661.19	  380.75
     53.4700	 1167.00	 1193.04	-1777.04	  380.81
     53.5700	 1182.00	 1218.40	-1787.40	  380.88
     53.6700	 1059.00	 1160.62	-1852.62	  380.95
     53.7700	  986.00	 1043.88	-1808.88	  381.01
     53.8700	  844.00	  907.43	-1814.43	  381.08
     53.9700	  735.00	  782.69	-1798.69	  381.15
     54.0700	  677.00	  686.29	-1760.29	  381.22
     54.1700	  579.00	  621.40	-1793.40	  381.30
     54.2700	  633.00	  582.63	-1700.63	  381.37
     54.3700	  599.00	  561.76	-1713.76	  381.45
     54.4700	  567.00	  551.39	-1735.39	  381.52
     54.5700	  543.00	  546.54	-1754.54	  381.60
     54.6700	  542.00	  544.46	-1753.46	  381.68
     54.7700	  561.00	  543.85	-1733.85	  381.76
     54.8700	  571.00	  544.15	-1724.15	  381.84
     54.9700	  534.00	  545.17	-1762.17	  381.92
     55.0700	  584.00	  546.85	-1713.85	  382.00
     55.1700	  549.00	  549.20	-1751.20	  382.09
     55.2700	  548.00	  552.30	-1755.30	  382.17
     55.3700	  531.00	  556.25	-1776.25	  382.26
     55.4700	  575.00	  561.28	-1737.28	  382.35
     55.5700	  554.00	  567.72	-1764.72	  382.44
     55.6700	  574.00	  576.31	-1753.31	  382.53
     55.7700	  581.00	  588.58	-1758.58	  382.62
     55.8700	  646.00	  607.67	-1712.67	  382.71
     55.9700	  585.00	  639.56	-1805.56	  382.80
     56.0700	  652.00	  694.49	-1793.49	  382.90
     56.1700	  733.00	  787.68	-1805.68	  382.99
     56.2700	  903.00	  937.75	-1785.75	  383.09
     56.3700	 1086.00	 1161.54	-1826.54	  383.18
     56.4700	 1349.00	 1465.20	-1867.20	  383.28
     56.5700	 1759.00	 1833.59	-1825.59	  383.38
     56.6700	 2100.00	 2222.12	-1873.12	  383.48
     56.7700	 2486.00	 2554.11	-1819.11	  383.58
     56.8700	 2664.00	 2734.83	-1821.83	  383.68
     56.9700	 2683.00	 2697.52	-1765.52	  383.79
     57.0700	 2360.00	 2456.61	-1847.61	  383.89
     57.1700	 2026.00	 2096.13	-1821.13	  384.00
     57.2700	 1715.00	 1709.37	-1745.37	  384.10
     57.3700	 1316.00	 1362.67	-1797.67	  384.21
     57.4700	 1044.00	 1089.83	-1796.83	  384.32
     57.5700	  949.00	  897.72	-1699.72	  384.43
     57.6700	  802.00	  775.64	-1724.64	  384.54
     57.7700	  750.00	  706.04	-1707.04	  384.65
     57.8700	  698.00	  672.37	-1725.37	  384.76
     57.9700	  703.00	  663.04	-1711.04	  384.87
     58.0700	  722.00	  671.99	-1700.99	  384.98
     58.1700	  699.00	  697.25	-1749.25	  385.10
     58.2700	  798.00	  738.95	-1691.95	  385.21
     58.3700	  837.00	  797.48	-1711.48	  385.33
     58.4700	  989.00	  871.69	-1633.69	  385.44
     58.5700	 1072.00	  957.31	-1636.31	  385.56
     58.6700	 1283.00	 1046.27	-1514.27	  385.68
     58.7700	 1416.00	 1128.88	-1463.88	  385.80
     58.8700	 1488.00	 1198.06	-1461.06	  385.92
     58.9700	 1623.00	 1249.35	-1377.35	  386.04
     59.0700	 1618.00	 1277.04	-1410.04	  386.16
     59.1700	 1523.00	 1276.17	-1504.17	  386.28
     59.2700	 1483.00	 1250.63	-1518.63	  386.40
     59.3700	 1371.00	 1213.58	-1593.58	  386.53
     59.4700	 1257.00	 1178.73	-1672.73	  386.65
     59.5700	 1135.00	 1155.05	-1771.05	  386.77
     59.6700	 1093.00	 1149.23	-1807.23	  386.90
     59.7700	 1147.00	 1168.95	-1772.95	  387.03
     59.8700	 1196.00	 1219.58	-1774.58	  387.15
     59.9700	 1329.00	 1297.90	-1719.90	  387.28
     60.0700	 1463.00	 1388.53	-1676.53	  387.41
     60.1700	 1486.00	 1464.10	-1729.10	  387.54
     60.2700	 1573.00	 1492.12	-1670.12	  387.67
     60.3700	 1519.00	 1451.76	-1683.76	  387.80
     60.4700	 1461.00	 1348.78	-1638.78	  387.93
     60.5700	 1271.00	 1209.36	-1689.36	  388.06
     60.6700	 1112.00	 1062.12	-1701.12	  388.19
     60.7700	  880.00	  928.05	-1799.05	  388.32
     60.8700	  760.00	  819.15	-1810.15	  388.46
     60.9700	  698.00	  739.58	-1792.58	  388.59
     61.0700	  609.00	  688.29	-1830.29	  388.72
     61.1700	  635.00	  662.03	-1778.03	  388.86
     61.2700	  636.00	  658.10	-1773.10	  388.99
     61.3700	  608.00	  676.06	-1819.06	  389.13
     61.4700	  674.00	  717.97	-1794.97	  389.27
     61.5700	  731.00	  787.14	-1807.14	  389.40
     61.6700	  848.00	  885.76	-1788.76	  389.54
     61.7700	  996.00	 1011.76	-1766.76	  389.68
     61.8700	 1036.00	 1156.14	-1871.14	  389.82
     61.9700	 1250.00	 1301.16	-1802.16	  389.95
     62.0700	 1334.00	 1420.28	-1837.28	  390.09
     62.1700	 1411.00	 1483.19	-1823.19	  390.23
     62.2700	 1397.00	 1469.41	-1823.41	  390.37
     62.3700	 1324.00	 1383.03	-1810.03	  390.51
     62.4700	 1203.00	 1249.49	-1797.49	  390.65
     62.5700	 1020.00	 1099.12	-1830.12	  390.80
     62.6700	  854.00	  955.69	-1852.69	  390.94
     62.7700	  765.00	  833.85	-1819.85	  391.08
     62.8700	  664.00	  739.63	-1826.63	  391.22
     62.9700	  647.00	  672.54	-1776.54	  391.36
     63.0700	  567.00	  628.10	-1812.10	  391.51
     63.1700	  590.00	  600.44	-1761.44	  391.65
     63.2700	  584.00	  584.14	-1751.14	  391.79
     63.3700	  576.00	  575.19	-1750.19	  391.94
     63.4700	  593.00	  571.15	-1729.15	  392.08
     63.5700	  617.00	  571.11	-1705.11	  392.23
     63.6700	  578.00	  575.39	-1748.39	  392.37
     63.7700	  590.00	  585.33	-1746.33	  392.52
     63.8700	  602.00	  603.02	-1752.02	  392.66
     63.9700	  693.00	  630.77	-1688.77	  392.81
     64.0700	  716.00	  670.28	-1705.28	  392.95
     64.1700	  790.00	  721.63	-1682.63	  393.10
     64.2700	  753.00	  782.29	-1780.29	  393.25
     64.3700	  902.00	  846.38	-1695.38	  393.39
     64.4700	  901.00	  904.72	-1754.72	  393.54
     64.5700	  959.00	  946.09	-1738.09	  393.68
     64.6700	 1041.00	  961.49	-1671.49	  393.83
     64.7700	  972.00	  947.97	-1726.97	  393.98
     64.8700	  928.00	  911.24	-1734.24	  394.13
     64.9700	  908.00	  859.87	-1702.87	  394.27
     65.0700	  847.00	  803.79	-1707.79	  394.42
     65.1700	  783.00	  750.99	-1718.99	  394.57
     65.2700	  757.00	  705.94	-1699.94	  394.72
     65.3700	  684.00	  669.69	-1736.69	  394.86
     65.4700	  642.00	  641.19	-1750.19	  395.01
     65.5700	  617.00	  618.77	-1752.77	  395.16
     65.6700	  572.00	  601.14	-1780.14	  395.31
     65.7700	  610.00	  587.45	-1728.45	  395.46
     65.8700	  600.00	  577.16	-1728.16	  395.60
     65.9700	  564.00	  569.85	-1756.85	  395.75
     66.0700	  530.00	  565.16	-1786.16	  395.90
     66.1700	  563.00	  562.69	-1750.69	  396.05
     66.2700	  523.00	  562.05	-1790.05	  396.20
     66.3700	  525.00	  562.92	-1788.92	  396.34
     66.4700	  548.00	  565.07	-1768.07	  396.49
     66.5700	  573.00	  568.52	-1746.52	  396.64
     66.6700	  554.00	  573.57	-1770.57	  396.79
     66.7700	  554.00	  580.99	-1777.99	  396.94
     66.8700	  546.00	  592.46	-1797.46	  397.08
     66.9700	  625.00	  610.55	-1736.55	  397.23
     67.0700	  592.00	  639.86	-1798.86	  397.38
     67.1700	  704.00	  686.96	-1733.96	  397.53
     67.2700	  753.00	  760.40	-1758.40	  397.67
     67.3700	  846.00	  869.50	-1774.50	  397.82
     67.4700	 1049.00	 1022.61	-1724.61	  397.97
     67.5700	 1233.00	 1223.24	-1741.24	  398.11
     67.6700	 1505.00	 1466.51	-1712.51	  398.26
     67.7700	 1748.00	 1736.67	-1739.67	  398.41
     67.8700	 2062.00	 2005.07	-1694.07	  398.55
     67.9700	 2334.00	 2231.33	-1648.33	  398.70
     68.0700	 2383.00	 2369.56	-1737.56	  398.85
     68.1700	 2418.00	 2384.71	-1717.71	  398.99
     68.2700	 2266.00	 2272.48	-1757.48	  399.14
     68.3700	 2059.00	 2062.47	-1754.47	  399.28
     68.4700	 1859.00	 1800.01	-1692.01	  399.43
     68.5700	 1626.00	 1527.66	-1652.66	  399.57
     68.6700	 1221.00	 1276.86	-1806.86	  399.72
     68.7700	 1067.00	 1066.28	-1750.28	  399.86
     68.8700	  872.00	  902.98	-1781.98	  400.01
     68.9700	  720.00	  785.03	-1816.03	  400.15
     69.0700	  689.00	  704.85	-1766.85	  400.29
     69.1700	  577.00	  653.15	-1827.15	  400.44
     69.2700	  598.00	  620.98	-1773.98	  400.58
     69.3700	  584.00	  601.32	-1768.32	  400.72
     69.4700	  625.00	  589.22	-1715.22	  400.86
     69.5700	  613.00	  581.54	-1719.54	  401.00
     69.6700	  598.00	  576.46	-1729.46	  401.15
     69.7700	  557.00	  572.97	-1766.97	  401.29
     69.8700	  575.00	  570.56	-1746.56	  401.43
     69.9700	  614.00	  568.96	-1705.96	  401.57
     70.0700	  546.00	  568.05	-1773.05	  401.71
     70.1700	  572.00	  567.79	-1746.79	  401.85
     70.2700	  604.00	  568.18	-1715.18	  401.98
     70.3700	  577.00	  569.33	-1743.33	  402.12
     70.4700	  535.00	  571.41	-1787.41	  402.26
     70.5700	  584.00	  574.84	-1741.84	  402.40
     70.6700	  569.00	  580.41	-1762.41	  402.53
     70.7700	  608.00	  589.52	-1732.52	  402.67
     70.8700	  566.00	  604.46	-1789.46	  402.81
     70.9700	  584.00	  628.65	-1795.65	  402.94
     71.0700	  656.00	  666.86	-1761.86	  403.08
     71.1700	  731.00	  724.95	-1744.95	  403.21
     71.2700	  780.00	  809.03	-1780.03	  403.34
     71.3700	  962.00	  924.89	-1713.89	  403.48
     71.4700	 1044.00	 1072.57	-1779.57	  403.61
     71.5700	 1163.00	 1249.42	-1837.42	  403.74
     71.6700	 1361.00	 1445.04	-1835.04	  403.87
     71.7700	 1602.00	 1641.33	-1790.33	  404.00
     71.8700	 1771.00	 1813.17	-1793.17	  404.14
     71.9700	 1899.00	 1931.41	-1783.41	  404.26
     72.0700	 1896.00	 1971.03	-1826.03	  404.39
     72.1700	 1931.00	 1922.62	-1742.62	  404.52
     72.2700	 1818.00	 1797.66	-1730.66	  404.65
     72.3700	 1722.00	 1623.18	-1652.18	  404.78
     72.4700	 1578.00	 1427.67	-1600.67	  404.90
     72.5700	 1382.00	 1235.30	-1604.30	  405.03
     72.6700	 1205.00	 1062.93	-1608.93	  405.15
     72.7700	 1069.00	  919.82	-1601.82	  405.28
     72.8700	  984.00	  808.55	-1575.55	  405.40
     72.9700	  856.00	  726.76	-1621.76	  405.52
     73.0700	  779.00	  669.43	-1641.43	  405.65
     73.1700	  771.00	  630.70	-1610.70	  405.77
     73.2700	  679.00	  605.14	-1677.14	  405.89
     73.3700	  661.00	  588.42	-1678.42	  406.01
     73.4700	  632.00	  577.40	-1696.40	  406.13
     73.5700	  590.00	  570.06	-1731.06	  406.25
     73.6700	  562.00	  565.15	-1754.15	  406.36
     73.7700	  606.00	  561.95	-1706.95	  406.48
     73.8700	  545.00	  560.06	-1766.06	  406.60
     73.9700	  602.00	  559.22	-1708.22	  406.71
     74.0700	  573.00	  559.27	-1737.27	  406.83
     74.1700	  616.00	  560.02	-1695.02	  406.94
     74.2700	  664.00	  561.24	-1648.24	  407.05
     74.3700	  592.00	  562.64	-1721.64	  407.17
     74.4700	  652.00	  563.85	-1662.85	  407.28
     74.5700	  616.00	  564.52	-1699.52	  407.39
     74.6700	  582.00	  564.33	-1733.33	  407.50
     74.7700	  634.00	  563.18	-1680.18	  407.60
     74.8700	  629.00	  561.23	-1683.23	  407.71
     74.9700	  602.00	  558.79	-1707.79	  407.82
     75.0700	  566.00	  556.31	-1741.31	  407.92
     75.1700	  576.00	  554.20	-1729.20	  408.03
     75.2700	  546.00	  552.84	-1757.84	  408.13
     75.3700	  596.00	  552.60	-1707.60	  408.23
     75.4700	  579.00	  554.02	-1726.02	  408.34
     75.5700	  552.00	  557.56	-1756.56	  408.44
     75.6700	  595.00	  563.62	-1719.62	  408.54
     75.7700	  632.00	  572.91	-1691.91	  408.64
     75.8700	  567.00	  585.67	-1769.67	  408.73
     75.9700	  639.00	  601.95	-1713.95	  408.83
     76.0700	  615.00	  621.29	-1757.29	  408.93
     76.1700	  645.00	  642.64	-1748.64	  409.02
     76.2700	  696.00	  664.26	-1719.26	  409.12
     76.3700	  719.00	  683.80	-1715.80	  409.21
     76.4700	  676.00	  698.54	-1773.54	  409.30
     76.5700	  719.00	  705.89	-1737.90	  409.39
     76.6700	  651.00	  704.35	-1804.35	  409.48
     76.7700	  705.00	  694.22	-1740.22	  409.57
     76.8700	  627.00	  677.46	-1801.46	  409.66
     76.9700	  604.00	  656.59	-1803.59	  409.75
     77.0700	  623.00	  634.61	-1762.61	  409.83
     77.1700	  597.00	  613.49	-1767.49	  409.91
     77.2700	  589.00	  594.73	-1756.73	  410.00
     77.3700	  535.00	  579.13	-1795.13	  410.08
     77.4700	  538.00	  566.91	-1779.91	  410.16
     77.5700	  579.00	  557.86	-1729.86	  410.24
     77.6700	  542.00	  551.48	-1760.48	  410.32
     77.7700	  536.00	  547.18	-1762.18	  410.40
     77.8700	  529.00	  544.38	-1766.38	  410.47
     77.9700	  541.00	  542.61	-1752.61	  410.55
     78.0700	  500.00	  541.51	-1792.51	  410.62
     78.1700	  535.00	  540.84	-1756.84	  410.70
     78.2700	  563.00	  540.43	-1728.43	  410.77
     78.3700	  510.00	  540.19	-1781.19	  410.84
     78.4700	  538.00	  540.07	-1753.07	  410.91
     78.5700	  543.00	  540.04	-1748.04	  410.98
     78.6700	  493.00	  540.10	-1798.10	  411.04
     78.7700	  551.00	  540.25	-1740.25	  411.11
     78.8700	  533.00	  540.50	-1758.50	  411.17
     78.9700	  508.00	  540.90	-1783.90	  411.24
     79.0700	  529.00	  541.47	-1763.47	  411.30
     79.1700	  553.00	  542.26	-1740.26	  411.36
     79.2700	  500.00	  543.17	-1794.17	  411.42
     79.3700	  500.00	  544.60	-1795.60	  411.48
     79.4700	  546.00	  546.47	-1751.47	  411.53
     79.5700	  529.00	  548.85	-1770.85	  411.59
     79.6700	  508.00	  551.85	-1794.85	  411.64
     79.7700	  528.00	  555.58	-1778.58	  411.70
     79.8700	  527.00	  560.21	-1784.21	  411.75
     79.9700	  574.00	  565.91	-1742.91	  411.80
     80.0700	  536.00	  572.90	-1787.90	  411.85
     80.1700	  541.00	  581.46	-1791.46	  411.90
     80.2700	  579.00	  591.85	-1763.85	  411.94
     80.3700	  538.00	  604.31	-1817.31	  411.99
     80.4700	  656.00	  618.88	-1713.88	  412.03
     80.5700	  622.00	  635.38	-1764.38	  412.07
     80.6700	  628.00	  653.26	-1776.26	  412.12
     80.7700	  680.00	  671.63	-1742.63	  412.16
     80.8700	  659.00	  689.24	-1781.24	  412.19
     80.9700	  656.00	  704.70	-1799.70	  412.23
     81.0700	  708.00	  716.76	-1759.76	  412.27
     81.1700	  721.00	  724.54	-1754.54	  412.30
     81.2700	  750.00	  727.54	-1728.54	  412.33
     81.3700	  749.00	  725.66	-1727.66	  412.37
     81.4700	  774.00	  719.22	-1696.22	  412.40
     81.5700	  756.00	  708.89	-1703.89	  412.42
     81.6700	  757.00	  695.50	-1689.50	  412.45
     81.7700	  759.00	  679.96	-1671.96	  412.48
     81.8700	  735.00	  663.13	-1679.13	  412.50
     81.9700	  705.00	  646.06	-1692.06	  412.52
     82.0700	  702.00	  629.60	-1678.60	  412.55
     82.1700	  660.00	  614.40	-1705.40	  412.57
     82.2700	  599.00	  600.89	-1752.89	  412.59
     82.3700	  586.00	  589.24	-1754.24	  412.60
     82.4700	  612.00	  579.52	-1718.52	  412.62
     82.5700	  621.00	  571.66	-1701.66	  412.63
     82.6700	  611.00	  565.62	-1705.62	  412.65
     82.7700	  575.00	  561.27	-1737.27	  412.66
     82.8700	  535.00	  558.49	-1774.49	  412.67
     82.9700	  546.00	  557.18	-1762.18	  412.67
     83.0700	  569.00	  557.26	-1739.26	  412.68
     83.1700	  538.00	  558.62	-1771.62	  412.69
     83.2700	  545.00	  561.16	-1767.16	  412.69
     83.3700	  522.00	  564.73	-1793.73	  412.69
     83.4700	  560.00	  569.11	-1760.11	  412.69
     83.5700	  566.00	  573.98	-1758.98	  412.69
     83.6700	  556.00	  578.93	-1773.94	  412.69
     83.7700	  535.00	  583.49	-1799.49	  412.69
     83.8700	  568.00	  587.10	-1770.10	  412.68
     83.9700	  569.00	  589.24	-1771.24	  412.68
     84.0700	  560.00	  589.53	-1780.53	  412.67
     84.1700	  540.00	  587.89	-1798.89	  412.66
     84.2700	  540.00	  584.54	-1795.54	  412.65
     84.3700	  560.00	  579.93	-1770.93	  412.63
     84.4700	  596.00	  574.59	-1729.59	  412.62
     84.5700	  510.00	  569.00	-1810.00	  412.60
     84.6700	  560.00	  563.55	-1754.55	  412.59
     84.7700	  517.00	  558.56	-1792.56	  412.57
     84.8700	  580.00	  554.21	-1725.21	  412.55
     84.9700	  528.00	  550.59	-1773.59	  412.52
     85.0700	  579.00	  547.70	-1719.70	  412.50
     85.1700	  512.00	  545.52	-1784.52	  412.48
     85.2700	  496.00	  543.94	-1798.94	  412.45
     85.3700	  504.00	  542.87	-1789.87	  412.42
     85.4700	  534.00	  542.21	-1759.21	  412.39
     85.5700	  531.00	  541.89	-1761.89	  412.36
     85.6700	  541.00	  541.85	-1751.85	  412.32
     85.7700	  545.00	  542.08	-1748.08	  412.29
     85.8700	  535.00	  542.57	-1758.57	  412.25
     85.9700	  466.00	  543.37	-1828.38	  412.22
     86.0700	  521.00	  544.57	-1774.57	  412.18
     86.1700	  520.00	  546.27	-1777.27	  412.13
     86.2700	  538.00	  548.61	-1761.61	  412.09
     86.3700	  557.00	  551.74	-1745.74	  412.05
     86.4700	  552.00	  555.84	-1754.84	  412.00
     86.5700	  556.00	  561.01	-1756.01	  411.95
     86.6700	  573.00	  567.04	-1745.04	  411.90
     86.7700	  585.00	  574.46	-1740.46	  411.85
     86.8700	  590.00	  582.79	-1743.79	  411.80
     86.9700	  553.00	  591.68	-1789.68	  411.75
     87.0700	  595.00	  600.63	-1756.63	  411.69
     87.1700	  631.00	  608.98	-1728.98	  411.63
     87.2700	  633.00	  615.99	-1733.99	  411.58
     87.3700	  676.00	  620.90	-1695.90	  411.52
     87.4700	  696.00	  623.12	-1678.12	  411.45
     87.5700	  651.00	  622.35	-1722.35	  411.39
     87.6700	  634.00	  618.77	-1735.77	  411.32
     87.7700	  657.00	  612.92	-1706.92	  411.26
     87.8700	  671.00	  605.60	-1685.60	  411.19
     87.9700	  629.00	  597.67	-1719.67	  411.12
     88.0700	  626.00	  589.92	-1714.92	  411.05
     88.1700	  680.00	  583.05	-1654.05	  410.97
     88.2700	  570.00	  577.61	-1758.61	  410.90
     88.3700	  587.00	  573.96	-1737.96	  410.82
     88.4700	  532.00	  572.30	-1791.30	  410.74
     88.5700	  569.00	  572.65	-1754.65	  410.66
     88.6700	  578.00	  574.87	-1747.87	  410.58
     88.7700	  619.00	  578.69	-1710.69	  410.50
     88.8700	  584.00	  583.71	-1750.71	  410.41
     88.9700	  597.00	  589.43	-1743.43	  410.33
     89.0700	  594.00	  595.27	-1752.27	  410.24
     89.1700	  629.00	  600.60	-1722.60	  410.15
     89.2700	  609.00	  604.79	-1746.79	  410.06
     89.3700	  607.00	  607.25	-1751.25	  409.96
     89.4700	  616.00	  607.61	-1742.61	  409.87
     89.5700	  589.00	  605.77	-1767.77	  409.77
     89.6700	  561.00	  601.95	-1791.95	  409.67
     89.7700	  597.00	  596.60	-1750.60	  409.57
     89.8700	  550.00	  590.23	-1791.23	  409.47
     89.9700	  564.00	  583.40	-1770.40	  409.37
     90.0700	  550.00	  576.56	-1777.56	  409.26
     90.1700	  540.00	  570.09	-1781.09	  409.16
     90.2700	  566.00	  564.25	-1749.25	  409.05
     90.3700	  519.00	  559.21	-1791.21	  408.94
     90.4700	  518.00	  555.05	-1788.05	  408.83
     90.5700	  531.00	  551.74	-1771.74	  408.72
     90.6700	  498.00	  549.24	-1802.24	  408.60
     90.7700	  535.00	  547.44	-1763.44	  408.49
     90.8700	  537.00	  546.25	-1760.25	  408.37
     90.9700	  545.00	  545.57	-1751.57	  408.25
     91.0700	  506.00	  545.31	-1790.31	  408.13
     91.1700	  547.00	  545.45	-1749.45	  408.01
     91.2700	  519.00	  545.95	-1777.95	  407.88
     91.3700	  497.00	  546.85	-1800.85	  407.76
     91.4700	  517.00	  548.23	-1782.23	  407.63
     91.5700	  534.00	  550.18	-1767.18	  407.50
     91.6700	  489.00	  552.86	-1814.86	  407.37
     91.7700	  548.00	  556.22	-1759.22	  407.24
     91.8700	  524.00	  560.89	-1787.89	  407.11
     91.9700	  532.00	  566.84	-1785.84	  406.97
     92.0700	  513.00	  574.25	-1812.25	  406.84
     92.1700	  548.00	  583.24	-1786.24	  406.70
     92.2700	  595.00	  593.88	-1749.88	  406.56
     92.3700	  619.00	  606.11	-1738.11	  406.42
     92.4700	  658.00	  619.78	-1712.78	  406.27
     92.5700	  586.00	  634.62	-1799.62	  406.13
     92.6700	  681.00	  650.22	-1720.22	  405.98
     92.7700	  674.00	  666.05	-1743.05	  405.84
     92.8700	  777.00	  681.51	-1655.51	  405.69
     92.9700	  744.00	  695.97	-1702.97	  405.54
     93.0700	  738.00	  708.90	-1721.90	  405.38
     93.1700	  841.00	  720.03	-1630.03	  405.23
     93.2700	  780.00	  729.45	-1700.45	  405.07
     93.3700	  828.00	  737.57	-1660.57	  404.92
     93.4700	  833.00	  745.03	-1663.03	  404.76
     93.5700	  851.00	  752.51	-1652.51	  404.60
     93.6700	  882.00	  760.63	-1629.63	  404.44
     93.7700	  833.00	  769.92	-1687.92	  404.27
     93.8700	  825.00	  780.81	-1706.81	  404.11
     93.9700	  868.00	  793.66	-1676.66	  403.94
     94.0700	  855.00	  808.71	-1704.71	  403.78
     94.1700	  821.00	  825.98	-1755.98	  403.61
     94.2700	  843.00	  845.16	-1753.16	  403.44
     94.3700	  817.00	  865.51	-1799.51	  403.27
     94.4700	  882.00	  885.86	-1754.86	  403.09
     94.5700	  894.00	  904.62	-1761.62	  402.92
     94.6700	  931.00	  919.93	-1739.93	  402.74
     94.7700	  948.00	  929.85	-1732.85	  402.56
     94.8700	  888.00	  932.74	-1795.74	  402.38
     94.9700	  938.00	  927.65	-1740.65	  402.20
     95.0700	  933.00	  914.61	-1732.61	  402.02
     95.1700	  883.00	  894.64	-1762.64	  401.84
     95.2700	  910.00	  869.43	-1710.43	  401.65
     95.3700	  811.00	  841.00	-1781.00	  401.47
     95.4700	  794.00	  811.45	-1768.45	  401.28
     95.5700	  860.00	  782.76	-1673.76	  401.09
     95.6700	  761.00	  756.79	-1746.79	  400.90
     95.7700	  757.00	  735.20	-1729.20	  400.71
     95.8700	  656.00	  719.45	-1814.45	  400.51
     95.9700	  717.00	  710.88	-1744.88	  400.32
     96.0700	  708.00	  710.63	-1753.63	  400.12
     96.1700	  669.00	  719.69	-1801.69	  399.93
     96.2700	  698.00	  738.82	-1791.82	  399.73
     96.3700	  737.00	  768.59	-1782.59	  399.53
     96.4700	  780.00	  809.18	-1780.18	  399.33
     96.5700	  867.00	  860.35	-1744.35	  399.12
     96.6700	  872.00	  921.31	-1800.31	  398.92
     96.7700	  924.00	  990.63	-1817.63	  398.71
     96.8700	 1027.00	 1066.17	-1790.17	  398.51
     96.9700	 1093.00	 1145.02	-1803.02	  398.30
     97.0700	 1231.00	 1223.57	-1743.57	  398.09
     97.1700	 1239.00	 1297.60	-1809.60	  397.88
     97.2700	 1343.00	 1362.49	-1770.49	  397.67
     97.3700	 1411.00	 1413.58	-1753.58	  397.46
     97.4700	 1425.00	 1446.77	-1772.77	  397.24
     97.5700	 1465.00	 1459.27	-1745.27	  397.03
     97.6700	 1399.00	 1450.24	-1802.24	  396.81
     97.7700	 1415.00	 1420.97	-1756.97	  396.59
     97.8700	 1384.00	 1374.46	-1741.46	  396.37
     97.9700	 1252.00	 1314.86	-1813.86	  396.15
     98.0700	 1310.00	 1246.68	-1687.68	  395.93
     98.1700	 1183.00	 1174.40	-1742.40	  395.71
     98.2700	 1175.00	 1102.11	-1678.11	  395.48
     98.3700	 1037.00	 1033.42	-1747.42	  395.26
     98.4700	  990.00	  971.33	-1732.33	  395.03
     98.5700	  931.00	  918.23	-1738.23	  394.81
     98.6700	  851.00	  875.95	-1775.95	  394.58
     98.7700	  795.00	  845.83	-1801.83	  394.35
     98.8700	  837.00	  828.78	-1742.78	  394.12
     98.9700	  800.00	  825.44	-1776.44	  393.89
     99.0700	  720.00	  836.17	-1867.17	  393.65
     99.1700	  859.00	  861.17	-1753.17	  393.42
     99.2700	  832.00	  900.41	-1819.41	  393.18
     99.3700	  931.00	  953.66	-1773.66	  392.95
     99.4700	  944.00	 1020.40	-1827.40	  392.71
     99.5700	 1011.00	 1099.79	-1839.79	  392.47
     99.6700	 1141.00	 1190.51	-1800.51	  392.24
     99.7700	 1296.00	 1290.70	-1745.70	  392.00
     99.8700	 1357.00	 1397.81	-1791.81	  391.75
     99.9700	 1494.00	 1508.62	-1765.62	  391.51
    100.0700	 1612.00	 1619.23	-1758.23	  391.27
    100.1700	 1798.00	 1725.26	-1678.26	  391.03
    100.2700	 1926.00	 1822.22	-1647.22	  390.78
    100.3700	 1923.00	 1906.02	-1734.02	  390.54
    100.4700	 2063.00	 1973.37	-1661.37	  390.29
    100.5700	 2053.00	 2021.95	-1719.95	  390.04
    100.6700	 2078.00	 2050.28	-1723.28	  389.79
    100.7700	 2094.00	 2057.50	-1714.50	  389.55
    100.8700	 2068.00	 2043.22	-1726.22	  389.30
    100.9700	 2083.00	 2007.83	-1675.83	  389.05
    101.0700	 1997.00	 1952.79	-1706.79	  388.79
    101.1700	 1929.00	 1880.94	-1702.94	  388.54
    101.2700	 1836.00	 1796.37	-1711.37	  388.29
    101.3700	 1742.00	 1704.01	-1713.01	  388.03
    101.4700	 1569.00	 1608.95	-1790.95	  387.78
    101.5700	 1505.00	 1515.90	-1761.90	  387.52
    101.6700	 1428.00	 1428.82	-1751.82	  387.27
    101.7700	 1412.00	 1350.67	-1689.67	  387.01
    101.8700	 1327.00	 1283.37	-1707.37	  386.75
    101.9700	 1248.00	 1227.70	-1730.70	  386.50
    102.0700	 1211.00	 1183.41	-1723.41	  386.24
    102.1700	 1077.00	 1149.31	-1823.31	  385.98
    102.2700	 1122.00	 1123.43	-1752.43	  385.72
    102.3700	 1095.00	 1103.25	-1759.25	  385.46
    102.4700	 1111.00	 1085.99	-1725.99	  385.20
    102.5700	 1061.00	 1068.91	-1758.91	  384.93
    102.6700	 1054.00	 1049.70	-1746.70	  384.67
    102.7700	  999.00	 1026.76	-1778.76	  384.41
    102.8700	 1014.00	  999.37	-1736.37	  384.15
    102.9700	  944.00	  967.61	-1774.61	  383.88
    103.0700	  962.00	  932.20	-1721.20	  383.62
    103.1700	  896.00	  894.20	-1749.20	  383.35
    103.2700	  825.00	  854.86	-1780.86	  383.09
    103.3700	  796.00	  815.45	-1770.45	  382.82
    103.4700	  745.00	  777.14	-1783.14	  382.56
    103.5700	  703.00	  740.91	-1788.91	  382.29
    103.6700	  660.00	  707.56	-1798.56	  382.02
    103.7700	  653.00	  677.63	-1775.63	  381.75
    103.8700	  664.00	  651.45	-1738.45	  381.49
    103.9700	  615.00	  629.11	-1765.11	  381.22
    104.0700	  592.00	  610.55	-1769.55	  380.95
    104.1700	  593.00	  595.53	-1753.53	  380.68
    104.2700	  529.00	  583.73	-1805.73	  380.41
    104.3700	  551.00	  574.79	-1774.79	  380.14
    104.4700	  534.00	  568.30	-1785.30	  379.87
    104.5700	  623.00	  563.88	-1691.88	  379.60
    104.6700	  568.00	  561.16	-1744.16	  379.33
    104.7700	  577.00	  559.82	-1733.82	  379.06
    104.8700	  528.00	  559.56	-1782.56	  378.79
    104.9700	  551.00	  560.16	-1760.16	  378.52
    105.0700	  541.00	  561.40	-1771.40	  378.25
    105.1700	  544.00	  563.16	-1770.16	  377.98
    105.2700	  562.00	  565.31	-1754.31	  377.71
    105.3700	  543.00	  567.77	-1775.77	  377.44
    105.4700	  539.00	  570.53	-1782.53	  377.17
    105.5700	  555.00	  573.59	-1769.59	  376.90
    105.6700	  594.00	  577.00	-1734.00	  376.63
    105.7700	  526.00	  580.87	-1805.87	  376.36
    105.8700	  554.00	  585.30	-1782.30	  376.09
    105.9700	  589.00	  590.43	-1752.43	  375.82
    106.0700	  576.00	  596.35	-1771.35	  375.55
    106.1700	  557.00	  603.14	-1797.14	  375.28
    106.2700	  566.00	  610.79	-1795.79	  375.01
    106.3700	  584.00	  619.25	-1786.25	  374.74
    106.4700	  580.00	  628.40	-1799.40	  374.47
    106.5700	  657.00	  638.01	-1732.01	  374.20
    106.6700	  663.00	  647.82	-1735.82	  373.93
    106.7700	  618.00	  657.49	-1790.49	  373.66
    106.8700	  681.00	  666.64	-1736.64	  373.39
    106.9700	  648.00	  674.87	-1777.87	  373.12
    107.0700	  680.00	  681.79	-1752.79	  372.85
    107.1700	  678.00	  687.11	-1760.11	  372.59
    107.2700	  691.00	  690.63	-1750.63	  372.32
    107.3700	  706.00	  692.33	-1737.33	  372.05
    107.4700	  669.00	  692.39	-1774.39	  371.79
    107.5700	  696.00	  691.12	-1746.12	  371.52
    107.6700	  673.00	  688.96	-1766.96	  371.25
    107.7700	  672.00	  686.35	-1765.35	  370.99
    107.8700	  685.00	  683.76	-1749.76	  370.72
    107.9700	  673.00	  681.56	-1759.56	  370.46
    108.0700	  752.00	  680.02	-1679.02	  370.20
    108.1700	  693.00	  679.33	-1737.33	  369.93
    108.2700	  662.00	  679.52	-1768.52	  369.67
    108.3700	  631.00	  680.50	-1800.50	  369.41
    108.4700	  674.00	  682.08	-1759.08	  369.15
    108.5700	  686.00	  683.96	-1748.96	  368.89
    108.6700	  665.00	  685.74	-1771.74	  368.63
    108.7700	  721.00	  687.00	-1717.00	  368.37
    108.8700	  674.00	  687.29	-1764.29	  368.11
    108.9700	  712.00	  686.26	-1725.26	  367.85
    109.0700	  718.00	  683.61	-1716.61	  367.60
    109.1700	  662.00	  679.21	-1768.21	  367.34
    109.2700	  681.00	  673.09	-1743.09	  367.09
    109.3700	  682.00	  665.40	-1734.40	  366.83
    109.4700	  648.00	  656.43	-1759.43	  366.58
    109.5700	  641.00	  646.49	-1756.49	  366.33
    109.6700	  603.00	  635.95	-1783.95	  366.08
    109.7700	  676.00	  625.17	-1700.17	  365.83
    109.8700	  616.00	  614.50	-1749.50	  365.58
    109.9700	  602.00	  604.22	-1753.22	  365.33
    110.0700	  635.00	  594.59	-1710.59	  365.09
    110.1700	  538.00	  585.80	-1798.80	  364.84
    110.2700	  637.00	  577.99	-1691.99	  364.60
    110.3700	  550.00	  571.23	-1772.23	  364.35
    110.4700	  588.00	  565.56	-1728.56	  364.11
    110.5700	  590.00	  560.96	-1721.96	  363.87
    110.6700	  585.00	  557.37	-1723.37	  363.63
    110.7700	  548.00	  554.73	-1757.73	  363.40
    110.8700	  535.00	  552.93	-1768.93	  363.16
    110.9700	  570.00	  551.88	-1732.88	  362.92
    111.0700	  576.00	  551.48	-1726.48	  362.69
    111.1700	  562.00	  551.64	-1740.64	  362.46
    111.2700	  548.00	  552.27	-1755.27	  362.23
    111.3700	  558.00	  553.30	-1746.30	  362.00
    111.4700	  534.00	  554.66	-1771.66	  361.77
    111.5700	  540.00	  556.30	-1767.30	  361.54
    111.6700	  505.00	  558.20	-1804.20	  361.32
    111.7700	  565.00	  560.31	-1746.31	  361.10
    111.8700	  526.00	  562.62	-1787.62	  360.88
    111.9700	  591.00	  565.13	-1725.13	  360.66
    112.0700	  551.00	  567.84	-1767.84	  360.44
    112.1700	  566.00	  570.77	-1755.77	  360.22
    112.2700	  585.00	  573.93	-1739.93	  360.01
    112.3700	  612.00	  577.36	-1716.36	  359.80
    112.4700	  598.00	  581.09	-1734.09	  359.58
    112.5700	  625.00	  585.20	-1711.20	  359.38
    112.6700	  611.00	  589.73	-1729.73	  359.17
    112.7700	  625.00	  594.80	-1720.80	  358.96
    112.8700	  687.00	  600.49	-1664.49	  358.76
    112.9700	  710.00	  606.99	-1647.99	  358.56
    113.0700	  691.00	  614.48	-1674.48	  358.36
    113.1700	  756.00	  623.21	-1618.21	  358.17
    113.2700	  734.00	  633.50	-1650.50	  357.97
    113.3700	  745.00	  645.77	-1651.77	  357.78
    113.4700	  820.00	  660.53	-1591.53	  357.59
    113.5700	  845.00	  678.44	-1584.44	  357.40
    113.6700	  832.00	  700.28	-1619.28	  357.22
    113.7700	  931.00	  727.04	-1547.04	  357.03
    113.8700	  975.00	  759.88	-1535.88	  356.85
    113.9700	 1013.00	  800.15	-1538.15	  356.67
    114.0700	 1063.00	  849.45	-1537.45	  356.50
    114.1700	 1129.00	  909.57	-1531.57	  356.32
    114.2700	 1232.00	  982.50	-1501.50	  356.15
    114.3700	 1290.00	 1070.40	-1531.40	  355.98
    114.4700	 1406.00	 1175.51	-1520.51	  355.82
    114.5700	 1423.00	 1300.20	-1628.20	  355.65
    114.6700	 1554.00	 1446.69	-1643.69	  355.49
    114.7700	 1842.00	 1617.07	-1526.07	  355.34
    114.8700	 1972.00	 1813.19	-1592.19	  355.18
    114.9700	 2126.00	 2036.34	-1661.34	  355.03
    115.0700	 2380.00	 2287.36	-1658.36	  354.88
    115.1700	 2530.00	 2566.24	-1787.24	  354.73
    115.2700	 2781.00	 2872.02	-1842.02	  354.59
    115.3700	 3101.00	 3202.92	-1852.92	  354.45
    115.4700	 3356.00	 3555.81	-1950.81	  354.31
    115.5700	 3828.00	 3926.61	-1849.61	  354.17
    115.6700	 4067.00	 4309.84	-1993.84	  354.04
    115.7700	 4383.00	 4698.82	-2066.82	  353.91
    115.8700	 4888.00	 5085.86	-1948.86	  353.79
    115.9700	 5155.00	 5461.98	-2057.98	  353.66
    116.0700	 5632.00	 5817.48	-1936.48	  353.54
    116.1700	 5995.00	 6141.82	-1897.82	  353.43
    116.2700	 6337.00	 6424.21	-1838.21	  353.31
    116.3700	 6680.00	 6654.29	-1725.29	  353.20
    116.4700	 6767.00	 6822.67	-1806.67	  353.10
    116.5700	 6892.00	 6922.05	-1781.05	  352.99
    116.6700	 7004.00	 6947.93	-1694.93	  352.89
    116.7700	 6985.00	 6899.27	-1665.27	  352.80
    116.8700	 6875.00	 6778.63	-1654.63	  352.71
    116.9700	 6707.00	 6591.81	-1635.81	  352.62
    117.0700	 6476.00	 6347.03	-1622.03	  352.53
    117.1700	 6191.00	 6054.21	-1614.21	  352.45
    117.2700	 5644.00	 5723.99	-1830.99	  352.37
    117.3700	 5334.00	 5366.90	-1783.90	  352.30
    117.4700	 4840.00	 4993.18	-1904.18	  352.23
    117.5700	 4696.00	 4612.04	-1667.04	  352.16
    117.6700	 4482.00	 4231.82	-1500.82	  352.10
    117.7700	 4078.00	 3859.75	-1532.75	  352.04
    117.8700	 3690.00	 3501.66	-1562.66	  351.98
    117.9700	 3272.00	 3162.41	-1641.41	  351.93
    118.0700	 2995.00	 2845.41	-1601.41	  351.88
    118.1700	 2525.00	 2553.15	-1779.15	  351.84
    118.2700	 2290.00	 2287.02	-1748.02	  351.80
    118.3700	 2005.00	 2047.44	-1793.44	  351.77
    118.4700	 1855.00	 1834.15	-1730.15	  351.74
    118.5700	 1514.00	 1646.16	-1883.16	  351.71
    118.6700	 1364.00	 1482.07	-1869.07	  351.69
    118.7700	 1201.00	 1340.14	-1890.14	  351.67
    118.8700	 1140.00	 1218.33	-1829.33	  351.66
    118.9700	  993.00	 1114.57	-1872.57	  351.65
    119.0700	  933.00	 1026.71	-1844.71	  351.64
    119.1700	  851.00	  952.73	-1852.73	  351.64
    119.2700	  799.00	  890.70	-1842.70	  351.65
    119.3700	  773.00	  838.85	-1816.85	  351.66
    119.4700	  732.00	  795.61	-1814.61	  351.67
    119.5700	  694.00	  759.58	-1816.58	  351.69
    119.6700	  674.00	  729.58	-1806.58	  351.72
    119.7700	  687.00	  704.58	-1768.58	  351.74
    119.8700	  644.00	  683.73	-1790.73	  351.78
    119.9700	  559.00	  666.31	-1858.31	  351.82
    120.0700	  610.00	  651.74	-1792.74	  351.86
    120.1700	  551.00	  639.55	-1839.55	  351.91
    120.2700	  556.00	  629.35	-1824.35	  351.96
    120.3700	  566.00	  620.83	-1805.83	  352.02
    120.4700	  580.00	  613.76	-1784.76	  352.08
    120.5700	  531.00	  607.93	-1827.93	  352.15
    120.6700	  516.00	  603.19	-1838.19	  352.23
    120.7700	  593.00	  599.42	-1757.42	  352.31
    120.8700	  556.00	  596.53	-1791.53	  352.39
    120.9700	  600.00	  594.45	-1745.45	  352.48
    121.0700	  547.00	  593.11	-1797.11	  352.58
    121.1700	  530.00	  592.47	-1813.47	  352.68
    121.2700	  587.00	  592.48	-1756.48	  352.79
    121.3700	  588.00	  593.08	-1756.08	  352.90
    121.4700	  508.00	  594.25	-1837.25	  353.02
    121.5700	  642.00	  595.92	-1704.92	  353.14
    121.6700	  588.00	  598.04	-1761.04	  353.27
    121.7700	  626.00	  600.53	-1725.53	  353.41
    121.8700	  580.00	  603.34	-1774.34	  353.55
    121.9700	  581.00	  606.38	-1776.38	  353.69
    122.0700	  616.00	  609.56	-1744.56	  353.85
    122.1700	  633.00	  612.78	-1730.78	  354.01
    122.2700	  615.00	  615.93	-1751.93	  354.17
    122.3700	  592.00	  618.91	-1777.91	  354.34
    122.4700	  662.00	  621.60	-1710.60	  354.52
    122.5700	  617.00	  623.91	-1757.91	  354.71
    122.6700	  628.00	  625.73	-1748.73	  354.90
    122.7700	  697.00	  626.99	-1680.99	  355.09
    122.8700	  632.00	  627.63	-1746.63	  355.30
    122.9700	  629.00	  627.62	-1749.62	  355.51
    123.0700	  649.00	  626.96	-1728.96	  355.72
    123.1700	  613.00	  625.66	-1763.66	  355.95
    123.2700	  640.00	  623.78	-1734.78	  356.18
    123.3700	  649.00	  621.37	-1723.37	  356.41
    123.4700	  630.00	  618.51	-1739.51	  356.65
    123.5700	  650.00	  615.28	-1716.28	  356.90
    123.6700	  651.00	  611.75	-1711.75	  357.16
    123.7700	  654.00	  608.01	-1705.01	  357.42
    123.8700	  597.00	  604.13	-1758.13	  357.69
    123.9700	  633.00	  600.19	-1718.19	  357.97
    124.0700	  642.00	  596.24	-1705.24	  358.26
    124.1700	  632.00	  592.34	-1711.34	  358.55
    124.2700	  611.00	  588.55	-1728.55	  358.85
    124.3700	  602.00	  584.90	-1733.90	  359.15
    124.4700	  595.00	  581.42	-1737.42	  359.47
    124.5700	  607.00	  578.15	-1722.15	  359.79
    124.6700	  571.00	  575.09	-1755.09	  360.12
    124.7700	  585.00	  572.27	-1738.27	  360.45
    124.8700	  565.00	  569.69	-1755.69	  360.80
    124.9700	  547.00	  478.36	-1682.36	  361.15
    125.0700	  553.00	  478.72	-1751.00	  361.51
    125.1700	  589.00	  479.09	-1751.00	  361.88
    125.2700	  569.00	  479.46	-1751.00	  362.25
    125.3700	  627.00	  479.85	-1751.00	  362.63
    125.4700	  560.00	  480.24	-1751.00	  363.02
    125.5700	  559.00	  480.64	-1751.00	  363.42
    125.6700	  604.00	  481.04	-1751.00	  363.83
    125.7700	  541.00	  481.46	-1751.00	  364.24
    125.8700	  542.00	  481.88	-1751.00	  364.67
    125.9700	  617.00	  482.31	-1751.00	  365.10
    126.0700	  578.00	  482.75	-1751.00	  365.54
    126.1700	  572.00	  483.20	-1751.00	  365.98
    126.2700	  574.00	  483.65	-1751.00	  366.44
    126.3700	  580.00	  484.12	-1751.00	  366.90
    126.4700	  585.00	  484.59	-1751.00	  367.38
    126.5700	  612.00	  485.07	-1751.00	  367.86
    126.6700	  599.00	  485.56	-1751.00	  368.35
    126.7700	  603.00	  486.06	-1751.00	  368.85
    126.8700	  609.00	  486.57	-1751.00	  369.36
    126.9700	  641.00	  487.09	-1751.00	  369.87
    127.0700	  608.00	  487.61	-1751.00	  370.40
    127.1700	  651.00	  488.15	-1751.00	  370.94
    127.2700	  635.00	  488.69	-1751.00	  371.48
    127.3700	  640.00	  489.25	-1751.00	  372.03
    127.4700	  664.00	  489.81	-1751.00	  372.59
    127.5700	  652.00	  490.38	-1751.00	  373.17
    127.6700	  711.00	  490.96	-1751.00	  373.75
    127.7700	  679.00	  491.55	-1751.00	  374.34
    127.8700	  715.00	  492.15	-1751.00	  374.94
    127.9700	  731.00	  492.76	-1751.00	  375.55
    128.0700	  735.00	  493.38	-1751.00	  376.17
    128.1700	  781.00	  494.01	-1751.00	  376.80
    128.2700	  832.00	  494.65	-1751.00	  377.43
    128.3700	  777.00	  495.30	-1751.00	  378.08
    128.4700	  801.00	  495.96	-1751.00	  378.74
    128.5700	    0.00	  496.62	-1751.00	  379.41
    128.6700	    0.00	  497.30	-1751.00	  380.09
     12.3088	        	        	        	        	       0	(  0  0  2)	  0  1
     24.8943	        	        	        	        	       0	(  0  0  4)	  0  1
     28.3311	        	        	        	        	       0	(  1  0  0)	  0  1
     29.0285	        	        	        	        	       0	(  1  0  1)	  0  1
     31.0354	        	        	        	        	       0	(  1  0  2)	  0  1
     34.1448	        	        	        	        	       0	(  1  0  3)	  0  1
     37.7959	        	        	        	        	       0	(  0  0  6)	  0  1
     38.1231	        	        	        	        	       0	(  1  0  4)	  0  1
     42.7745	        	        	        	        	       0	(  1  0  5)	  0  1
     47.9598	        	        	        	        	       0	(  1  0  6)	  0  1
     50.2676	        	        	        	        	       0	(  1  1  0)	  0  1
     51.2201	        	        	        	        	       0	(  0  0  8)	  0  1
     51.9912	        	        	        	        	       0	(  1  1  2)	  0  1
     53.5917	        	        	        	        	       0	(  1  0  7)	  0  1
     56.9408	        	        	        	        	       0	(  1  1  4)	  0  1
     58.7644	        	        	        	        	       0	(  2  0  0)	  0  1
     59.1561	        	        	        	        	       0	(  2  0  1)	  0  1
     59.6236	        	        	        	        	       0	(  1  0  8)	  0  1
     60.3219	        	        	        	        	       0	(  2  0  2)	  0  1
     62.2358	        	        	        	        	       0	(  2  0  3)	  0  1
     64.6379	        	        	        	        	       0	(  1  1  6)	  0  1
     64.8608	        	        	        	        	       0	(  2  0  4)	  0  1
     65.4520	        	        	        	        	       0	(  0  0 10)	  0  1
     66.0414	        	        	        	        	       0	(  1  0  9)	  0  1
     68.1561	        	        	        	        	       0	(  2  0  5)	  0  1
     72.0848	        	        	        	        	       0	(  2  0  6)	  0  1
     72.8592	        	        	        	        	       0	(  1  0 10)	  0  1
     74.6786	        	        	        	        	       0	(  1  1  8)	  0  1
     76.6203	        	        	        	        	       0	(  2  0  7)	  0  1
     80.1187	        	        	        	        	       0	(  1  0 11)	  0  1
     80.9360	        	        	        	        	       0	(  0  0 12)	  0  1
     81.0051	        	        	        	        	       0	(  2  1  0)	  0  1
     81.3451	        	        	        	        	       0	(  2  1  1)	  0  1
     81.7522	        	        	        	        	       0	(  2  0  8)	  0  1
     82.3633	        	        	        	        	       0	(  2  1  2)	  0  1
     84.0552	        	        	        	        	       0	(  2  1  3)	  0  1
     86.4156	        	        	        	        	       0	(  2  1  4)	  0  1
     86.9535	        	        	        	        	       0	(  1  1 10)	  0  1
     87.4920	        	        	        	        	       0	(  2  0  9)	  0  1
     87.8951	        	        	        	        	       0	(  1  0 12)	  0  1
     89.4424	        	        	        	        	       0	(  2  1  5)	  0  1
     93.1410	        	        	        	        	       0	(  2  1  6)	  0  1
     93.8814	        	        	        	        	       0	(  2  0 10)	  0  1
     94.8936	        	        	        	        	       0	(  3  0  0)	  0  1
     95.2310	        	        	        	        	       0	(  3  0  1)	  0  1
     96.2446	        	        	        	        	       0	(  3  0  2)	  0  1
     96.3110	        	        	        	        	       0	(  1  0 13)	  0  1
     97.5310	        	        	        	        	       0	(  2  1  7)	  0  1
     97.9384	        	        	        	        	       0	(  3  0  3)	  0  1
     98.4805	        	        	        	        	       0	(  0  0 14)	  0  1
    100.3222	        	        	        	        	       0	(  3  0  4)	  0  1
    101.0057	        	        	        	        	       0	(  2  0 11)	  0  1
    101.8288	        	        	        	        	       0	(  1  1 12)	  0  1
    102.6552	        	        	        	        	       0	(  2  1  8)	  0  1
    103.4148	        	        	        	        	       0	(  3  0  5)	  0  1
    105.5670	        	        	        	        	       0	(  1  0 14)	  0  1
    107.2511	        	        	        	        	       0	(  3  0  6)	  0  1
    108.5940	        	        	        	        	       0	(  2  1  9)	  0  1
    109.0199	        	        	        	        	       0	(  2  0 12)	  0  1
    111.8930	        	        	        	        	       0	(  3  0  7)	  0  1
    115.4935	        	        	        	        	       0	(  2  1 10)	  0  1
    116.0154	        	        	        	        	       0	(  1  0 15)	  0  1
    116.6179	        	        	        	        	       0	(  2  2  0)	  0  1
    117.4484	        	        	        	        	       0	(  3  0  8)	  0  1
    118.1335	        	        	        	        	       0	(  2  2  2)	  0  1
    118.2085	        	        	        	        	       0	(  2  0 13)	  0  1
    119.9792	        	        	        	        	       0	(  0  0 16)	  0  1
    120.6815	        	        	        	        	       0	(  1  1 14)	  0  1
    122.8204	        	        	        	        	       0	(  2  2  4)	  0  1
    123.6242	        	        	        	        	       0	(  2  1 11)	  0  1
    124.1110	        	        	        	        	       0	(  3  0  9)	  0  1
    124.6828	        	        	        	        	       0	(  3  1  0)	  0  1
    125.0931	        	        	        	        	       0	(  3  1  1)	  0  1
    126.3369	        	        	        	        	       0	(  3  1  2)	  0  1
    128.3675	        	        	        	        	       0	(  1  0 16)	  0  1
    128.4558	        	        	        	        	       0	(  3  1  3)	  0  1
    129.1452	        	        	        	        	       0	(  2  0 14)	  0  1
    131.2631	        	        	        	        	       0	(  2  2  6)	  0  1
    131.5327	        	        	        	        	       0	(  3  1  4)	  0  1
    132.2557	        	        	        	        	       0	(  3  0 10)	  0  1
    133.5425	        	        	        	        	       0	(  2  1 12)	  0  1
    135.7211	        	        	        	        	       0	(  3  1  5)	  0  1
    141.3187	        	        	        	        	       0	(  3  1  6)	  0  1
    142.7421	        	        	        	        	       0	(  3  0 11)	  0  1
    143.3012	        	        	        	        	       0	(  2  0 15)	  0  1
    144.5600	        	        	        	        	       0	(  1  0 17)	  0  1
    145.5042	        	        	        	        	       0	(  2  2  8)	  0  1
    146.7122	        	        	        	        	       0	(  2  1 13)	  0  1
    148.9961	        	        	        	        	       0	(  3  1  7)	  0  1
    149.6543	        	        	        	        	       0	(  1  1 16)	  0  1
    154.0929	        	        	        	        	       0	(  0  0 18)	  0  1
    158.6485	        	        	        	        	       0	(  3  0 12)	  0  1
    158.8379	        	        	        	        	       0	(  4  0  0)	  0  1
    159.7950	        	        	        	        	       0	(  4  0  1)	  0  1
    161.0034	        	        	        	        	       0	(  3  1  8)	  0  1
    162.9749	        	        	        	        	       0	(  4  0  2)	  0  1
    169.9190	        	        	        	        	       0	(  2  0 16)	  0  1
    170.3267	        	        	        	        	       0	(  4  0  3)	  0  1
    174.4432	        	        	        	        	       0	(  2  1 14)	  0  1
