MSG Master    CELL:    5.91343   5.91343  23.25288   90.0000   90.0000  120.0000   SPGR: P 63/m m c             TEMP:    973.25
  1   1280     2.52000     0.00000    -0.12767     0.00000     0.00000    0
    99     0     2
       0.00000      10.00000
     125.00000     130.00000
 2Theta	Yobs	Ycal	Yobs-Ycal	Backg	Posr	(hkl)	K
      0.7700	    0.00	  502.97	-1715.76	  389.64
      0.8700	    0.00	  504.19	-1715.76	  390.86
      0.9700	   37.00	  505.39	-1715.76	  392.06
      1.0700	   43.00	  506.58	-1715.76	  393.25
      1.1700	   43.00	  507.76	-1715.76	  394.43
      1.2700	   49.00	  508.92	-1715.76	  395.59
      1.3700	   46.00	  510.06	-1715.76	  396.73
      1.4700	  101.00	  511.19	-1715.76	  397.86
      1.5700	  293.00	  512.31	-1715.76	  398.98
      1.6700	  461.00	  513.41	-1715.76	  400.08
      1.7700	  557.00	  514.50	-1715.76	  401.17
      1.8700	  641.00	  515.57	-1715.76	  402.24
      1.9700	  740.00	  516.63	-1715.76	  403.30
      2.0700	  767.00	  517.68	-1715.76	  404.34
      2.1700	  743.00	  518.71	-1715.76	  405.37
      2.2700	  794.00	  519.72	-1715.76	  406.39
      2.3700	  738.00	  520.73	-1715.76	  407.39
      2.4700	  698.00	  521.72	-1715.76	  408.38
      2.5700	  689.00	  522.69	-1715.76	  409.36
      2.6700	  698.00	  523.65	-1715.76	  410.32
      2.7700	  656.00	  524.60	-1715.76	  411.27
      2.8700	  666.00	  525.54	-1715.76	  412.21
      2.9700	  593.00	  526.46	-1715.76	  413.13
      3.0700	  619.00	  527.37	-1715.76	  414.04
      3.1700	  640.00	  528.26	-1715.76	  414.93
      3.2700	  636.00	  529.15	-1715.76	  415.81
      3.3700	  780.00	  530.02	-1715.76	  416.68
      3.4700	  811.00	  530.87	-1715.76	  417.54
      3.5700	  883.00	  531.72	-1715.76	  418.39
      3.6700	  983.00	  532.55	-1715.76	  419.22
      3.7700	 1057.00	  533.37	-1715.76	  420.04
      3.8700	 1102.00	  534.18	-1715.76	  420.84
      3.9700	 1124.00	  534.97	-1715.76	  421.64
      4.0700	 1146.00	  535.75	-1715.76	  422.42
      4.1700	 1174.00	  536.52	-1715.76	  423.19
      4.2700	 1170.00	  537.28	-1715.76	  423.95
      4.3700	 1156.00	  538.02	-1715.76	  424.69
      4.4700	 1188.00	  538.76	-1715.76	  425.43
      4.5700	 1072.00	  539.48	-1715.76	  426.15
      4.6700	 1083.00	  540.19	-1715.76	  426.86
      4.7700	 1087.00	  540.89	-1715.76	  427.56
      4.8700	 1020.00	  541.57	-1715.76	  428.24
      4.9700	 1009.00	  542.25	-1715.76	  428.92
      5.0700	  933.00	  542.91	-1715.76	  429.58
      5.1700	  953.00	  543.57	-1715.76	  430.23
      5.2700	  895.00	  544.21	-1715.76	  430.87
      5.3700	  916.00	  544.84	-1715.76	  431.50
      5.4700	  888.00	  545.45	-1715.76	  432.12
      5.5700	  840.00	  546.06	-1715.76	  432.73
      5.6700	  869.00	  546.66	-1715.76	  433.33
      5.7700	  809.00	  547.24	-1715.76	  433.91
      5.8700	  818.00	  547.82	-1715.76	  434.49
      5.9700	  815.00	  548.38	-1715.76	  435.05
      6.0700	  794.00	  548.94	-1715.76	  435.61
      6.1700	  825.00	  549.48	-1715.76	  436.15
      6.2700	  733.00	  550.01	-1715.76	  436.68
      6.3700	  782.00	  550.54	-1715.76	  437.20
      6.4700	  773.00	  551.05	-1715.76	  437.72
      6.5700	  749.00	  551.55	-1715.76	  438.22
      6.6700	  741.00	  552.04	-1715.76	  438.71
      6.7700	  755.00	  552.52	-1715.76	  439.19
      6.8700	  708.00	  552.99	-1715.76	  439.66
      6.9700	  785.00	  553.46	-1715.76	  440.12
      7.0700	  704.00	  553.91	-1715.76	  440.57
      7.1700	  687.00	  554.35	-1715.76	  441.02
      7.2700	  673.00	  554.78	-1715.76	  441.45
      7.3700	  678.00	  555.20	-1715.76	  441.87
      7.4700	  624.00	  555.62	-1715.76	  442.28
      7.5700	  627.00	  556.02	-1715.76	  442.69
      7.6700	  663.00	  556.41	-1715.76	  443.08
      7.7700	  682.00	  556.80	-1715.76	  443.47
      7.8700	  670.00	  557.18	-1715.76	  443.84
      7.9700	  645.00	  557.54	-1715.76	  444.21
      8.0700	  647.00	  557.90	-1715.76	  444.57
      8.1700	  697.00	  558.25	-1715.76	  444.92
      8.2700	  666.00	  558.59	-1715.76	  445.25
      8.3700	  611.00	  558.92	-1715.76	  445.59
      8.4700	  600.00	  559.24	-1715.76	  445.91
      8.5700	  679.00	  559.55	-1715.76	  446.22
      8.6700	  605.00	  559.86	-1715.76	  446.52
      8.7700	  613.00	  560.15	-1715.76	  446.82
      8.8700	  609.00	  560.44	-1715.76	  447.11
      8.9700	  598.00	  560.72	-1715.76	  447.39
      9.0700	  605.00	  560.99	-1715.76	  447.66
      9.1700	  648.00	  561.25	-1715.76	  447.92
      9.2700	  604.00	  561.50	-1715.76	  448.17
      9.3700	  595.00	  561.75	-1715.76	  448.42
      9.4700	  610.00	  561.99	-1715.76	  448.66
      9.5700	  556.00	  562.22	-1715.76	  448.89
      9.6700	  628.00	  562.44	-1715.76	  449.11
      9.7700	  576.00	  562.65	-1715.76	  449.32
      9.8700	  585.00	  562.86	-1715.76	  449.53
      9.9700	  575.00	  563.06	-1715.76	  449.73
     10.0700	  581.00	  564.58	-1699.34	  449.92
     10.1700	  592.00	  564.91	-1688.67	  450.10
     10.2700	  555.00	  565.26	-1726.02	  450.27
     10.3700	  590.00	  565.66	-1691.42	  450.44
     10.4700	  596.00	  566.14	-1685.89	  450.60
     10.5700	  595.00	  566.74	-1687.50	  450.76
     10.6700	  554.00	  567.57	-1729.33	  450.90
     10.7700	  577.00	  568.71	-1707.46	  451.04
     10.8700	  588.00	  570.23	-1697.98	  451.17
     10.9700	  597.00	  572.14	-1690.90	  451.30
     11.0700	  593.00	  574.44	-1697.20	  451.41
     11.1700	  587.00	  577.13	-1705.88	  451.52
     11.2700	  584.00	  580.24	-1712.00	  451.63
     11.3700	  579.00	  583.86	-1720.62	  451.72
     11.4700	  579.00	  588.12	-1724.87	  451.81
     11.5700	  569.00	  593.23	-1739.99	  451.90
     11.6700	  585.00	  599.54	-1730.30	  451.97
     11.7700	  647.00	  607.54	-1676.30	  452.04
     11.8700	  590.00	  617.73	-1743.49	  452.11
     11.9700	  673.00	  630.00	-1672.76	  452.17
     12.0700	  647.00	  642.55	-1711.31	  452.22
     12.1700	  674.00	  650.89	-1692.64	  452.26
     12.2700	  661.00	  648.41	-1703.17	  452.30
     12.3700	  668.00	  632.66	-1680.41	  452.33
     12.4700	  619.00	  611.70	-1708.46	  452.36
     12.5700	  621.00	  594.31	-1689.07	  452.38
     12.6700	  608.00	  582.97	-1690.73	  452.39
     12.7700	  610.00	  576.58	-1682.34	  452.40
     12.8700	  571.00	  573.21	-1717.97	  452.40
     12.9700	  554.00	  571.36	-1733.12	  452.40
     13.0700	  583.00	  570.21	-1702.96	  452.39
     13.1700	  524.00	  569.41	-1761.16	  452.37
     13.2700	  559.00	  568.80	-1725.56	  452.35
     13.3700	  564.00	  568.33	-1720.08	  452.32
     13.4700	  563.00	  567.95	-1720.70	  452.29
     13.5700	  534.00	  567.63	-1749.38	  452.25
     13.6700	  550.00	  567.36	-1733.11	  452.21
     13.7700	  583.00	  567.12	-1699.88	  452.16
     13.8700	  563.00	  566.91	-1719.67	  452.11
     13.9700	  554.00	  566.72	-1728.48	  452.05
     14.0700	  551.00	  566.54	-1731.30	  451.99
     14.1700	  579.00	  566.38	-1703.13	  451.92
     14.2700	  557.00	  566.22	-1724.98	  451.84
     14.3700	  567.00	  566.07	-1714.83	  451.76
     14.4700	  566.00	  565.92	-1715.68	  451.68
     14.5700	  589.00	  565.78	-1692.53	  451.59
     14.6700	  557.00	  565.63	-1724.39	  451.50
     14.7700	  539.00	  565.52	-1742.28	  451.40
     14.8700	  555.00	  565.38	-1726.14	  451.29
     14.9700	  558.00	  565.24	-1722.99	  451.18
     15.0700	  518.00	  565.09	-1762.85	  451.07
     15.1700	  568.00	  564.95	-1712.70	  450.95
     15.2700	  598.00	  564.80	-1682.56	  450.83
     15.3700	  545.00	  564.65	-1735.41	  450.71
     15.4700	  564.00	  564.50	-1716.26	  450.57
     15.5700	  554.00	  564.35	-1726.10	  450.44
     15.6700	  567.00	  564.19	-1712.95	  450.30
     15.7700	  558.00	  564.03	-1721.79	  450.15
     15.8700	  534.00	  563.87	-1745.62	  450.01
     15.9700	  534.00	  563.70	-1745.46	  449.85
     16.0700	  528.00	  563.53	-1751.29	  449.70
     16.1700	  589.00	  563.36	-1690.12	  449.54
     16.2700	  550.00	  563.19	-1728.94	  449.37
     16.3700	  563.00	  563.01	-1715.77	  449.20
     16.4700	  550.00	  562.83	-1728.59	  449.03
     16.5700	  573.00	  562.64	-1705.40	  448.85
     16.6700	  527.00	  562.46	-1751.21	  448.67
     16.7700	  550.00	  562.27	-1728.02	  448.49
     16.8700	  526.00	  562.07	-1751.83	  448.30
     16.9700	  598.00	  561.88	-1679.63	  448.11
     17.0700	  542.00	  561.68	-1735.43	  447.92
     17.1700	  552.00	  561.47	-1725.23	  447.72
     17.2700	  567.00	  561.27	-1710.02	  447.52
     17.3700	  574.00	  561.06	-1702.81	  447.31
     17.4700	  533.00	  560.84	-1743.60	  447.10
     17.5700	  549.00	  560.63	-1727.39	  446.89
     17.6700	  576.00	  560.41	-1700.17	  446.67
     17.7700	  531.00	  560.19	-1744.95	  446.45
     17.8700	  538.00	  560.07	-1737.82	  446.23
     17.9700	  573.00	  559.84	-1702.60	  446.01
     18.0700	  525.00	  559.61	-1750.37	  445.78
     18.1700	  547.00	  559.38	-1728.14	  445.55
     18.2700	  536.00	  559.15	-1738.91	  445.31
     18.3700	  569.00	  558.91	-1705.67	  445.07
     18.4700	  554.00	  558.76	-1720.52	  444.83
     18.5700	  568.00	  558.52	-1706.28	  444.59
     18.6700	  579.00	  558.28	-1695.03	  444.34
     18.7700	  590.00	  558.03	-1683.79	  444.09
     18.8700	  561.00	  557.79	-1712.54	  443.84
     18.9700	  552.00	  557.54	-1721.29	  443.59
     19.0700	  524.00	  557.28	-1749.04	  443.33
     19.1700	  518.00	  557.03	-1754.79	  443.07
     19.2700	  505.00	  556.77	-1767.53	  442.81
     19.3700	  560.00	  556.52	-1712.27	  442.54
     19.4700	  563.00	  556.25	-1709.01	  442.27
     19.5700	  521.00	  555.99	-1750.75	  442.00
     19.6700	  557.00	  555.73	-1714.48	  441.73
     19.7700	  547.00	  555.46	-1724.22	  441.46
     19.8700	  555.00	  555.19	-1715.95	  441.18
     19.9700	  571.00	  554.92	-1699.68	  440.90
     20.0700	  545.00	  554.65	-1725.41	  440.62
     20.1700	  578.00	  554.38	-1692.14	  440.33
     20.2700	  544.00	  554.14	-1725.89	  440.05
     20.3700	  550.00	  553.86	-1719.62	  439.76
     20.4700	  519.00	  553.59	-1750.34	  439.47
     20.5700	  517.00	  553.31	-1752.06	  439.17
     20.6700	  522.00	  553.03	-1746.79	  438.88
     20.7700	  511.00	  552.75	-1757.51	  438.58
     20.8700	  574.00	  552.47	-1694.22	  438.28
     20.9700	  535.00	  552.19	-1732.94	  437.98
     21.0700	  581.00	  551.90	-1686.66	  437.68
     21.1700	  534.00	  551.62	-1733.38	  437.37
     21.2700	  562.00	  551.34	-1705.10	  437.07
     21.3700	  524.00	  551.06	-1742.81	  436.76
     21.4700	  540.00	  550.77	-1726.53	  436.45
     21.5700	  542.00	  550.49	-1724.25	  436.14
     21.6700	  522.00	  550.21	-1743.97	  435.83
     21.7700	  521.00	  549.93	-1744.68	  435.51
     21.8700	  529.00	  549.65	-1736.41	  435.19
     21.9700	  577.00	  549.37	-1688.13	  434.88
     22.0700	  516.00	  549.05	-1748.81	  434.56
     22.1700	  556.00	  548.78	-1708.54	  434.24
     22.2700	  587.00	  548.51	-1677.27	  433.91
     22.3700	  533.00	  548.25	-1731.00	  433.59
     22.4700	  557.00	  547.99	-1706.74	  433.27
     22.5700	  586.00	  547.73	-1677.49	  432.94
     22.6700	  551.00	  547.48	-1712.24	  432.61
     22.7700	  588.00	  547.24	-1675.00	  432.28
     22.8700	  540.00	  547.17	-1722.92	  431.95
     22.9700	  501.00	  546.95	-1761.71	  431.62
     23.0700	  584.00	  546.76	-1678.52	  431.29
     23.1700	  576.00	  546.59	-1686.34	  430.96
     23.2700	  537.00	  546.44	-1725.20	  430.62
     23.3700	  567.00	  546.33	-1695.08	  430.28
     23.4700	  590.00	  546.26	-1672.02	  429.95
     23.5700	  560.00	  546.26	-1702.02	  429.61
     23.6700	  562.00	  546.35	-1700.11	  429.27
     23.7700	  566.00	  546.59	-1696.35	  428.93
     23.8700	  564.00	  547.09	-1698.84	  428.59
     23.9700	  540.00	  548.03	-1723.79	  428.25
     24.0700	  550.00	  549.76	-1715.52	  427.91
     24.1700	  513.00	  552.80	-1755.56	  427.57
     24.2700	  553.00	  557.80	-1720.55	  427.22
     24.3700	  577.00	  565.42	-1704.18	  426.88
     24.4700	  544.00	  576.11	-1747.86	  426.53
     24.5700	  586.00	  589.53	-1719.29	  426.19
     24.6700	  643.00	  603.64	-1676.40	  425.84
     24.7700	  607.00	  613.87	-1722.62	  425.49
     24.8700	  614.00	  613.83	-1715.59	  425.15
     24.9700	  592.00	  601.19	-1724.95	  424.80
     25.0700	  587.00	  582.93	-1711.69	  424.45
     25.1700	  568.00	  566.92	-1714.68	  424.10
     25.2700	  545.00	  555.91	-1726.66	  423.75
     25.3700	  538.00	  549.38	-1727.14	  423.40
     25.4700	  546.00	  545.80	-1715.55	  423.05
     25.5700	  581.00	  543.79	-1678.55	  422.70
     25.6700	  547.00	  542.55	-1711.31	  422.35
     25.7700	  572.00	  541.68	-1685.44	  422.00
     25.8700	  550.00	  541.04	-1706.80	  421.65
     25.9700	  555.00	  540.55	-1701.31	  421.30
     26.0700	  546.00	  540.18	-1709.94	  420.94
     26.1700	  565.00	  539.90	-1690.66	  420.59
     26.2700	  565.00	  539.72	-1690.48	  420.24
     26.3700	  556.00	  539.63	-1699.38	  419.89
     26.4700	  562.00	  539.63	-1693.38	  419.53
     26.5700	  539.00	  539.73	-1716.49	  419.18
     26.6700	  512.00	  539.95	-1743.70	  418.83
     26.7700	  529.00	  540.31	-1727.06	  418.48
     26.8700	  518.00	  540.84	-1738.59	  418.12
     26.9700	  523.00	  541.58	-1734.34	  417.77
     27.0700	  536.00	  542.62	-1722.38	  417.42
     27.1700	  583.00	  544.07	-1676.82	  417.07
     27.2700	  591.00	  546.14	-1670.90	  416.71
     27.3700	  599.00	  549.26	-1666.02	  416.36
     27.4700	  570.00	  554.26	-1700.02	  416.01
     27.5700	  600.00	  562.65	-1678.40	  415.66
     27.6700	  566.00	  576.84	-1726.59	  415.30
     27.7700	  584.00	  600.13	-1731.88	  414.95
     27.8700	  582.00	  635.69	-1769.45	  414.60
     27.9700	  671.00	  684.49	-1729.25	  414.25
     28.0700	  739.00	  742.36	-1719.11	  413.90
     28.1700	  881.00	  797.20	-1631.96	  413.55
     28.2700	  911.00	  828.69	-1633.45	  413.20
     28.3700	  896.00	  819.12	-1638.88	  412.85
     28.4700	  812.00	  779.41	-1683.16	  412.50
     28.5700	  716.00	  743.21	-1742.97	  412.15
     28.6700	  692.00	  731.34	-1755.09	  411.80
     28.7700	  758.00	  744.11	-1701.86	  411.45
     28.8700	  764.00	  767.14	-1718.90	  411.11
     28.9700	  813.00	  777.14	-1679.90	  410.76
     29.0700	  791.00	  754.05	-1678.81	  410.41
     29.1700	  708.00	  702.69	-1710.45	  410.07
     29.2700	  646.00	  647.21	-1716.97	  409.72
     29.3700	  599.00	  603.45	-1720.20	  409.38
     29.4700	  588.00	  574.65	-1702.41	  409.03
     29.5700	  562.00	  557.85	-1711.61	  408.69
     29.6700	  598.00	  548.56	-1666.32	  408.34
     29.7700	  603.00	  543.29	-1656.04	  408.00
     29.8700	  612.00	  540.06	-1643.81	  407.66
     29.9700	  576.00	  538.02	-1677.78	  407.32
     30.0700	  581.00	  536.80	-1671.56	  406.98
     30.1700	  591.00	  536.48	-1661.23	  406.64
     30.2700	  566.00	  537.37	-1687.12	  406.30
     30.3700	  563.00	  540.16	-1692.92	  405.96
     30.4700	  565.00	  545.89	-1696.65	  405.62
     30.5700	  574.00	  555.69	-1697.44	  405.29
     30.6700	  554.00	  569.94	-1731.69	  404.95
     30.7700	  562.00	  587.26	-1741.02	  404.62
     30.8700	  559.00	  603.60	-1760.36	  404.28
     30.9700	  603.00	  612.21	-1724.97	  403.95
     31.0700	  585.00	  606.77	-1737.53	  403.62
     31.1700	  605.00	  589.01	-1699.77	  403.29
     31.2700	  556.00	  568.14	-1727.90	  402.96
     31.3700	  507.00	  550.90	-1759.65	  402.63
     31.4700	  557.00	  539.15	-1697.91	  402.30
     31.5700	  529.00	  532.13	-1718.88	  401.97
     31.6700	  543.00	  528.22	-1700.97	  401.65
     31.7700	  553.00	  526.02	-1688.78	  401.32
     31.8700	  541.00	  524.69	-1699.45	  401.00
     31.9700	  554.00	  523.82	-1685.58	  400.67
     32.0700	  494.00	  523.23	-1744.99	  400.35
     32.1700	  522.00	  522.85	-1716.61	  400.03
     32.2700	  572.00	  522.66	-1666.42	  399.71
     32.3700	  530.00	  522.64	-1708.40	  399.39
     32.4700	  513.00	  522.81	-1725.57	  399.08
     32.5700	  525.00	  523.18	-1713.93	  398.76
     32.6700	  573.00	  523.78	-1666.54	  398.44
     32.7700	  503.00	  524.67	-1737.43	  398.13
     32.8700	  571.00	  525.94	-1670.70	  397.82
     32.9700	  530.00	  527.71	-1713.47	  397.51
     33.0700	  580.00	  530.23	-1665.99	  397.20
     33.1700	  535.00	  533.99	-1714.74	  396.89
     33.2700	  549.00	  539.98	-1706.74	  396.58
     33.3700	  517.00	  550.25	-1749.01	  396.27
     33.4700	  569.00	  568.43	-1715.19	  395.97
     33.5700	  609.00	  600.00	-1706.75	  395.66
     33.6700	  640.00	  651.16	-1726.92	  395.36
     33.7700	  671.00	  725.08	-1769.84	  395.06
     33.8700	  838.00	  816.05	-1693.81	  394.76
     33.9700	 1005.00	  904.85	-1615.61	  394.46
     34.0700	 1049.00	  958.89	-1625.65	  394.16
     34.1700	 1051.00	  945.76	-1610.52	  393.87
     34.2700	  931.00	  867.75	-1652.51	  393.57
     34.3700	  764.00	  765.98	-1717.74	  393.28
     34.4700	  692.00	  676.23	-1699.99	  392.99
     34.5700	  615.00	  611.90	-1712.65	  392.70
     34.6700	  559.00	  571.86	-1728.61	  392.41
     34.7700	  503.00	  549.16	-1761.92	  392.12
     34.8700	  501.00	  536.62	-1751.37	  391.84
     34.9700	  568.00	  529.27	-1677.02	  391.55
     35.0700	  507.00	  524.46	-1733.22	  391.27
     35.1700	  513.00	  520.95	-1723.71	  390.99
     35.2700	  507.00	  518.25	-1727.01	  390.71
     35.3700	  510.00	  516.09	-1721.84	  390.43
     35.4700	  525.00	  514.30	-1705.06	  390.16
     35.5700	  586.00	  512.81	-1642.56	  389.88
     35.6700	  535.00	  511.53	-1692.29	  389.61
     35.7700	  477.00	  510.43	-1749.19	  389.34
     35.8700	  522.00	  509.93	-1703.69	  389.07
     35.9700	  509.00	  509.09	-1715.85	  388.80
     36.0700	  501.00	  508.34	-1723.10	  388.53
     36.1700	  519.00	  507.68	-1704.43	  388.26
     36.2700	  481.00	  507.08	-1741.83	  388.00
     36.3700	  498.00	  506.54	-1724.29	  387.74
     36.4700	  500.00	  506.05	-1721.81	  387.48
     36.5700	  466.00	  505.64	-1755.40	  387.22
     36.6700	  513.00	  505.27	-1708.03	  386.96
     36.7700	  549.00	  504.97	-1671.73	  386.70
     36.8700	  530.00	  504.77	-1690.52	  386.45
     36.9700	  488.00	  504.73	-1732.49	  386.20
     37.0700	  498.00	  504.99	-1722.74	  385.95
     37.1700	  511.00	  505.74	-1710.49	  385.70
     37.2700	  505.00	  507.25	-1718.00	  385.45
     37.3700	  525.00	  509.73	-1700.49	  385.21
     37.4700	  508.00	  513.14	-1720.90	  384.96
     37.5700	  538.00	  516.93	-1694.68	  384.72
     37.6700	  522.00	  519.91	-1713.67	  384.48
     37.7700	  485.00	  520.61	-1751.37	  384.24
     37.8700	  503.00	  518.30	-1731.06	  384.00
     37.9700	  549.00	  514.02	-1680.78	  383.77
     38.0700	  489.00	  509.51	-1736.26	  383.53
     38.1700	  521.00	  505.78	-1700.54	  383.30
     38.2700	  549.00	  503.12	-1669.88	  383.07
     38.3700	  534.00	  501.56	-1683.32	  382.84
     38.4700	  536.00	  500.48	-1680.24	  382.62
     38.5700	  457.00	  499.77	-1758.53	  382.39
     38.6700	  493.00	  499.26	-1722.02	  382.17
     38.7700	  477.00	  498.86	-1737.61	  381.95
     38.8700	  508.00	  498.50	-1706.26	  381.73
     38.9700	  462.00	  498.09	-1751.85	  381.51
     39.0700	  485.00	  497.81	-1728.57	  381.30
     39.1700	  518.00	  497.55	-1695.30	  381.08
     39.2700	  462.00	  497.30	-1751.06	  380.87
     39.3700	  524.00	  497.07	-1688.83	  380.66
     39.4700	  518.00	  496.85	-1694.61	  380.45
     39.5700	  510.00	  496.65	-1702.41	  380.25
     39.6700	  439.00	  496.46	-1773.22	  380.04
     39.7700	  502.00	  496.20	-1709.96	  379.84
     39.8700	  531.00	  496.03	-1680.79	  379.64
     39.9700	  499.00	  495.88	-1712.63	  379.44
     40.0700	  459.00	  495.73	-1752.49	  379.24
     40.1700	  521.00	  495.60	-1690.36	  379.05
     40.2700	  532.00	  495.48	-1679.24	  378.85
     40.3700	  488.00	  495.38	-1723.14	  378.66
     40.4700	  467.00	  495.29	-1744.05	  378.47
     40.5700	  490.00	  495.23	-1720.98	  378.29
     40.6700	  448.00	  495.18	-1762.93	  378.10
     40.7700	  512.00	  495.15	-1698.91	  377.92
     40.8700	  482.00	  495.65	-1729.40	  377.73
     40.9700	  506.00	  495.69	-1705.45	  377.55
     41.0700	  537.00	  495.77	-1674.53	  377.38
     41.1700	  525.00	  495.91	-1686.66	  377.20
     41.2700	  521.00	  496.10	-1690.86	  377.02
     41.3700	  493.00	  496.37	-1719.13	  376.85
     41.4700	  468.00	  496.74	-1744.50	  376.68
     41.5700	  528.00	  497.25	-1685.01	  376.51
     41.6700	  527.00	  497.97	-1686.73	  376.35
     41.7700	  477.00	  499.03	-1737.79	  376.18
     41.8700	  467.00	  500.73	-1749.48	  376.02
     41.9700	  505.00	  503.59	-1714.35	  375.86
     42.0700	  514.00	  508.69	-1710.44	  375.70
     42.1700	  513.00	  517.50	-1720.26	  375.54
     42.2700	  515.00	  531.57	-1732.33	  375.38
     42.3700	  560.00	  552.01	-1707.76	  375.23
     42.4700	  556.00	  578.05	-1737.81	  375.08
     42.5700	  587.00	  605.48	-1734.24	  374.93
     42.6700	  554.00	  626.66	-1788.41	  374.78
     42.7700	  596.00	  632.49	-1752.25	  374.64
     42.8700	  584.00	  619.21	-1750.97	  374.49
     42.9700	  567.00	  593.34	-1742.10	  374.35
     43.0700	  525.00	  565.00	-1755.76	  374.21
     43.1700	  565.00	  540.76	-1691.52	  374.07
     43.2700	  506.00	  523.22	-1732.98	  373.93
     43.3700	  501.00	  511.69	-1726.45	  373.80
     43.4700	  484.00	  504.81	-1736.57	  373.67
     43.5700	  524.00	  500.87	-1692.63	  373.54
     43.6700	  477.00	  498.57	-1737.33	  373.41
     43.7700	  507.00	  497.13	-1705.88	  373.28
     43.8700	  540.00	  496.13	-1671.88	  373.16
     43.9700	  498.00	  495.38	-1713.14	  373.03
     44.0700	  542.00	  494.81	-1668.56	  372.91
     44.1700	  510.00	  494.35	-1700.10	  372.80
     44.2700	  527.00	  493.98	-1682.74	  372.68
     44.3700	  457.00	  493.69	-1752.45	  372.56
     44.4700	  498.00	  493.46	-1711.21	  372.45
     44.5700	  525.00	  493.27	-1684.03	  372.34
     44.6700	  530.00	  493.33	-1679.09	  372.23
     44.7700	  522.00	  493.23	-1686.98	  372.12
     44.8700	  482.00	  493.16	-1726.92	  372.02
     44.9700	  495.00	  493.17	-1713.93	  371.91
     45.0700	  488.00	  493.16	-1720.92	  371.81
     45.1700	  448.00	  493.18	-1760.94	  371.71
     45.2700	  501.00	  493.23	-1707.98	  371.61
     45.3700	  496.00	  493.30	-1713.06	  371.52
     45.4700	  502.00	  493.40	-1707.16	  371.42
     45.5700	  493.00	  493.38	-1716.14	  371.33
     45.6700	  483.00	  493.54	-1726.30	  371.24
     45.7700	  513.00	  493.73	-1696.49	  371.15
     45.8700	  511.00	  493.95	-1698.71	  371.06
     45.9700	  497.00	  494.21	-1712.96	  370.98
     46.0700	  485.00	  494.50	-1725.26	  370.90
     46.1700	  471.00	  494.84	-1739.60	  370.81
     46.2700	  486.00	  495.23	-1724.99	  370.74
     46.3700	  462.00	  495.74	-1749.50	  370.66
     46.4700	  475.00	  496.29	-1737.05	  370.58
     46.5700	  473.00	  496.89	-1739.64	  370.51
     46.6700	  517.00	  497.59	-1696.34	  370.44
     46.7700	  483.00	  498.42	-1731.18	  370.37
     46.8700	  486.00	  499.47	-1729.22	  370.30
     46.9700	  504.00	  500.82	-1712.58	  370.23
     47.0700	  471.00	  502.75	-1747.50	  370.17
     47.1700	  490.00	  505.66	-1731.42	  370.11
     47.2700	  513.00	  510.24	-1713.00	  370.04
     47.3700	  503.00	  517.33	-1730.08	  369.99
     47.4700	  551.00	  527.71	-1692.47	  369.93
     47.5700	  542.00	  541.66	-1715.41	  369.87
     47.6700	  519.00	  558.32	-1755.08	  369.82
     47.7700	  552.00	  575.21	-1738.97	  369.77
     47.8700	  588.00	  588.07	-1715.83	  369.72
     47.9700	  545.00	  592.32	-1763.07	  369.67
     48.0700	  571.00	  586.48	-1731.24	  369.62
     48.1700	  556.00	  573.96	-1733.71	  369.58
     48.2700	  574.00	  559.83	-1701.59	  369.54
     48.3700	  536.00	  547.72	-1727.48	  369.50
     48.4700	  522.00	  539.30	-1733.06	  369.46
     48.5700	  529.00	  534.87	-1721.63	  369.42
     48.6700	  529.00	  533.93	-1720.69	  369.38
     48.7700	  547.00	  536.15	-1704.90	  369.35
     48.8700	  521.00	  540.21	-1734.97	  369.32
     48.9700	  463.00	  546.32	-1799.07	  369.29
     49.0700	  520.00	  554.76	-1750.52	  369.26
     49.1700	  557.00	  566.61	-1725.37	  369.23
     49.2700	  585.00	  584.25	-1715.00	  369.21
     49.3700	  552.00	  612.36	-1776.12	  369.18
     49.4700	  634.00	  659.27	-1741.02	  369.16
     49.5700	  669.00	  737.61	-1784.37	  369.14
     49.6700	  742.00	  863.41	-1837.17	  369.12
     49.7700	  991.00	 1051.67	-1776.43	  369.10
     49.8700	 1313.00	 1308.34	-1711.10	  369.09
     49.9700	 1585.00	 1620.23	-1750.99	  369.08
     50.0700	 1971.00	 1944.80	-1689.56	  369.06
     50.1700	 2298.00	 2206.14	-1623.90	  369.05
     50.2700	 2424.00	 2313.02	-1604.78	  369.05
     50.3700	 2230.00	 2216.81	-1702.57	  369.04
     50.4700	 1984.00	 1959.79	-1691.55	  369.03
     50.5700	 1605.00	 1636.63	-1747.39	  369.03
     50.6700	 1261.00	 1327.06	-1781.81	  369.03
     50.7700	  941.00	 1074.73	-1849.49	  369.03
     50.8700	  808.00	  893.14	-1800.90	  369.03
     50.9700	  702.00	  775.50	-1789.26	  369.03
     51.0700	  600.00	  705.01	-1820.77	  369.04
     51.1700	  626.00	  663.08	-1752.83	  369.04
     51.2700	  656.00	  635.03	-1694.78	  369.05
     51.3700	  570.00	  613.00	-1758.76	  369.06
     51.4700	  556.00	  593.83	-1753.59	  369.07
     51.5700	  589.00	  577.58	-1704.34	  369.08
     51.6700	  524.00	  564.51	-1756.27	  369.10
     51.7700	  564.00	  554.62	-1706.38	  369.11
     51.8700	  519.00	  547.62	-1744.38	  369.13
     51.9700	  501.00	  543.01	-1757.77	  369.15
     52.0700	  558.00	  540.27	-1698.03	  369.17
     52.1700	  572.00	  539.01	-1682.76	  369.19
     52.2700	  523.00	  539.03	-1731.79	  369.22
     52.3700	  567.00	  540.40	-1689.16	  369.24
     52.4700	  571.00	  543.52	-1688.28	  369.27
     52.5700	  512.00	  549.36	-1753.11	  369.29
     52.6700	  575.00	  559.78	-1700.53	  369.32
     52.7700	  560.00	  577.91	-1733.67	  369.35
     52.8700	  640.00	  608.29	-1684.05	  369.39
     52.9700	  645.00	  656.31	-1727.07	  369.42
     53.0700	  736.00	  726.68	-1706.44	  369.45
     53.1700	  870.00	  820.81	-1666.57	  369.49
     53.2700	  996.00	  933.85	-1653.61	  369.53
     53.3700	 1080.00	 1051.78	-1687.54	  369.57
     53.4700	 1128.00	 1150.00	-1737.76	  369.61
     53.5700	 1239.00	 1198.09	-1674.85	  369.65
     53.6700	 1143.00	 1176.59	-1749.34	  369.69
     53.7700	 1111.00	 1094.18	-1698.94	  369.74
     53.8700	  919.00	  980.17	-1776.93	  369.78
     53.9700	  827.00	  863.16	-1751.92	  369.83
     54.0700	  714.00	  761.23	-1762.99	  369.88
     54.1700	  696.00	  682.35	-1702.10	  369.93
     54.2700	  658.00	  627.05	-1684.81	  369.98
     54.3700	  590.00	  591.40	-1717.16	  370.04
     54.4700	  611.00	  570.01	-1674.77	  370.09
     54.5700	  551.00	  557.86	-1722.61	  370.15
     54.6700	  573.00	  551.25	-1694.01	  370.20
     54.7700	  541.00	  547.89	-1722.65	  370.26
     54.8700	  575.00	  546.49	-1687.25	  370.32
     54.9700	  582.00	  546.44	-1680.19	  370.38
     55.0700	  584.00	  547.45	-1679.20	  370.44
     55.1700	  586.00	  549.44	-1679.20	  370.50
     55.2700	  589.00	  552.42	-1679.18	  370.57
     55.3700	  562.00	  556.49	-1710.25	  370.63
     55.4700	  571.00	  561.85	-1706.61	  370.70
     55.5700	  557.00	  568.86	-1727.62	  370.77
     55.6700	  606.00	  578.19	-1687.94	  370.84
     55.7700	  597.00	  591.28	-1710.04	  370.91
     55.8700	  615.00	  610.74	-1711.50	  370.98
     55.9700	  632.00	  641.32	-1725.07	  371.05
     56.0700	  701.00	  690.83	-1705.59	  371.13
     56.1700	  798.00	  770.64	-1688.40	  371.20
     56.2700	  851.00	  894.79	-1759.55	  371.28
     56.3700	  991.00	 1076.98	-1801.74	  371.35
     56.4700	 1289.00	 1324.94	-1751.69	  371.43
     56.5700	 1526.00	 1633.51	-1823.26	  371.51
     56.6700	 1959.00	 1977.65	-1734.41	  371.59
     56.7700	 2286.00	 2307.08	-1736.84	  371.67
     56.8700	 2537.00	 2547.38	-1726.14	  371.76
     56.9700	 2517.00	 2622.53	-1821.29	  371.84
     57.0700	 2504.00	 2503.72	-1715.48	  371.92
     57.1700	 2192.00	 2235.12	-1758.88	  372.01
     57.2700	 1875.00	 1897.36	-1738.12	  372.10
     57.3700	 1557.00	 1560.63	-1719.39	  372.18
     57.4700	 1262.00	 1268.75	-1722.51	  372.27
     57.5700	 1008.00	 1041.20	-1748.96	  372.36
     57.6700	  835.00	  879.47	-1760.23	  372.45
     57.7700	  768.00	  774.17	-1721.92	  372.54
     57.8700	  762.00	  711.94	-1665.70	  372.64
     57.9700	  729.00	  680.62	-1667.38	  372.73
     58.0700	  676.00	  671.64	-1711.40	  372.82
     58.1700	  710.00	  680.40	-1686.15	  372.92
     58.2700	  748.00	  705.17	-1672.93	  373.01
     58.3700	  750.00	  745.60	-1711.36	  373.11
     58.4700	  864.00	  801.13	-1652.88	  373.21
     58.5700	  927.00	  869.42	-1658.18	  373.31
     58.6700	  993.00	  945.22	-1667.98	  373.41
     58.7700	 1164.00	 1020.56	-1572.32	  373.51
     58.8700	 1203.00	 1087.77	-1600.53	  373.61
     58.9700	 1264.00	 1142.46	-1594.21	  373.71
     59.0700	 1320.00	 1181.32	-1577.07	  373.82
     59.1700	 1309.00	 1199.62	-1606.37	  373.92
     59.2700	 1376.00	 1195.49	-1535.24	  374.02
     59.3700	 1331.00	 1175.54	-1560.30	  374.13
     59.4700	 1255.00	 1151.63	-1612.39	  374.24
     59.5700	 1216.00	 1133.78	-1633.53	  374.34
     59.6700	 1160.00	 1128.79	-1684.54	  374.45
     59.7700	 1134.00	 1143.59	-1725.35	  374.56
     59.8700	 1192.00	 1185.01	-1708.77	  374.67
     59.9700	 1356.00	 1254.60	-1614.36	  374.78
     60.0700	 1427.00	 1344.03	-1632.79	  374.89
     60.1700	 1461.00	 1433.46	-1688.22	  375.00
     60.2700	 1540.00	 1493.79	-1669.55	  375.11
     60.3700	 1593.00	 1496.48	-1619.23	  375.22
     60.4700	 1508.00	 1431.12	-1638.88	  375.34
     60.5700	 1317.00	 1312.92	-1711.68	  375.45
     60.6700	 1219.00	 1169.95	-1666.71	  375.56
     60.7700	 1056.00	 1027.41	-1687.17	  375.68
     60.8700	  898.00	  902.21	-1719.97	  375.79
     60.9700	  773.00	  803.07	-1745.83	  375.91
     61.0700	  728.00	  732.43	-1720.19	  376.03
     61.1700	  660.00	  688.93	-1744.69	  376.14
     61.2700	  707.00	  669.90	-1678.65	  376.26
     61.3700	  683.00	  673.53	-1706.28	  376.38
     61.4700	  707.00	  699.85	-1708.61	  376.50
     61.5700	  748.00	  750.51	-1718.27	  376.62
     61.6700	  741.00	  827.33	-1802.09	  376.74
     61.7700	  906.00	  930.11	-1739.87	  376.86
     61.8700	  983.00	 1054.27	-1787.03	  376.98
     61.9700	 1105.00	 1188.81	-1799.56	  377.10
     62.0700	 1375.00	 1315.06	-1655.82	  377.22
     62.1700	 1365.00	 1407.36	-1758.12	  377.35
     62.2700	 1342.00	 1440.08	-1813.84	  377.47
     62.3700	 1353.00	 1401.98	-1764.74	  377.59
     62.4700	 1167.00	 1304.82	-1853.58	  377.72
     62.5700	 1227.00	 1174.50	-1663.26	  377.84
     62.6700	  956.00	 1036.48	-1796.24	  377.96
     62.7700	  865.00	  908.97	-1759.73	  378.09
     62.8700	  725.00	  802.26	-1793.02	  378.21
     62.9700	  632.00	  720.05	-1803.80	  378.34
     63.0700	  652.00	  661.15	-1724.91	  378.46
     63.1700	  573.00	  621.64	-1764.40	  378.59
     63.2700	  623.00	  596.71	-1689.46	  378.72
     63.3700	  532.00	  581.99	-1765.75	  378.84
     63.4700	  599.00	  574.35	-1691.10	  378.97
     63.5700	  580.00	  571.97	-1707.73	  379.10
     63.6700	  593.00	  574.35	-1697.11	  379.22
     63.7700	  580.00	  581.97	-1717.72	  379.35
     63.8700	  646.00	  596.09	-1665.85	  379.48
     63.9700	  637.00	  618.38	-1697.14	  379.61
     64.0700	  651.00	  650.25	-1715.01	  379.74
     64.1700	  682.00	  692.33	-1726.09	  379.86
     64.2700	  801.00	  743.73	-1658.48	  379.99
     64.3700	  851.00	  801.31	-1666.07	  380.12
     64.4700	  947.00	  859.27	-1628.03	  380.25
     64.5700	  922.00	  909.07	-1702.83	  380.38
     64.6700	 1015.00	  941.52	-1642.28	  380.51
     64.7700	 1012.00	  950.43	-1654.18	  380.64
     64.8700	  960.00	  934.98	-1690.74	  380.77
     64.9700	  969.00	  900.94	-1647.70	  380.90
     65.0700	  854.00	  855.51	-1717.27	  381.03
     65.1700	  796.00	  806.61	-1726.37	  381.16
     65.2700	  706.00	  760.15	-1769.91	  381.29
     65.3700	  700.00	  719.13	-1734.89	  381.42
     65.4700	  644.00	  684.14	-1755.90	  381.55
     65.5700	  655.00	  654.66	-1715.42	  381.68
     65.6700	  617.00	  630.28	-1729.04	  381.81
     65.7700	  585.00	  610.41	-1741.17	  381.93
     65.8700	  593.00	  594.85	-1717.60	  382.06
     65.9700	  571.00	  583.12	-1727.88	  382.19
     66.0700	  562.00	  574.82	-1728.58	  382.32
     66.1700	  569.00	  569.47	-1716.23	  382.45
     66.2700	  560.00	  566.68	-1722.44	  382.58
     66.3700	  539.00	  566.09	-1742.85	  382.71
     66.4700	  519.00	  567.44	-1764.20	  382.84
     66.5700	  538.00	  570.64	-1748.40	  382.97
     66.6700	  563.00	  575.87	-1728.63	  383.10
     66.7700	  586.00	  583.74	-1713.49	  383.23
     66.8700	  552.00	  595.62	-1759.37	  383.36
     66.9700	  594.00	  613.52	-1735.28	  383.49
     67.0700	  580.00	  641.12	-1776.88	  383.62
     67.1700	  658.00	  683.70	-1741.45	  383.74
     67.2700	  754.00	  747.68	-1709.44	  383.87
     67.3700	  817.00	  840.86	-1739.61	  384.00
     67.4700	  883.00	  970.42	-1803.18	  384.13
     67.5700	 1147.00	 1140.93	-1709.69	  384.26
     67.6700	 1352.00	 1351.77	-1715.53	  384.38
     67.7700	 1588.00	 1594.68	-1722.43	  384.51
     67.8700	 1843.00	 1851.35	-1724.10	  384.64
     67.9700	 2172.00	 2092.84	-1636.60	  384.76
     68.0700	 2251.00	 2280.44	-1745.20	  384.89
     68.1700	 2358.00	 2373.82	-1731.58	  385.01
     68.2700	 2391.00	 2348.55	-1673.31	  385.14
     68.3700	 2219.00	 2211.55	-1708.31	  385.27
     68.4700	 2017.00	 1996.45	-1695.20	  385.39
     68.5700	 1795.00	 1744.69	-1665.45	  385.51
     68.6700	 1503.00	 1491.35	-1704.11	  385.64
     68.7700	 1308.00	 1260.77	-1668.52	  385.76
     68.8700	 1025.00	 1066.79	-1757.55	  385.89
     68.9700	  912.00	  914.10	-1717.85	  386.01
     69.0700	  732.00	  801.13	-1784.88	  386.13
     69.1700	  778.00	  721.69	-1659.45	  386.25
     69.2700	  680.00	  668.17	-1703.93	  386.38
     69.3700	  632.00	  633.22	-1716.98	  386.50
     69.4700	  657.00	  610.70	-1669.46	  386.62
     69.5700	  584.00	  596.15	-1727.91	  386.74
     69.6700	  631.00	  586.57	-1671.32	  386.86
     69.7700	  574.00	  580.08	-1721.83	  386.98
     69.8700	  599.00	  575.66	-1692.42	  387.10
     69.9700	  578.00	  572.61	-1710.37	  387.21
     70.0700	  577.00	  570.68	-1709.44	  387.33
     70.1700	  552.00	  569.70	-1733.46	  387.45
     70.2700	  541.00	  569.64	-1744.39	  387.57
     70.3700	  575.00	  570.55	-1711.31	  387.68
     70.4700	  582.00	  572.62	-1706.37	  387.80
     70.5700	  610.00	  576.21	-1681.97	  387.91
     70.6700	  618.00	  582.02	-1679.77	  388.03
     70.7700	  567.00	  591.18	-1739.93	  388.14
     70.8700	  615.00	  605.52	-1706.28	  388.25
     70.9700	  652.00	  627.73	-1691.49	  388.37
     71.0700	  582.00	  661.47	-1795.22	  388.48
     71.1700	  672.00	  711.21	-1754.96	  388.59
     71.2700	  761.00	  782.65	-1737.40	  388.70
     71.3700	  867.00	  878.37	-1727.12	  388.81
     71.4700	 1007.00	 1001.62	-1710.38	  388.92
     71.5700	 1193.00	 1151.60	-1674.36	  389.03
     71.6700	 1316.00	 1322.83	-1722.59	  389.13
     71.7700	 1441.00	 1504.09	-1778.85	  389.24
     71.8700	 1687.00	 1677.91	-1706.66	  389.35
     71.9700	 1795.00	 1821.01	-1741.77	  389.45
     72.0700	 1823.00	 1907.90	-1800.66	  389.56
     72.1700	 1877.00	 1919.36	-1758.12	  389.66
     72.2700	 1867.00	 1852.57	-1701.32	  389.76
     72.3700	 1636.00	 1722.85	-1802.61	  389.87
     72.4700	 1577.00	 1555.07	-1693.83	  389.97
     72.5700	 1399.00	 1373.67	-1690.43	  390.07
     72.6700	 1227.00	 1197.83	-1686.58	  390.17
     72.7700	 1042.00	 1040.48	-1714.24	  390.27
     72.8700	  948.00	  908.63	-1676.38	  390.37
     72.9700	  858.00	  804.29	-1662.05	  390.46
     73.0700	  804.00	  725.80	-1637.55	  390.56
     73.1700	  723.00	  669.28	-1662.04	  390.65
     73.2700	  692.00	  629.54	-1653.30	  390.75
     73.3700	  639.00	  602.94	-1679.70	  390.84
     73.4700	  659.00	  585.12	-1641.88	  390.94
     73.5700	  625.00	  573.16	-1663.91	  391.03
     73.6700	  569.00	  565.02	-1711.77	  391.12
     73.7700	  559.00	  559.40	-1716.15	  391.21
     73.8700	  600.00	  555.51	-1671.26	  391.30
     73.9700	  587.00	  552.88	-1681.64	  391.39
     74.0700	  637.00	  551.23	-1629.99	  391.47
     74.1700	  583.00	  550.36	-1683.11	  391.56
     74.2700	  640.00	  550.07	-1625.83	  391.65
     74.3700	  618.00	  550.18	-1647.94	  391.73
     74.4700	  636.00	  550.45	-1630.20	  391.81
     74.5700	  635.00	  550.59	-1631.35	  391.89
     74.6700	  619.00	  550.35	-1647.11	  391.98
     74.7700	  616.00	  549.53	-1649.29	  392.06
     74.8700	  632.00	  548.13	-1631.88	  392.13
     74.9700	  672.00	  546.32	-1590.07	  392.21
     75.0700	  600.00	  544.39	-1660.15	  392.29
     75.1700	  602.00	  542.69	-1656.45	  392.37
     75.2700	  589.00	  541.56	-1668.31	  392.44
     75.3700	  599.00	  541.35	-1658.10	  392.51
     75.4700	  550.00	  542.46	-1708.21	  392.59
     75.5700	  612.00	  545.26	-1649.02	  392.66
     75.6700	  535.00	  550.32	-1731.08	  392.73
     75.7700	  533.00	  558.01	-1740.77	  392.80
     75.8700	  558.00	  568.68	-1726.44	  392.87
     75.9700	  622.00	  582.47	-1676.23	  392.93
     76.0700	  595.00	  599.10	-1719.86	  393.00
     76.1700	  674.00	  618.15	-1659.91	  393.06
     76.2700	  599.00	  638.41	-1755.17	  393.13
     76.3700	  679.00	  658.21	-1694.97	  393.19
     76.4700	  706.00	  675.35	-1685.11	  393.25
     76.5700	  709.00	  687.33	-1694.09	  393.31
     76.6700	  680.00	  691.92	-1727.68	  393.37
     76.7700	  725.00	  688.21	-1678.97	  393.42
     76.8700	  670.00	  676.89	-1722.65	  393.48
     76.9700	  636.00	  660.00	-1739.75	  393.53
     77.0700	  654.00	  640.03	-1701.79	  393.59
     77.1700	  610.00	  619.24	-1724.99	  393.64
     77.2700	  605.00	  599.37	-1710.12	  393.69
     77.3700	  593.00	  581.60	-1704.36	  393.74
     77.4700	  498.00	  566.59	-1784.35	  393.79
     77.5700	  538.00	  554.33	-1732.08	  393.84
     77.6700	  501.00	  545.07	-1759.83	  393.88
     77.7700	  509.00	  538.25	-1745.00	  393.93
     77.8700	  480.00	  533.39	-1769.15	  393.97
     77.9700	  482.00	  530.04	-1763.79	  394.01
     78.0700	  538.00	  527.76	-1705.52	  394.05
     78.1700	  523.00	  526.24	-1718.99	  394.09
     78.2700	  524.00	  525.22	-1716.97	  394.13
     78.3700	  478.00	  524.54	-1762.29	  394.17
     78.4700	  511.00	  524.09	-1728.84	  394.20
     78.5700	  527.00	  523.80	-1712.56	  394.24
     78.6700	  477.00	  523.66	-1762.42	  394.27
     78.7700	  499.00	  523.65	-1740.40	  394.30
     78.8700	  517.00	  523.77	-1722.52	  394.33
     78.9700	  507.00	  524.04	-1732.79	  394.36
     79.0700	  467.00	  524.48	-1773.24	  394.38
     79.1700	  509.00	  525.14	-1731.89	  394.41
     79.2700	  517.00	  526.04	-1724.80	  394.43
     79.3700	  510.00	  527.24	-1732.99	  394.46
     79.4700	  550.00	  528.77	-1694.53	  394.48
     79.5700	  485.00	  530.69	-1761.45	  394.50
     79.6700	  540.00	  533.06	-1708.82	  394.51
     79.7700	  485.00	  535.95	-1766.71	  394.53
     79.8700	  565.00	  539.46	-1690.22	  394.55
     79.9700	  547.00	  543.72	-1712.47	  394.56
     80.0700	  555.00	  548.69	-1709.45	  394.57
     80.1700	  530.00	  555.00	-1740.75	  394.58
     80.2700	  520.00	  562.73	-1758.49	  394.59
     80.3700	  548.00	  572.24	-1739.99	  394.60
     80.4700	  579.00	  583.82	-1720.58	  394.61
     80.5700	  589.00	  597.67	-1724.43	  394.61
     80.6700	  559.00	  613.74	-1770.50	  394.62
     80.7700	  603.00	  631.68	-1744.44	  394.62
     80.8700	  630.00	  650.81	-1736.57	  394.62
     80.9700	  694.00	  670.09	-1691.85	  394.62
     81.0700	  680.00	  688.29	-1724.05	  394.61
     81.1700	  711.00	  704.19	-1708.95	  394.61
     81.2700	  768.00	  716.74	-1664.50	  394.60
     81.3700	  700.00	  725.14	-1740.90	  394.60
     81.4700	  748.00	  728.86	-1696.61	  394.59
     81.5700	  793.00	  727.74	-1650.49	  394.58
     81.6700	  790.00	  721.96	-1647.72	  394.57
     81.7700	  764.00	  711.94	-1663.70	  394.55
     81.8700	  738.00	  698.31	-1676.06	  394.54
     81.9700	  769.00	  681.99	-1628.74	  394.52
     82.0700	  690.00	  664.15	-1689.91	  394.50
     82.1700	  673.00	  645.96	-1688.72	  394.48
     82.2700	  675.00	  628.35	-1669.10	  394.46
     82.3700	  633.00	  611.93	-1694.68	  394.44
     82.4700	  603.00	  597.05	-1709.80	  394.41
     82.5700	  654.00	  583.90	-1645.65	  394.39
     82.6700	  581.00	  572.60	-1707.35	  394.36
     82.7700	  552.00	  563.21	-1726.96	  394.33
     82.8700	  564.00	  555.72	-1707.48	  394.30
     82.9700	  562.00	  550.10	-1703.86	  394.27
     83.0700	  561.00	  546.25	-1701.00	  394.23
     83.1700	  529.00	  543.99	-1730.74	  394.20
     83.2700	  534.00	  543.31	-1725.06	  394.16
     83.3700	  531.00	  543.98	-1728.74	  394.12
     83.4700	  540.00	  545.79	-1721.55	  394.08
     83.5700	  536.00	  548.53	-1728.29	  394.04
     83.6700	  547.00	  551.86	-1720.62	  393.99
     83.7700	  534.00	  555.40	-1737.16	  393.95
     83.8700	  527.00	  558.73	-1747.48	  393.90
     83.9700	  539.00	  561.35	-1738.10	  393.85
     84.0700	  567.00	  562.82	-1711.57	  393.80
     84.1700	  557.00	  562.81	-1721.57	  393.75
     84.2700	  580.00	  561.27	-1697.02	  393.69
     84.3700	  525.00	  558.36	-1749.12	  393.64
     84.4700	  540.00	  554.46	-1730.22	  393.58
     84.5700	  525.00	  549.97	-1740.73	  393.52
     84.6700	  560.00	  545.29	-1701.05	  393.46
     84.7700	  571.00	  540.73	-1685.49	  393.40
     84.8700	  497.00	  536.53	-1755.29	  393.34
     84.9700	  493.00	  532.85	-1755.61	  393.27
     85.0700	  546.00	  529.76	-1699.51	  393.20
     85.1700	  560.00	  527.27	-1683.03	  393.13
     85.2700	  525.00	  525.37	-1716.12	  393.06
     85.3700	  534.00	  523.98	-1705.74	  392.99
     85.4700	  536.00	  523.04	-1702.80	  392.92
     85.5700	  518.00	  522.49	-1720.25	  392.84
     85.6700	  552.00	  522.29	-1686.04	  392.76
     85.7700	  545.00	  522.41	-1693.16	  392.69
     85.8700	  509.00	  522.86	-1729.62	  392.61
     85.9700	  510.00	  523.71	-1729.47	  392.52
     86.0700	  517.00	  525.04	-1723.80	  392.44
     86.1700	  484.00	  526.98	-1758.73	  392.35
     86.2700	  553.00	  529.68	-1692.43	  392.27
     86.3700	  573.00	  533.33	-1676.08	  392.18
     86.4700	  508.00	  538.09	-1745.85	  392.09
     86.5700	  515.00	  544.14	-1744.89	  391.99
     86.6700	  524.00	  551.54	-1743.30	  391.90
     86.7700	  547.00	  560.32	-1729.08	  391.81
     86.8700	  571.00	  570.34	-1715.10	  391.71
     86.9700	  602.00	  581.34	-1695.09	  391.61
     87.0700	  604.00	  592.86	-1704.62	  391.51
     87.1700	  627.00	  604.31	-1693.06	  391.41
     87.2700	  642.00	  614.90	-1688.65	  391.30
     87.3700	  600.00	  623.74	-1739.50	  391.20
     87.4700	  595.00	  629.93	-1750.69	  391.09
     87.5700	  650.00	  632.75	-1698.50	  390.98
     87.6700	  679.00	  631.88	-1668.64	  390.87
     87.7700	  601.00	  627.18	-1741.94	  390.76
     87.8700	  594.00	  620.05	-1741.81	  390.64
     87.9700	  625.00	  611.00	-1701.76	  390.53
     88.0700	  559.00	  601.00	-1757.75	  390.41
     88.1700	  623.00	  590.92	-1683.67	  390.29
     88.2700	  606.00	  581.53	-1691.28	  390.17
     88.3700	  586.00	  573.43	-1703.18	  390.05
     88.4700	  558.00	  567.05	-1724.81	  389.93
     88.5700	  588.00	  562.65	-1690.40	  389.80
     88.6700	  548.00	  560.28	-1728.04	  389.67
     88.7700	  557.00	  559.87	-1718.62	  389.54
     88.8700	  595.00	  561.16	-1681.92	  389.41
     88.9700	  551.00	  563.82	-1728.58	  389.28
     89.0700	  615.00	  567.39	-1668.14	  389.15
     89.1700	  542.00	  571.34	-1745.10	  389.01
     89.2700	  599.00	  575.12	-1691.87	  388.88
     89.3700	  555.00	  578.12	-1738.88	  388.74
     89.4700	  616.00	  579.83	-1679.59	  388.60
     89.5700	  569.00	  579.88	-1726.64	  388.46
     89.6700	  584.00	  578.16	-1709.92	  388.31
     89.7700	  534.00	  574.81	-1756.57	  388.17
     89.8700	  573.00	  570.19	-1712.95	  388.02
     89.9700	  536.00	  564.73	-1744.49	  387.87
     90.0700	  557.00	  558.87	-1717.62	  387.72
     90.1700	  558.00	  552.98	-1710.74	  387.57
     90.2700	  517.00	  547.37	-1746.13	  387.42
     90.3700	  498.00	  542.27	-1760.03	  387.27
     90.4700	  493.00	  537.82	-1760.58	  387.11
     90.5700	  512.00	  534.10	-1737.86	  386.95
     90.6700	  530.00	  531.11	-1716.87	  386.79
     90.7700	  472.00	  528.83	-1772.58	  386.63
     90.8700	  499.00	  527.19	-1743.94	  386.47
     90.9700	  525.00	  526.12	-1716.88	  386.31
     91.0700	  459.00	  525.56	-1782.32	  386.14
     91.1700	  478.00	  525.46	-1763.22	  385.97
     91.2700	  513.00	  525.79	-1728.55	  385.81
     91.3700	  527.00	  526.57	-1715.32	  385.64
     91.4700	  514.00	  527.83	-1729.58	  385.46
     91.5700	  548.00	  529.66	-1697.42	  385.29
     91.6700	  505.00	  532.18	-1742.94	  385.12
     91.7700	  512.00	  535.55	-1739.31	  384.94
     91.8700	  521.00	  539.96	-1734.72	  384.76
     91.9700	  513.00	  545.60	-1748.36	  384.59
     92.0700	  519.00	  552.68	-1749.43	  384.41
     92.1700	  551.00	  561.37	-1726.13	  384.22
     92.2700	  557.00	  571.83	-1730.58	  384.04
     92.3700	  592.00	  584.12	-1707.87	  383.86
     92.4700	  639.00	  598.22	-1674.97	  383.67
     92.5700	  617.00	  614.01	-1712.77	  383.48
     92.6700	  620.00	  631.24	-1727.00	  383.29
     92.7700	  656.00	  649.52	-1709.28	  383.10
     92.8700	  685.00	  668.32	-1699.07	  382.91
     92.9700	  631.00	  686.71	-1771.46	  382.72
     93.0700	  690.00	  704.51	-1730.27	  382.53
     93.1700	  699.00	  720.80	-1737.56	  382.33
     93.2700	  777.00	  735.16	-1673.91	  382.13
     93.3700	  726.00	  747.48	-1737.23	  381.93
     93.4700	  784.00	  758.00	-1689.76	  381.74
     93.5700	  856.00	  767.17	-1626.92	  381.53
     93.6700	  773.00	  775.43	-1718.18	  381.33
     93.7700	  758.00	  783.18	-1740.93	  381.13
     93.8700	  831.00	  790.74	-1675.50	  380.92
     93.9700	  801.00	  798.45	-1713.21	  380.72
     94.0700	  835.00	  806.72	-1687.47	  380.51
     94.1700	  835.00	  816.00	-1696.75	  380.30
     94.2700	  832.00	  826.64	-1710.40	  380.09
     94.3700	  832.00	  838.72	-1722.48	  379.88
     94.4700	  913.00	  851.91	-1654.67	  379.67
     94.5700	  876.00	  865.45	-1705.21	  379.45
     94.6700	  881.00	  878.15	-1712.90	  379.24
     94.7700	  907.00	  888.48	-1697.24	  379.02
     94.8700	  848.00	  894.78	-1762.54	  378.80
     94.9700	  886.00	  895.55	-1725.31	  378.59
     95.0700	  827.00	  889.83	-1778.59	  378.37
     95.1700	  884.00	  877.49	-1709.25	  378.15
     95.2700	  845.00	  859.29	-1730.04	  377.92
     95.3700	  882.00	  836.65	-1670.41	  377.70
     95.4700	  842.00	  811.38	-1685.13	  377.48
     95.5700	  784.00	  785.36	-1717.12	  377.25
     95.6700	  723.00	  760.43	-1753.19	  377.02
     95.7700	  741.00	  738.29	-1713.05	  376.80
     95.8700	  722.00	  720.50	-1714.26	  376.57
     95.9700	  685.00	  708.44	-1739.20	  376.34
     96.0700	  656.00	  703.35	-1763.11	  376.11
     96.1700	  748.00	  706.28	-1674.04	  375.88
     96.2700	  679.00	  718.10	-1754.85	  375.64
     96.3700	  772.00	  739.47	-1683.23	  375.41
     96.4700	  787.00	  770.82	-1699.58	  375.18
     96.5700	  825.00	  812.24	-1702.99	  374.94
     96.6700	  907.00	  863.42	-1672.17	  374.70
     96.7700	  967.00	  923.60	-1672.36	  374.47
     96.8700	 1037.00	  991.49	-1670.24	  374.23
     96.9700	 1055.00	 1065.15	-1725.90	  373.99
     97.0700	 1094.00	 1142.02	-1763.77	  373.75
     97.1700	 1109.00	 1218.89	-1825.64	  373.51
     97.2700	 1269.00	 1291.96	-1738.72	  373.26
     97.3700	 1342.00	 1356.98	-1730.74	  373.02
     97.4700	 1405.00	 1409.53	-1720.28	  372.78
     97.5700	 1407.00	 1445.57	-1754.32	  372.53
     97.6700	 1441.00	 1462.19	-1736.94	  372.29
     97.7700	 1464.00	 1458.26	-1710.02	  372.04
     97.8700	 1357.00	 1434.68	-1793.44	  371.80
     97.9700	 1404.00	 1394.07	-1705.82	  371.55
     98.0700	 1305.00	 1340.15	-1750.90	  371.30
     98.1700	 1244.00	 1277.09	-1748.85	  371.05
     98.2700	 1174.00	 1209.04	-1750.80	  370.80
     98.3700	 1168.00	 1139.83	-1687.59	  370.55
     98.4700	 1101.00	 1072.89	-1687.65	  370.30
     98.5700	  997.00	 1011.15	-1729.90	  370.05
     98.6700	  926.00	  957.04	-1746.79	  369.80
     98.7700	  853.00	  912.52	-1775.28	  369.55
     98.8700	  840.00	  879.14	-1754.90	  369.29
     98.9700	  820.00	  858.07	-1753.82	  369.04
     99.0700	  808.00	  850.13	-1757.88	  368.78
     99.1700	  849.00	  855.84	-1722.60	  368.53
     99.2700	  872.00	  875.55	-1719.31	  368.27
     99.3700	  938.00	  909.28	-1687.03	  368.02
     99.4700	  953.00	  956.82	-1719.57	  367.76
     99.5700	 1021.00	 1017.65	-1712.41	  367.51
     99.6700	 1073.00	 1090.91	-1733.67	  367.25
     99.7700	 1095.00	 1175.31	-1796.07	  366.99
     99.8700	 1252.00	 1269.04	-1732.80	  366.73
     99.9700	 1383.00	 1369.68	-1702.43	  366.48
    100.0700	 1480.00	 1474.17	-1709.93	  366.22
    100.1700	 1578.00	 1578.88	-1716.64	  365.96
    100.2700	 1726.00	 1679.73	-1669.49	  365.70
    100.3700	 1778.00	 1772.50	-1710.25	  365.44
    100.4700	 1848.00	 1853.28	-1721.04	  365.18
    100.5700	 1942.00	 1918.93	-1692.68	  364.92
    100.6700	 1990.00	 1967.21	-1692.97	  364.66
    100.7700	 1988.00	 1996.75	-1724.50	  364.40
    100.8700	 2035.00	 2006.70	-1687.46	  364.14
    100.9700	 1992.00	 1996.77	-1720.53	  363.88
    101.0700	 1972.00	 1967.29	-1711.05	  363.62
    101.1700	 1944.00	 1919.63	-1691.38	  363.36
    101.2700	 1888.00	 1856.36	-1684.12	  363.10
    101.3700	 1780.00	 1781.29	-1717.04	  362.84
    101.4700	 1712.00	 1698.94	-1702.69	  362.57
    101.5700	 1566.00	 1614.01	-1763.77	  362.31
    101.6700	 1580.00	 1530.79	-1666.55	  362.05
    101.7700	 1421.00	 1452.79	-1747.54	  361.79
    101.8700	 1380.00	 1382.62	-1718.38	  361.53
    101.9700	 1450.00	 1321.93	-1587.68	  361.27
    102.0700	 1260.00	 1271.39	-1727.15	  361.01
    102.1700	 1293.00	 1230.77	-1653.53	  360.75
    102.2700	 1189.00	 1199.01	-1725.77	  360.49
    102.3700	 1163.00	 1174.40	-1727.16	  360.23
    102.4700	 1231.00	 1154.69	-1639.45	  359.97
    102.5700	 1158.00	 1137.34	-1695.09	  359.71
    102.6700	 1131.00	 1119.77	-1704.52	  359.45
    102.7700	 1080.00	 1099.75	-1735.51	  359.19
    102.8700	 1063.00	 1075.72	-1728.47	  358.93
    102.9700	 1030.00	 1046.93	-1732.69	  358.68
    103.0700	 1028.00	 1013.47	-1701.22	  358.42
    103.1700	 1003.00	  976.03	-1688.79	  358.16
    103.2700	  918.00	  935.72	-1733.48	  357.90
    103.3700	  896.00	  893.78	-1713.54	  357.65
    103.4700	  819.00	  851.47	-1748.22	  357.39
    103.5700	  775.00	  809.92	-1750.67	  357.14
    103.6700	  795.00	  770.13	-1690.89	  356.88
    103.7700	  715.00	  732.91	-1733.66	  356.63
    103.8700	  722.00	  698.84	-1692.60	  356.37
    103.9700	  684.00	  668.33	-1700.09	  356.12
    104.0700	  622.00	  641.55	-1735.31	  355.87
    104.1700	  651.00	  618.52	-1683.27	  355.62
    104.2700	  637.00	  599.09	-1677.85	  355.37
    104.3700	  562.00	  583.02	-1736.78	  355.12
    104.4700	  544.00	  569.98	-1741.74	  354.87
    104.5700	  549.00	  559.62	-1726.37	  354.62
    104.6700	  536.00	  551.54	-1731.30	  354.37
    104.7700	  542.00	  545.41	-1719.17	  354.12
    104.8700	  512.00	  540.89	-1744.65	  353.88
    104.9700	  551.00	  537.71	-1702.47	  353.63
    105.0700	  571.00	  535.63	-1680.38	  353.39
    105.1700	  537.00	  534.46	-1713.21	  353.15
    105.2700	  549.00	  534.05	-1700.81	  352.90
    105.3700	  513.00	  534.33	-1737.09	  352.66
    105.4700	  588.00	  535.24	-1663.00	  352.42
    105.5700	  526.00	  536.76	-1726.51	  352.18
    105.6700	  519.00	  538.89	-1735.65	  351.95
    105.7700	  549.00	  541.66	-1708.42	  351.71
    105.8700	  596.00	  545.17	-1664.92	  351.48
    105.9700	  527.00	  549.45	-1738.20	  351.24
    106.0700	  556.00	  554.57	-1714.33	  351.01
    106.1700	  529.00	  560.59	-1747.34	  350.78
    106.2700	  528.00	  567.50	-1755.25	  350.55
    106.3700	  621.00	  575.26	-1670.02	  350.32
    106.4700	  583.00	  583.84	-1716.60	  350.09
    106.5700	  616.00	  593.10	-1692.86	  349.87
    106.6700	  588.00	  602.86	-1730.62	  349.64
    106.7700	  623.00	  612.90	-1705.65	  349.42
    106.8700	  666.00	  622.95	-1672.71	  349.20
    106.9700	  627.00	  632.71	-1721.47	  348.98
    107.0700	  653.00	  641.86	-1704.62	  348.76
    107.1700	  657.00	  650.09	-1708.84	  348.55
    107.2700	  637.00	  657.10	-1735.86	  348.33
    107.3700	  634.00	  662.73	-1744.48	  348.12
    107.4700	  652.00	  666.90	-1730.66	  347.91
    107.5700	  699.00	  669.72	-1686.48	  347.70
    107.6700	  674.00	  671.41	-1713.17	  347.49
    107.7700	  704.00	  672.32	-1684.08	  347.29
    107.8700	  665.00	  672.83	-1723.59	  347.09
    107.9700	  678.00	  673.30	-1711.06	  346.88
    108.0700	  711.00	  674.06	-1678.81	  346.69
    108.1700	  653.00	  675.32	-1738.08	  346.49
    108.2700	  665.00	  677.23	-1727.99	  346.29
    108.3700	  663.00	  679.80	-1732.56	  346.10
    108.4700	  720.00	  682.94	-1678.70	  345.91
    108.5700	  660.00	  686.44	-1742.20	  345.72
    108.6700	  660.00	  690.00	-1745.76	  345.53
    108.7700	  740.00	  693.23	-1668.98	  345.35
    108.8700	  696.00	  695.68	-1715.43	  345.17
    108.9700	  716.00	  696.90	-1696.66	  344.99
    109.0700	  677.00	  696.50	-1735.25	  344.81
    109.1700	  645.00	  694.16	-1764.92	  344.64
    109.2700	  730.00	  689.74	-1675.50	  344.47
    109.3700	  709.00	  683.29	-1690.04	  344.30
    109.4700	  713.00	  674.97	-1677.73	  344.13
    109.5700	  685.00	  665.11	-1695.86	  343.97
    109.6700	  622.00	  654.07	-1747.82	  343.80
    109.7700	  647.00	  642.26	-1711.02	  343.65
    109.8700	  635.00	  630.08	-1710.84	  343.49
    109.9700	  600.00	  617.88	-1733.64	  343.34
    110.0700	  632.00	  605.98	-1689.74	  343.18
    110.1700	  598.00	  594.66	-1712.41	  343.04
    110.2700	  578.00	  584.12	-1721.88	  342.89
    110.3700	  594.00	  574.55	-1696.30	  342.75
    110.4700	  547.00	  566.03	-1734.79	  342.61
    110.5700	  546.00	  558.64	-1728.40	  342.48
    110.6700	  527.00	  552.39	-1741.15	  342.34
    110.7700	  578.00	  547.25	-1685.01	  342.21
    110.8700	  544.00	  543.18	-1714.93	  342.09
    110.9700	  531.00	  540.09	-1724.84	  341.96
    111.0700	  551.00	  537.89	-1702.65	  341.84
    111.1700	  536.00	  536.50	-1716.25	  341.73
    111.2700	  522.00	  535.80	-1729.56	  341.61
    111.3700	  564.00	  535.71	-1687.47	  341.50
    111.4700	  560.00	  536.14	-1691.90	  341.40
    111.5700	  569.00	  537.02	-1683.77	  341.29
    111.6700	  532.00	  538.27	-1722.03	  341.20
    111.7700	  532.00	  539.84	-1723.60	  341.10
    111.8700	  570.00	  541.69	-1687.45	  341.01
    111.9700	  535.00	  543.78	-1724.54	  340.92
    112.0700	  512.00	  546.10	-1749.86	  340.83
    112.1700	  559.00	  548.64	-1705.39	  340.75
    112.2700	  518.00	  551.39	-1749.15	  340.68
    112.3700	  561.00	  554.37	-1709.13	  340.60
    112.4700	  548.00	  557.61	-1725.37	  340.53
    112.5700	  549.00	  561.14	-1727.90	  340.47
    112.6700	  556.00	  565.00	-1724.76	  340.41
    112.7700	  655.00	  569.26	-1630.02	  340.35
    112.8700	  605.00	  573.98	-1684.74	  340.30
    112.9700	  573.00	  579.27	-1722.03	  340.25
    113.0700	  591.00	  585.25	-1710.01	  340.20
    113.1700	  620.00	  592.08	-1687.84	  340.16
    113.2700	  599.00	  599.97	-1716.73	  340.13
    113.3700	  638.00	  609.19	-1686.94	  340.09
    113.4700	  627.00	  620.07	-1708.83	  340.07
    113.5700	  658.00	  633.05	-1690.81	  340.04
    113.6700	  688.00	  648.68	-1676.44	  340.02
    113.7700	  662.00	  667.63	-1721.39	  340.01
    113.8700	  725.00	  690.73	-1681.49	  340.00
    113.9700	  790.00	  718.98	-1644.74	  340.00
    114.0700	  753.00	  753.57	-1716.33	  340.00
    114.1700	  889.00	  795.91	-1622.67	  340.00
    114.2700	  887.00	  847.60	-1676.36	  340.01
    114.3700	  951.00	  910.45	-1675.20	  340.03
    114.4700	 1017.00	  986.43	-1685.19	  340.05
    114.5700	 1133.00	 1077.68	-1660.44	  340.07
    114.6700	 1262.00	 1186.48	-1640.24	  340.10
    114.7700	 1319.00	 1315.06	-1711.82	  340.14
    114.8700	 1551.00	 1465.58	-1630.34	  340.18
    114.9700	 1753.00	 1640.01	-1602.77	  340.22
    115.0700	 1955.00	 1840.02	-1600.77	  340.27
    115.1700	 2145.00	 2066.82	-1637.58	  340.33
    115.2700	 2528.00	 2320.97	-1508.72	  340.39
    115.3700	 2639.00	 2602.26	-1679.02	  340.46
    115.4700	 2847.00	 2909.57	-1778.33	  340.53
    115.5700	 3225.00	 3240.82	-1731.58	  340.61
    115.6700	 3637.00	 3592.86	-1671.62	  340.69
    115.7700	 3867.00	 3961.29	-1810.05	  340.78
    115.8700	 4292.00	 4340.55	-1764.31	  340.87
    115.9700	 4659.00	 4723.86	-1780.62	  340.97
    116.0700	 4988.00	 5103.43	-1831.19	  341.08
    116.1700	 5332.00	 5470.45	-1854.21	  341.19
    116.2700	 5544.00	 5815.12	-1986.88	  341.31
    116.3700	 6168.00	 6127.12	-1674.88	  341.44
    116.4700	 6539.00	 6395.93	-1572.68	  341.57
    116.5700	 6475.00	 6611.56	-1852.32	  341.70
    116.6700	 6771.00	 6765.26	-1710.02	  341.85
    116.7700	 6769.00	 6850.33	-1797.09	  341.99
    116.8700	 6802.00	 6863.03	-1776.78	  342.15
    116.9700	 6798.00	 6803.04	-1720.80	  342.31
    117.0700	 6689.00	 6673.50	-1700.26	  342.48
    117.1700	 6410.00	 6480.52	-1786.28	  342.65
    117.2700	 6225.00	 6232.54	-1723.29	  342.84
    117.3700	 5825.00	 5939.33	-1830.09	  343.02
    117.4700	 5391.00	 5611.31	-1936.06	  343.22
    117.5700	 5196.00	 5258.71	-1778.47	  343.42
    117.6700	 4752.00	 4891.19	-1854.95	  343.63
    117.7700	 4558.00	 4517.71	-1675.46	  343.84
    117.8700	 4245.00	 4146.13	-1616.88	  344.07
    117.9700	 3992.00	 3783.26	-1507.01	  344.30
    118.0700	 3565.00	 3434.63	-1585.39	  344.53
    118.1700	 3278.00	 3104.60	-1542.36	  344.77
    118.2700	 2864.00	 2796.50	-1648.26	  345.03
    118.3700	 2602.00	 2512.54	-1626.30	  345.28
    118.4700	 2207.00	 2254.00	-1762.76	  345.55
    118.5700	 2084.00	 2021.21	-1652.97	  345.82
    118.6700	 1880.00	 1813.80	-1649.56	  346.10
    118.7700	 1660.00	 1630.90	-1686.65	  346.39
    118.8700	 1457.00	 1471.09	-1729.85	  346.68
    118.9700	 1301.00	 1332.70	-1747.46	  346.99
    119.0700	 1182.00	 1213.77	-1747.53	  347.30
    119.1700	 1070.00	 1112.26	-1758.01	  347.62
    119.2700	  996.00	 1026.14	-1745.90	  347.94
    119.3700	  912.00	  953.46	-1757.22	  348.28
    119.4700	  869.00	  892.35	-1739.11	  348.62
    119.5700	  787.00	  841.12	-1769.87	  348.97
    119.6700	  743.00	  798.22	-1770.98	  349.33
    119.7700	  768.00	  762.35	-1710.11	  349.69
    119.8700	  744.00	  732.34	-1704.10	  350.07
    119.9700	  689.00	  707.22	-1733.98	  350.45
    120.0700	  649.00	  686.16	-1752.92	  350.84
    120.1700	  611.00	  668.49	-1773.24	  351.24
    120.2700	  635.00	  653.64	-1734.40	  351.65
    120.3700	  618.00	  641.16	-1738.92	  352.07
    120.4700	  583.00	  630.69	-1763.45	  352.50
    120.5700	  608.00	  621.94	-1729.69	  352.93
    120.6700	  553.00	  614.65	-1777.41	  353.37
    120.7700	  581.00	  608.66	-1743.42	  353.83
    120.8700	  605.00	  603.81	-1714.57	  354.29
    120.9700	  585.00	  599.98	-1730.73	  354.76
    121.0700	  547.00	  597.06	-1765.82	  355.24
    121.1700	  611.00	  594.99	-1699.75	  355.73
    121.2700	  565.00	  593.69	-1744.44	  356.23
    121.3700	  616.00	  593.10	-1692.86	  356.73
    121.4700	  596.00	  593.17	-1712.92	  357.25
    121.5700	  588.00	  593.84	-1721.59	  357.78
    121.6700	  564.00	  595.06	-1746.82	  358.31
    121.7700	  619.00	  596.78	-1693.53	  358.86
    121.8700	  550.00	  598.93	-1764.69	  359.41
    121.9700	  586.00	  601.45	-1731.21	  359.98
    122.0700	  591.00	  604.27	-1729.03	  360.55
    122.1700	  599.00	  607.32	-1724.07	  361.14
    122.2700	  617.00	  610.50	-1709.26	  361.73
    122.3700	  618.00	  613.74	-1711.50	  362.34
    122.4700	  632.00	  616.94	-1700.70	  362.95
    122.5700	  624.00	  620.00	-1711.76	  363.58
    122.6700	  628.00	  622.83	-1710.58	  364.22
    122.7700	  585.00	  625.33	-1756.09	  364.86
    122.8700	  691.00	  627.42	-1652.18	  365.52
    122.9700	  682.00	  629.02	-1662.78	  366.19
    123.0700	  584.00	  630.11	-1761.86	  366.87
    123.1700	  640.00	  630.64	-1706.40	  367.55
    123.2700	  654.00	  630.62	-1692.38	  368.25
    123.3700	  655.00	  630.05	-1690.81	  368.96
    123.4700	  622.00	  628.99	-1722.74	  369.69
    123.5700	  582.00	  627.47	-1761.22	  370.42
    123.6700	  663.00	  625.56	-1678.31	  371.16
    123.7700	  631.00	  623.32	-1708.07	  371.92
    123.8700	  660.00	  620.82	-1676.57	  372.68
    123.9700	  640.00	  618.13	-1693.88	  373.46
    124.0700	  626.00	  615.29	-1705.05	  374.25
    124.1700	  603.00	  612.40	-1725.16	  375.05
    124.2700	  573.00	  609.51	-1752.26	  375.86
    124.3700	  584.00	  606.65	-1738.40	  376.69
    124.4700	  628.00	  603.87	-1691.63	  377.52
    124.5700	  642.00	  601.22	-1674.98	  378.37
    124.6700	  632.00	  598.72	-1682.47	  379.23
    124.7700	  619.00	  596.39	-1693.15	  380.10
    124.8700	  582.00	  594.26	-1728.02	  380.99
    124.9700	  553.00	  495.21	-1657.97	  381.88
    125.0700	  612.00	  496.12	-1715.76	  382.79
    125.1700	  564.00	  497.04	-1715.76	  383.71
    125.2700	  594.00	  497.98	-1715.76	  384.64
    125.3700	  562.00	  498.92	-1715.76	  385.59
    125.4700	  567.00	  499.88	-1715.76	  386.55
    125.5700	  578.00	  500.85	-1715.76	  387.52
    125.6700	  601.00	  501.84	-1715.76	  388.50
    125.7700	  565.00	  502.83	-1715.76	  389.50
    125.8700	  546.00	  503.84	-1715.76	  390.51
    125.9700	  551.00	  504.87	-1715.76	  391.53
    126.0700	  566.00	  505.90	-1715.76	  392.57
    126.1700	  587.00	  506.95	-1715.76	  393.62
    126.2700	  527.00	  508.01	-1715.76	  394.68
    126.3700	  587.00	  509.09	-1715.76	  395.76
    126.4700	  579.00	  510.18	-1715.76	  396.85
    126.5700	  571.00	  511.28	-1715.76	  397.95
    126.6700	  553.00	  512.40	-1715.76	  399.07
    126.7700	  575.00	  513.53	-1715.76	  400.20
    126.8700	  591.00	  514.67	-1715.76	  401.34
    126.9700	  627.00	  515.83	-1715.76	  402.50
    127.0700	  598.00	  517.01	-1715.76	  403.67
    127.1700	  636.00	  518.19	-1715.76	  404.86
    127.2700	  619.00	  519.39	-1715.76	  406.06
    127.3700	  635.00	  520.61	-1715.76	  407.28
    127.4700	  595.00	  521.84	-1715.76	  408.51
    127.5700	  643.00	  523.08	-1715.76	  409.75
    127.6700	  620.00	  524.34	-1715.76	  411.01
    127.7700	  670.00	  525.62	-1715.76	  412.28
    127.8700	  706.00	  526.91	-1715.76	  413.57
    127.9700	  696.00	  528.21	-1715.76	  414.88
    128.0700	  729.00	  529.53	-1715.76	  416.20
    128.1700	  727.00	  530.86	-1715.76	  417.53
    128.2700	  766.00	  532.21	-1715.76	  418.88
    128.3700	  788.00	  533.57	-1715.76	  420.24
    128.4700	  787.00	  534.95	-1715.76	  421.62
    128.5700	    0.00	  536.35	-1715.76	  423.02
    128.6700	    0.00	  537.76	-1715.76	  424.43
     12.3155	        	        	        	        	       0	(  0  0  2)	  0  1
     24.9085	        	        	        	        	       0	(  0  0  4)	  0  1
     28.3586	        	        	        	        	       0	(  1  0  0)	  0  1
     29.0563	        	        	        	        	       0	(  1  0  1)	  0  1
     31.0638	        	        	        	        	       0	(  1  0  2)	  0  1
     34.1743	        	        	        	        	       0	(  1  0  3)	  0  1
     37.8182	        	        	        	        	       0	(  0  0  6)	  0  1
     38.1543	        	        	        	        	       0	(  1  0  4)	  0  1
     42.8079	        	        	        	        	       0	(  1  0  5)	  0  1
     47.9962	        	        	        	        	       0	(  1  0  6)	  0  1
     50.3192	        	        	        	        	       0	(  1  1  0)	  0  1
     51.2515	        	        	        	        	       0	(  0  0  8)	  0  1
     52.0436	        	        	        	        	       0	(  1  1  2)	  0  1
     53.6315	        	        	        	        	       0	(  1  0  7)	  0  1
     56.9956	        	        	        	        	       0	(  1  1  4)	  0  1
     58.8265	        	        	        	        	       0	(  2  0  0)	  0  1
     59.2184	        	        	        	        	       0	(  2  0  1)	  0  1
     59.6674	        	        	        	        	       0	(  1  0  8)	  0  1
     60.3848	        	        	        	        	       0	(  2  0  2)	  0  1
     62.2997	        	        	        	        	       0	(  2  0  3)	  0  1
     64.6973	        	        	        	        	       0	(  1  1  6)	  0  1
     64.9263	        	        	        	        	       0	(  2  0  4)	  0  1
     65.4943	        	        	        	        	       0	(  0  0 10)	  0  1
     66.0900	        	        	        	        	       0	(  1  0  9)	  0  1
     68.2237	        	        	        	        	       0	(  2  0  5)	  0  1
     72.1553	        	        	        	        	       0	(  2  0  6)	  0  1
     72.9134	        	        	        	        	       0	(  1  0 10)	  0  1
     74.7455	        	        	        	        	       0	(  1  1  8)	  0  1
     76.6945	        	        	        	        	       0	(  2  0  7)	  0  1
     80.1796	        	        	        	        	       0	(  1  0 11)	  0  1
     80.9922	        	        	        	        	       0	(  0  0 12)	  0  1
     81.0995	        	        	        	        	       0	(  2  1  0)	  0  1
     81.4398	        	        	        	        	       0	(  2  1  1)	  0  1
     81.8310	        	        	        	        	       0	(  2  0  8)	  0  1
     82.4589	        	        	        	        	       0	(  2  1  2)	  0  1
     84.1524	        	        	        	        	       0	(  2  1  3)	  0  1
     86.5153	        	        	        	        	       0	(  2  1  4)	  0  1
     87.0323	        	        	        	        	       0	(  1  1 10)	  0  1
     87.5767	        	        	        	        	       0	(  2  0  9)	  0  1
     87.9641	        	        	        	        	       0	(  1  0 12)	  0  1
     89.5454	        	        	        	        	       0	(  2  1  5)	  0  1
     93.2485	        	        	        	        	       0	(  2  1  6)	  0  1
     93.9737	        	        	        	        	       0	(  2  0 10)	  0  1
     95.0141	        	        	        	        	       0	(  3  0  0)	  0  1
     95.3520	        	        	        	        	       0	(  3  0  1)	  0  1
     96.3670	        	        	        	        	       0	(  3  0  2)	  0  1
     96.3902	        	        	        	        	       0	(  1  0 13)	  0  1
     97.6444	        	        	        	        	       0	(  2  1  7)	  0  1
     98.0633	        	        	        	        	       0	(  3  0  3)	  0  1
     98.5572	        	        	        	        	       0	(  0  0 14)	  0  1
    100.4507	        	        	        	        	       0	(  3  0  4)	  0  1
    101.1078	        	        	        	        	       0	(  2  0 11)	  0  1
    101.9267	        	        	        	        	       0	(  1  1 12)	  0  1
    102.7764	        	        	        	        	       0	(  2  1  8)	  0  1
    103.5484	        	        	        	        	       0	(  3  0  5)	  0  1
    105.6597	        	        	        	        	       0	(  1  0 14)	  0  1
    107.3917	        	        	        	        	       0	(  3  0  6)	  0  1
    108.7259	        	        	        	        	       0	(  2  1  9)	  0  1
    109.1356	        	        	        	        	       0	(  2  0 12)	  0  1
    112.0432	        	        	        	        	       0	(  3  0  7)	  0  1
    115.6403	        	        	        	        	       0	(  2  1 10)	  0  1
    116.1275	        	        	        	        	       0	(  1  0 15)	  0  1
    116.7976	        	        	        	        	       0	(  2  2  0)	  0  1
    117.6122	        	        	        	        	       0	(  3  0  8)	  0  1
    118.3175	        	        	        	        	       0	(  2  2  2)	  0  1
    118.3437	        	        	        	        	       0	(  2  0 13)	  0  1
    120.0940	        	        	        	        	       0	(  0  0 16)	  0  1
    120.8168	        	        	        	        	       0	(  1  1 14)	  0  1
    123.0192	        	        	        	        	       0	(  2  2  4)	  0  1
    123.7933	        	        	        	        	       0	(  2  1 11)	  0  1
    124.2947	        	        	        	        	       0	(  3  0  9)	  0  1
    124.8947	        	        	        	        	       0	(  3  1  0)	  0  1
    125.3066	        	        	        	        	       0	(  3  1  1)	  0  1
    126.5553	        	        	        	        	       0	(  3  1  2)	  0  1
    128.5117	        	        	        	        	       0	(  1  0 16)	  0  1
    128.6830	        	        	        	        	       0	(  3  1  3)	  0  1
    129.3128	        	        	        	        	       0	(  2  0 14)	  0  1
    131.4960	        	        	        	        	       0	(  2  2  6)	  0  1
    131.7741	        	        	        	        	       0	(  3  1  4)	  0  1
    132.4715	        	        	        	        	       0	(  3  0 10)	  0  1
    133.7496	        	        	        	        	       0	(  2  1 12)	  0  1
    135.9853	        	        	        	        	       0	(  3  1  5)	  0  1
    141.6212	        	        	        	        	       0	(  3  1  6)	  0  1
    143.0203	        	        	        	        	       0	(  3  0 11)	  0  1
    143.5383	        	        	        	        	       0	(  2  0 15)	  0  1
    144.7780	        	        	        	        	       0	(  1  0 17)	  0  1
    145.8341	        	        	        	        	       0	(  2  2  8)	  0  1
    147.0047	        	        	        	        	       0	(  2  1 13)	  0  1
    149.3743	        	        	        	        	       0	(  3  1  7)	  0  1
    149.9329	        	        	        	        	       0	(  1  1 16)	  0  1
    154.3841	        	        	        	        	       0	(  0  0 18)	  0  1
    159.1415	        	        	        	        	       0	(  3  0 12)	  0  1
    159.4430	        	        	        	        	       0	(  4  0  0)	  0  1
    160.4298	        	        	        	        	       0	(  4  0  1)	  0  1
    161.6286	        	        	        	        	       0	(  3  1  8)	  0  1
    163.7339	        	        	        	        	       0	(  4  0  2)	  0  1
    170.8484	        	        	        	        	       0	(  2  0 16)	  0  1
    171.7446	        	        	        	        	       0	(  4  0  3)	  0  1
    176.7157	        	        	        	        	       0	(  2  1 14)	  0  1
