MSG Master    CELL:    5.90405   5.90405  23.18879   90.0000   90.0000  120.0000   SPGR: P 63/m m c             TEMP:    830.85
  1   1280     2.52000     0.00000    -0.12650     0.00000     0.00000    0
    98     0     2
       0.00000      10.00000
     125.00000     130.00000
 2Theta	Yobs	Ycal	Yobs-Ycal	Backg	Posr	(hkl)	K
      0.7700	    0.00	  466.95	-1749.94	  358.63
      0.8700	    0.00	  468.69	-1749.94	  360.38
      0.9700	   35.00	  470.42	-1749.94	  362.11
      1.0700	   43.00	  472.13	-1749.94	  363.82
      1.1700	   39.00	  473.82	-1749.94	  365.51
      1.2700	   49.00	  475.49	-1749.94	  367.18
      1.3700	   43.00	  477.15	-1749.94	  368.83
      1.4700	   97.00	  478.78	-1749.94	  370.47
      1.5700	  288.00	  480.40	-1749.94	  372.09
      1.6700	  474.00	  482.00	-1749.94	  373.69
      1.7700	  592.00	  483.58	-1749.94	  375.27
      1.8700	  658.00	  485.14	-1749.94	  376.83
      1.9700	  741.00	  486.69	-1749.94	  378.38
      2.0700	  771.00	  488.22	-1749.94	  379.90
      2.1700	  815.00	  489.73	-1749.94	  381.41
      2.2700	  771.00	  491.22	-1749.94	  382.91
      2.3700	  791.00	  492.69	-1749.94	  384.38
      2.4700	  704.00	  494.15	-1749.94	  385.84
      2.5700	  703.00	  495.59	-1749.94	  387.28
      2.6700	  643.00	  497.02	-1749.94	  388.71
      2.7700	  613.00	  498.43	-1749.94	  390.11
      2.8700	  598.00	  499.82	-1749.94	  391.50
      2.9700	  624.00	  501.19	-1749.94	  392.88
      3.0700	  583.00	  502.55	-1749.94	  394.23
      3.1700	  592.00	  503.89	-1749.94	  395.57
      3.2700	  651.00	  505.21	-1749.94	  396.90
      3.3700	  798.00	  506.52	-1749.94	  398.21
      3.4700	  861.00	  507.81	-1749.94	  399.50
      3.5700	 1005.00	  509.09	-1749.94	  400.77
      3.6700	 1101.00	  510.35	-1749.94	  402.03
      3.7700	 1216.00	  511.59	-1749.94	  403.28
      3.8700	 1249.00	  512.82	-1749.94	  404.50
      3.9700	 1338.00	  514.03	-1749.94	  405.72
      4.0700	 1350.00	  515.23	-1749.94	  406.91
      4.1700	 1388.00	  516.41	-1749.94	  408.09
      4.2700	 1432.00	  517.57	-1749.94	  409.26
      4.3700	 1312.00	  518.72	-1749.94	  410.41
      4.4700	 1336.00	  519.86	-1749.94	  411.55
      4.5700	 1239.00	  520.98	-1749.94	  412.67
      4.6700	 1234.00	  522.08	-1749.94	  413.77
      4.7700	 1191.00	  523.18	-1749.94	  414.86
      4.8700	 1137.00	  524.25	-1749.94	  415.94
      4.9700	 1125.00	  525.31	-1749.94	  417.00
      5.0700	 1095.00	  526.36	-1749.94	  418.05
      5.1700	 1081.00	  527.39	-1749.94	  419.08
      5.2700	 1025.00	  528.41	-1749.94	  420.10
      5.3700	 1019.00	  529.41	-1749.94	  421.10
      5.4700	 1013.00	  530.40	-1749.94	  422.09
      5.5700	  960.00	  531.38	-1749.94	  423.06
      5.6700	  960.00	  532.34	-1749.94	  424.02
      5.7700	  916.00	  533.28	-1749.94	  424.97
      5.8700	  951.00	  534.22	-1749.94	  425.90
      5.9700	  885.00	  535.14	-1749.94	  426.82
      6.0700	  889.00	  536.04	-1749.94	  427.73
      6.1700	  842.00	  536.94	-1749.94	  428.62
      6.2700	  845.00	  537.81	-1749.94	  429.50
      6.3700	  819.00	  538.68	-1749.94	  430.37
      6.4700	  812.00	  539.53	-1749.94	  431.22
      6.5700	  797.00	  540.37	-1749.94	  432.06
      6.6700	  733.00	  541.20	-1749.94	  432.89
      6.7700	  766.00	  542.01	-1749.94	  433.70
      6.8700	  714.00	  542.81	-1749.94	  434.50
      6.9700	  731.00	  543.60	-1749.94	  435.29
      7.0700	  705.00	  544.38	-1749.94	  436.06
      7.1700	  731.00	  545.14	-1749.94	  436.82
      7.2700	  705.00	  545.89	-1749.94	  437.57
      7.3700	  694.00	  546.62	-1749.94	  438.31
      7.4700	  735.00	  547.35	-1749.94	  439.04
      7.5700	  699.00	  548.06	-1749.94	  439.75
      7.6700	  682.00	  548.76	-1749.94	  440.45
      7.7700	  697.00	  549.45	-1749.94	  441.14
      7.8700	  699.00	  550.13	-1749.94	  441.82
      7.9700	  624.00	  550.79	-1749.94	  442.48
      8.0700	  678.00	  551.45	-1749.94	  443.13
      8.1700	  696.00	  552.09	-1749.94	  443.77
      8.2700	  678.00	  552.72	-1749.94	  444.40
      8.3700	  627.00	  553.34	-1749.94	  445.02
      8.4700	  641.00	  553.94	-1749.94	  445.63
      8.5700	  643.00	  554.54	-1749.94	  446.22
      8.6700	  635.00	  555.12	-1749.94	  446.81
      8.7700	  646.00	  555.69	-1749.94	  447.38
      8.8700	  660.00	  556.26	-1749.94	  447.94
      8.9700	  621.00	  556.81	-1749.94	  448.49
      9.0700	  624.00	  557.35	-1749.94	  449.03
      9.1700	  630.00	  557.87	-1749.94	  449.56
      9.2700	  631.00	  558.39	-1749.94	  450.08
      9.3700	  602.00	  558.90	-1749.94	  450.59
      9.4700	  588.00	  559.40	-1749.94	  451.08
      9.5700	  594.00	  559.88	-1749.94	  451.57
      9.6700	  618.00	  560.36	-1749.94	  452.05
      9.7700	  573.00	  560.82	-1749.94	  452.51
      9.8700	  585.00	  561.28	-1749.94	  452.97
      9.9700	  588.00	  561.72	-1749.94	  453.41
     10.0700	  591.00	  564.26	-1723.20	  453.84
     10.1700	  579.00	  564.87	-1735.81	  454.27
     10.2700	  648.00	  565.52	-1667.45	  454.68
     10.3700	  600.00	  566.21	-1716.15	  455.09
     10.4700	  625.00	  566.99	-1691.92	  455.48
     10.5700	  642.00	  567.89	-1675.83	  455.87
     10.6700	  562.00	  569.00	-1756.93	  456.24
     10.7700	  616.00	  570.40	-1704.33	  456.61
     10.8700	  643.00	  572.16	-1679.10	  456.97
     10.9700	  598.00	  574.35	-1726.28	  457.31
     11.0700	  621.00	  576.94	-1705.88	  457.65
     11.1700	  579.00	  579.97	-1750.90	  457.98
     11.2700	  587.00	  583.45	-1746.38	  458.30
     11.3700	  613.00	  587.45	-1724.39	  458.61
     11.4700	  584.00	  592.10	-1758.04	  458.91
     11.5700	  587.00	  597.59	-1760.53	  459.20
     11.6700	  640.00	  604.21	-1714.14	  459.49
     11.7700	  615.00	  612.30	-1747.24	  459.76
     11.8700	  669.00	  622.17	-1703.11	  460.03
     11.9700	  675.00	  633.64	-1708.57	  460.28
     12.0700	  674.00	  645.41	-1721.35	  460.53
     12.1700	  654.00	  654.41	-1750.34	  460.77
     12.2700	  672.00	  655.66	-1733.60	  461.00
     12.3700	  653.00	  645.43	-1742.37	  461.23
     12.4700	  658.00	  627.46	-1719.40	  461.44
     12.5700	  608.00	  609.73	-1751.67	  461.65
     12.6700	  586.00	  596.39	-1760.33	  461.85
     12.7700	  554.00	  587.73	-1783.67	  462.04
     12.8700	  545.00	  582.61	-1787.55	  462.22
     12.9700	  568.00	  579.68	-1761.61	  462.39
     13.0700	  586.00	  577.95	-1741.89	  462.56
     13.1700	  610.00	  576.85	-1716.79	  462.72
     13.2700	  518.00	  576.11	-1808.05	  462.87
     13.3700	  571.00	  575.57	-1754.51	  463.01
     13.4700	  552.00	  575.18	-1773.12	  463.15
     13.5700	  574.00	  574.89	-1750.83	  463.28
     13.6700	  597.00	  574.70	-1727.64	  463.40
     13.7700	  562.00	  574.54	-1762.47	  463.51
     13.8700	  535.00	  574.41	-1789.35	  463.62
     13.9700	  544.00	  574.31	-1780.25	  463.72
     14.0700	  548.00	  574.24	-1776.18	  463.81
     14.1700	  586.00	  574.19	-1738.12	  463.89
     14.2700	  556.00	  574.14	-1768.08	  463.97
     14.3700	  547.00	  574.11	-1777.04	  464.04
     14.4700	  550.00	  574.08	-1774.02	  464.11
     14.5700	  552.00	  574.06	-1771.99	  464.16
     14.6700	  549.00	  574.04	-1774.97	  464.21
     14.7700	  566.00	  574.02	-1757.95	  464.26
     14.8700	  548.00	  574.00	-1775.93	  464.29
     14.9700	  549.00	  573.98	-1774.91	  464.32
     15.0700	  573.00	  573.96	-1750.89	  464.35
     15.1700	  579.00	  573.93	-1744.87	  464.36
     15.2700	  540.00	  573.91	-1783.85	  464.38
     15.3700	  543.00	  573.88	-1780.82	  464.38
     15.4700	  545.00	  573.85	-1778.79	  464.38
     15.5700	  577.00	  573.82	-1746.75	  464.37
     15.6700	  532.00	  573.78	-1791.71	  464.36
     15.7700	  576.00	  573.73	-1747.67	  464.34
     15.8700	  572.00	  573.69	-1751.63	  464.31
     15.9700	  542.00	  573.64	-1781.57	  464.28
     16.0700	  525.00	  573.58	-1798.52	  464.24
     16.1700	  570.00	  573.52	-1753.46	  464.20
     16.2700	  545.00	  573.46	-1778.40	  464.15
     16.3700	  525.00	  573.39	-1798.33	  464.09
     16.4700	  543.00	  573.32	-1780.26	  464.03
     16.5700	  591.00	  573.24	-1732.18	  463.97
     16.6700	  526.00	  573.16	-1797.10	  463.89
     16.7700	  549.00	  573.07	-1774.01	  463.82
     16.8700	  556.00	  572.98	-1766.92	  463.73
     16.9700	  542.00	  572.89	-1780.82	  463.65
     17.0700	  581.00	  572.79	-1741.72	  463.55
     17.1700	  545.00	  572.68	-1777.62	  463.45
     17.2700	  530.00	  572.57	-1792.51	  463.35
     17.3700	  527.00	  572.46	-1795.39	  463.24
     17.4700	  595.00	  572.34	-1727.28	  463.13
     17.5700	  583.00	  572.32	-1739.26	  463.01
     17.6700	  544.00	  572.20	-1778.13	  462.89
     17.7700	  548.00	  572.07	-1774.00	  462.76
     17.8700	  568.00	  571.93	-1753.87	  462.62
     17.9700	  538.00	  571.90	-1783.84	  462.49
     18.0700	  567.00	  571.76	-1754.70	  462.34
     18.1700	  576.00	  571.62	-1745.56	  462.19
     18.2700	  578.00	  571.47	-1743.41	  462.04
     18.3700	  545.00	  571.32	-1776.25	  461.89
     18.4700	  551.00	  571.16	-1770.10	  461.72
     18.5700	  542.00	  571.00	-1778.94	  461.56
     18.6700	  613.00	  570.83	-1707.77	  461.39
     18.7700	  565.00	  570.67	-1755.60	  461.22
     18.8700	  503.00	  570.49	-1817.43	  461.04
     18.9700	  588.00	  570.32	-1732.25	  460.85
     19.0700	  546.00	  570.14	-1774.07	  460.67
     19.1700	  543.00	  569.95	-1776.89	  460.48
     19.2700	  563.00	  569.77	-1756.71	  460.28
     19.3700	  576.00	  569.58	-1743.51	  460.08
     19.4700	  581.00	  569.38	-1738.32	  459.88
     19.5700	  542.00	  569.23	-1777.16	  459.67
     19.6700	  584.00	  569.03	-1734.97	  459.46
     19.7700	  557.00	  568.83	-1761.76	  459.25
     19.8700	  562.00	  568.62	-1756.56	  459.03
     19.9700	  527.00	  568.41	-1791.35	  458.81
     20.0700	  600.00	  568.20	-1718.14	  458.58
     20.1700	  553.00	  567.99	-1764.92	  458.35
     20.2700	  535.00	  567.77	-1782.71	  458.12
     20.3700	  526.00	  567.55	-1791.49	  457.88
     20.4700	  547.00	  567.33	-1770.27	  457.64
     20.5700	  548.00	  567.11	-1769.04	  457.40
     20.6700	  551.00	  566.88	-1765.82	  457.15
     20.7700	  548.00	  566.65	-1768.59	  456.90
     20.8700	  550.00	  566.42	-1766.36	  456.65
     20.9700	  571.00	  566.19	-1745.13	  456.40
     21.0700	  547.00	  565.96	-1768.90	  456.14
     21.1700	  548.00	  565.73	-1767.66	  455.87
     21.2700	  559.00	  565.49	-1756.43	  455.61
     21.3700	  532.00	  565.25	-1783.19	  455.34
     21.4700	  566.00	  565.02	-1748.95	  455.07
     21.5700	  536.00	  564.78	-1778.72	  454.79
     21.6700	  526.00	  564.54	-1788.48	  454.52
     21.7700	  526.00	  564.30	-1788.24	  454.24
     21.8700	  568.00	  564.07	-1746.00	  453.95
     21.9700	  543.00	  563.83	-1770.77	  453.67
     22.0700	  573.00	  563.60	-1740.53	  453.38
     22.1700	  584.00	  563.53	-1729.46	  453.09
     22.2700	  577.00	  563.30	-1736.24	  452.80
     22.3700	  582.00	  563.08	-1731.02	  452.50
     22.4700	  543.00	  562.86	-1769.80	  452.20
     22.5700	  542.00	  562.65	-1770.59	  451.90
     22.6700	  547.00	  562.45	-1765.39	  451.60
     22.7700	  568.00	  562.26	-1744.19	  451.29
     22.8700	  556.00	  562.08	-1756.01	  450.98
     22.9700	  608.00	  561.91	-1703.85	  450.67
     23.0700	  596.00	  561.76	-1715.70	  450.36
     23.1700	  586.00	  561.64	-1725.58	  450.05
     23.2700	  566.00	  561.50	-1745.44	  449.73
     23.3700	  556.00	  561.44	-1755.38	  449.41
     23.4700	  531.00	  561.44	-1780.37	  449.09
     23.5700	  576.00	  561.50	-1735.44	  448.77
     23.6700	  570.00	  561.66	-1741.59	  448.44
     23.7700	  598.00	  561.95	-1713.89	  448.11
     23.8700	  519.00	  562.47	-1793.41	  447.78
     23.9700	  589.00	  563.36	-1724.30	  447.45
     24.0700	  587.00	  564.86	-1727.80	  447.12
     24.1700	  557.00	  567.35	-1760.29	  446.79
     24.2700	  546.00	  571.36	-1775.30	  446.45
     24.3700	  609.00	  577.46	-1718.40	  446.11
     24.4700	  600.00	  586.06	-1736.00	  445.77
     24.5700	  605.00	  597.13	-1742.07	  445.43
     24.6700	  614.00	  609.71	-1745.65	  445.09
     24.7700	  607.00	  621.35	-1764.28	  444.74
     24.8700	  647.00	  627.74	-1730.68	  444.40
     24.9700	  663.00	  624.28	-1711.22	  444.05
     25.0700	  647.00	  611.39	-1714.33	  443.70
     25.1700	  646.00	  595.51	-1699.45	  443.35
     25.2700	  576.00	  581.93	-1755.87	  443.00
     25.3700	  560.00	  572.25	-1762.18	  442.64
     25.4700	  595.00	  566.06	-1721.00	  442.29
     25.5700	  553.00	  562.33	-1759.27	  441.93
     25.6700	  601.00	  560.08	-1709.02	  441.58
     25.7700	  600.00	  558.65	-1708.58	  441.22
     25.8700	  609.00	  557.66	-1698.59	  440.86
     25.9700	  607.00	  556.94	-1699.88	  440.50
     26.0700	  581.00	  556.41	-1725.34	  440.14
     26.1700	  616.00	  556.02	-1689.95	  439.77
     26.2700	  565.00	  555.75	-1740.69	  439.41
     26.3700	  595.00	  555.60	-1710.54	  439.05
     26.4700	  598.00	  555.56	-1707.50	  438.68
     26.5700	  595.00	  555.64	-1710.58	  438.31
     26.6700	  578.00	  555.85	-1727.79	  437.95
     26.7700	  554.00	  556.20	-1752.14	  437.58
     26.8700	  647.00	  556.74	-1659.68	  437.21
     26.9700	  536.00	  557.49	-1771.43	  436.84
     27.0700	  611.00	  558.53	-1697.47	  436.47
     27.1700	  600.00	  559.96	-1709.90	  436.10
     27.2700	  645.00	  561.95	-1666.89	  435.73
     27.3700	  663.00	  564.83	-1651.77	  435.35
     27.4700	  621.00	  569.23	-1698.16	  434.98
     27.5700	  577.00	  576.28	-1749.22	  434.61
     27.6700	  613.00	  587.89	-1724.83	  434.23
     27.7700	  626.00	  606.80	-1730.74	  433.86
     27.8700	  621.00	  636.07	-1765.01	  433.48
     27.9700	  653.00	  677.54	-1774.48	  433.11
     28.0700	  715.00	  729.63	-1764.56	  432.73
     28.1700	  819.00	  784.90	-1715.83	  432.35
     28.2700	  895.00	  828.58	-1683.52	  431.98
     28.3700	  922.00	  842.10	-1670.04	  431.60
     28.4700	  917.00	  821.62	-1654.56	  431.22
     28.5700	  815.00	  791.86	-1726.80	  430.84
     28.6700	  744.00	  779.58	-1785.51	  430.47
     28.7700	  747.00	  792.66	-1795.60	  430.09
     28.8700	  805.00	  822.18	-1767.12	  429.71
     28.9700	  837.00	  847.13	-1760.07	  429.33
     29.0700	  814.00	  841.70	-1777.64	  428.95
     29.1700	  787.00	  795.85	-1758.79	  428.57
     29.2700	  758.00	  729.81	-1721.75	  428.19
     29.3700	  672.00	  668.96	-1746.89	  427.81
     29.4700	  665.00	  623.99	-1708.93	  427.44
     29.5700	  650.00	  595.04	-1694.97	  427.06
     29.6700	  599.00	  577.96	-1728.90	  426.68
     29.7700	  663.00	  568.20	-1655.13	  426.30
     29.8700	  581.00	  562.44	-1731.37	  425.92
     29.9700	  582.00	  558.87	-1726.80	  425.54
     30.0700	  601.00	  556.68	-1705.62	  425.16
     30.1700	  584.00	  555.67	-1721.61	  424.78
     30.2700	  615.00	  556.01	-1690.94	  424.40
     30.3700	  622.00	  558.23	-1686.17	  424.03
     30.4700	  555.00	  563.27	-1758.20	  423.65
     30.5700	  594.00	  572.26	-1728.19	  423.27
     30.6700	  633.00	  585.97	-1702.91	  422.89
     30.7700	  633.00	  603.87	-1720.80	  422.52
     30.8700	  642.00	  623.12	-1731.06	  422.14
     30.9700	  643.00	  638.11	-1745.05	  421.76
     31.0700	  683.00	  641.31	-1708.24	  421.39
     31.1700	  647.00	  628.89	-1731.83	  421.01
     31.2700	  616.00	  606.90	-1740.84	  420.64
     31.3700	  556.00	  584.76	-1778.70	  420.26
     31.4700	  587.00	  567.39	-1730.33	  419.89
     31.5700	  610.00	  555.63	-1695.56	  419.51
     31.6700	  562.00	  548.40	-1736.34	  419.14
     31.7700	  563.00	  544.17	-1731.10	  418.77
     31.8700	  559.00	  541.65	-1732.59	  418.40
     31.9700	  532.00	  540.07	-1758.00	  418.02
     32.0700	  589.00	  539.01	-1699.95	  417.65
     32.1700	  503.00	  538.30	-1785.23	  417.28
     32.2700	  545.00	  537.85	-1742.79	  416.91
     32.3700	  533.00	  537.64	-1754.57	  416.55
     32.4700	  559.00	  537.65	-1728.58	  416.18
     32.5700	  552.00	  537.89	-1735.83	  415.81
     32.6700	  588.00	  538.40	-1700.34	  415.44
     32.7700	  557.00	  539.22	-1732.15	  415.08
     32.8700	  602.00	  540.41	-1688.35	  414.71
     32.9700	  534.00	  542.11	-1758.04	  414.35
     33.0700	  588.00	  544.49	-1706.43	  413.98
     33.1700	  581.00	  547.97	-1716.91	  413.62
     33.2700	  576.00	  553.22	-1727.16	  413.26
     33.3700	  570.00	  561.66	-1741.60	  412.90
     33.4700	  566.00	  575.77	-1759.70	  412.54
     33.5700	  618.00	  599.40	-1731.34	  412.18
     33.6700	  637.00	  637.45	-1750.38	  411.82
     33.7700	  697.00	  694.00	-1746.93	  411.46
     33.8700	  735.00	  768.63	-1783.57	  411.11
     33.9700	  862.00	  852.19	-1740.12	  410.75
     34.0700	  915.00	  924.19	-1759.12	  410.40
     34.1700	 1043.00	  955.22	-1662.16	  410.04
     34.2700	  953.00	  924.32	-1721.26	  409.69
     34.3700	  858.00	  845.42	-1737.35	  409.34
     34.4700	  767.00	  754.93	-1737.86	  408.99
     34.5700	  677.00	  677.86	-1750.80	  408.64
     34.6700	  620.00	  622.16	-1752.10	  408.29
     34.7700	  571.00	  586.15	-1765.09	  407.95
     34.8700	  530.00	  564.47	-1784.40	  407.60
     34.9700	  559.00	  551.63	-1742.57	  407.26
     35.0700	  552.00	  543.69	-1741.63	  406.91
     35.1700	  551.00	  538.33	-1737.27	  406.57
     35.2700	  536.00	  534.40	-1748.34	  406.23
     35.3700	  525.00	  531.34	-1756.27	  405.89
     35.4700	  543.00	  528.85	-1735.79	  405.55
     35.5700	  515.00	  527.29	-1762.23	  405.22
     35.6700	  510.00	  525.56	-1765.50	  404.88
     35.7700	  491.00	  524.08	-1783.01	  404.55
     35.8700	  503.00	  522.79	-1769.73	  404.21
     35.9700	  485.00	  521.66	-1786.60	  403.88
     36.0700	  485.00	  520.66	-1785.60	  403.55
     36.1700	  534.00	  519.77	-1735.70	  403.22
     36.2700	  484.00	  518.96	-1784.90	  402.90
     36.3700	  499.00	  518.21	-1769.15	  402.57
     36.4700	  498.00	  517.55	-1769.49	  402.24
     36.5700	  530.00	  516.96	-1736.90	  401.92
     36.6700	  489.00	  516.44	-1777.37	  401.60
     36.7700	  513.00	  515.98	-1752.91	  401.28
     36.8700	  504.00	  515.60	-1761.53	  400.96
     36.9700	  492.00	  515.33	-1773.26	  400.64
     37.0700	  538.00	  515.22	-1727.16	  400.32
     37.1700	  523.00	  515.39	-1742.32	  400.01
     37.2700	  475.00	  515.96	-1790.90	  399.70
     37.3700	  488.00	  517.12	-1779.05	  399.38
     37.4700	  546.00	  519.14	-1723.08	  399.07
     37.5700	  503.00	  521.61	-1768.55	  398.77
     37.6700	  559.00	  524.34	-1715.28	  398.46
     37.7700	  561.00	  526.56	-1715.50	  398.15
     37.8700	  535.00	  527.28	-1742.21	  397.85
     37.9700	  505.00	  525.89	-1770.83	  397.55
     38.0700	  519.00	  522.95	-1753.88	  397.24
     38.1700	  463.00	  519.51	-1806.45	  396.95
     38.2700	  502.00	  516.33	-1764.27	  396.65
     38.3700	  539.00	  513.72	-1724.66	  396.35
     38.4700	  506.00	  511.75	-1755.69	  396.06
     38.5700	  529.00	  510.34	-1731.28	  395.76
     38.6700	  465.00	  509.33	-1794.27	  395.47
     38.7700	  448.00	  508.59	-1810.53	  395.18
     38.8700	  499.00	  508.01	-1758.95	  394.90
     38.9700	  515.00	  507.53	-1742.46	  394.61
     39.0700	  509.00	  507.10	-1748.04	  394.33
     39.1700	  482.00	  506.72	-1774.66	  394.04
     39.2700	  528.00	  506.37	-1728.30	  393.76
     39.3700	  554.00	  505.94	-1701.87	  393.48
     39.4700	  548.00	  505.62	-1707.56	  393.20
     39.5700	  496.00	  505.33	-1759.27	  392.93
     39.6700	  488.00	  505.05	-1766.99	  392.65
     39.7700	  504.00	  504.78	-1750.72	  392.38
     39.8700	  498.00	  504.53	-1756.47	  392.11
     39.9700	  519.00	  504.29	-1735.23	  391.84
     40.0700	  517.00	  504.06	-1737.00	  391.58
     40.1700	  489.00	  504.38	-1765.32	  391.31
     40.2700	  549.00	  504.19	-1705.12	  391.05
     40.3700	  543.00	  503.90	-1710.84	  390.78
     40.4700	  487.00	  503.74	-1766.68	  390.52
     40.5700	  490.00	  503.59	-1763.53	  390.27
     40.6700	  487.00	  503.47	-1766.41	  390.01
     40.7700	  493.00	  503.37	-1760.30	  389.76
     40.8700	  483.00	  503.34	-1770.28	  389.50
     40.9700	  463.00	  503.30	-1790.23	  389.25
     41.0700	  505.00	  503.28	-1748.22	  389.00
     41.1700	  538.00	  503.31	-1715.25	  388.76
     41.2700	  512.00	  503.39	-1741.33	  388.51
     41.3700	  491.00	  503.54	-1762.48	  388.27
     41.4700	  466.00	  503.77	-1787.70	  388.03
     41.5700	  489.00	  504.10	-1765.04	  387.79
     41.6700	  494.00	  504.58	-1760.52	  387.55
     41.7700	  521.00	  505.29	-1734.23	  387.31
     41.8700	  482.00	  506.48	-1774.42	  387.08
     41.9700	  487.00	  508.22	-1771.16	  386.85
     42.0700	  534.00	  511.21	-1727.15	  386.62
     42.1700	  487.00	  516.02	-1778.96	  386.39
     42.2700	  494.00	  523.76	-1779.70	  386.16
     42.3700	  498.00	  535.41	-1787.35	  385.94
     42.4700	  555.00	  551.42	-1746.36	  385.71
     42.5700	  554.00	  570.98	-1766.92	  385.49
     42.6700	  570.00	  591.13	-1771.07	  385.27
     42.7700	  640.00	  606.45	-1716.39	  385.06
     42.8700	  569.00	  610.94	-1791.87	  384.84
     42.9700	  582.00	  601.54	-1769.48	  384.63
     43.0700	  564.00	  582.77	-1768.71	  384.42
     43.1700	  483.00	  561.60	-1828.54	  384.21
     43.2700	  522.00	  542.79	-1770.72	  384.00
     43.3700	  532.00	  528.25	-1746.19	  383.80
     43.4700	  480.00	  518.11	-1788.04	  383.59
     43.5700	  467.00	  511.54	-1794.48	  383.39
     43.6700	  507.00	  507.47	-1750.41	  383.19
     43.7700	  510.00	  504.95	-1744.89	  383.00
     43.8700	  500.00	  503.31	-1753.25	  382.80
     43.9700	  480.00	  502.18	-1772.11	  382.61
     44.0700	  491.00	  501.33	-1760.26	  382.42
     44.1700	  497.00	  500.87	-1753.81	  382.23
     44.2700	  517.00	  500.34	-1733.27	  382.04
     44.3700	  461.00	  499.90	-1788.84	  381.85
     44.4700	  528.00	  499.54	-1721.48	  381.67
     44.5700	  477.00	  499.25	-1772.19	  381.49
     44.6700	  534.00	  499.01	-1714.94	  381.31
     44.7700	  503.00	  498.81	-1745.75	  381.13
     44.8700	  497.00	  498.66	-1751.59	  380.95
     44.9700	  518.00	  498.54	-1730.47	  380.78
     45.0700	  492.00	  498.45	-1756.39	  380.61
     45.1700	  501.00	  498.40	-1747.33	  380.44
     45.2700	  516.00	  498.37	-1732.31	  380.27
     45.3700	  490.00	  498.38	-1758.31	  380.11
     45.4700	  500.00	  498.41	-1748.35	  379.94
     45.5700	  508.00	  498.55	-1740.48	  379.78
     45.6700	  471.00	  498.64	-1777.58	  379.62
     45.7700	  449.00	  498.77	-1799.70	  379.46
     45.8700	  490.00	  498.97	-1758.91	  379.31
     45.9700	  494.00	  499.17	-1755.11	  379.15
     46.0700	  494.00	  499.41	-1755.34	  379.00
     46.1700	  501.00	  499.69	-1748.62	  378.85
     46.2700	  489.00	  500.02	-1760.95	  378.70
     46.3700	  477.00	  500.40	-1773.34	  378.55
     46.4700	  437.00	  500.70	-1813.64	  378.41
     46.5700	  545.00	  501.23	-1706.16	  378.27
     46.6700	  512.00	  501.85	-1739.78	  378.13
     46.7700	  523.00	  502.58	-1729.52	  377.99
     46.8700	  523.00	  503.47	-1730.40	  377.85
     46.9700	  508.00	  504.57	-1746.51	  377.72
     47.0700	  476.00	  506.02	-1779.96	  377.59
     47.1700	  494.00	  508.04	-1763.98	  377.46
     47.2700	  534.00	  510.99	-1726.93	  377.33
     47.3700	  496.00	  515.36	-1769.30	  377.20
     47.4700	  539.00	  521.76	-1732.70	  377.08
     47.5700	  516.00	  530.71	-1764.65	  376.95
     47.6700	  572.00	  542.37	-1720.31	  376.83
     47.7700	  597.00	  556.17	-1709.11	  376.71
     47.8700	  547.00	  570.41	-1773.35	  376.60
     47.9700	  581.00	  582.06	-1751.00	  376.48
     48.0700	  585.00	  587.93	-1752.86	  376.37
     48.1700	  525.00	  585.38	-1810.32	  376.26
     48.2700	  574.00	  576.76	-1752.69	  376.15
     48.3700	  586.00	  565.92	-1729.86	  376.04
     48.4700	  546.00	  556.03	-1759.97	  375.94
     48.5700	  496.00	  548.76	-1802.70	  375.84
     48.6700	  549.00	  544.70	-1745.64	  375.73
     48.7700	  505.00	  543.77	-1788.71	  375.63
     48.8700	  553.00	  545.62	-1742.56	  375.54
     48.9700	  505.00	  549.92	-1794.86	  375.44
     49.0700	  513.00	  556.61	-1793.54	  375.35
     49.1700	  564.00	  566.12	-1752.06	  375.26
     49.2700	  561.00	  579.77	-1768.71	  375.17
     49.3700	  564.00	  600.35	-1786.29	  375.08
     49.4700	  576.00	  633.11	-1807.05	  374.99
     49.5700	  596.00	  686.75	-1840.68	  374.91
     49.6700	  679.00	  773.70	-1844.63	  374.83
     49.7700	  821.00	  908.48	-1837.41	  374.74
     49.8700	 1015.00	 1103.12	-1838.05	  374.67
     49.9700	 1361.00	 1359.88	-1748.82	  374.59
     50.0700	 1695.00	 1662.19	-1717.13	  374.51
     50.1700	 2064.00	 1966.19	-1652.13	  374.44
     50.2700	 2372.00	 2197.80	-1575.73	  374.37
     50.3700	 2403.00	 2274.14	-1621.08	  374.30
     50.4700	 2187.00	 2160.20	-1723.14	  374.23
     50.5700	 1999.00	 1904.86	-1655.79	  374.17
     50.6700	 1539.00	 1596.70	-1807.64	  374.10
     50.7700	 1251.00	 1305.16	-1804.10	  374.04
     50.8700	  919.00	 1067.55	-1898.49	  373.98
     50.9700	  863.00	  894.82	-1781.76	  373.92
     51.0700	  718.00	  781.02	-1812.96	  373.87
     51.1700	  651.00	  711.65	-1810.58	  373.81
     51.2700	  609.00	  670.54	-1811.47	  373.76
     51.3700	  610.00	  644.12	-1784.06	  373.71
     51.4700	  636.00	  623.80	-1737.73	  373.66
     51.5700	  630.00	  606.02	-1725.96	  373.61
     51.6700	  559.00	  590.29	-1781.23	  373.56
     51.7700	  611.00	  576.98	-1715.92	  373.52
     51.8700	  573.00	  566.35	-1743.28	  373.48
     51.9700	  541.00	  558.37	-1767.30	  373.44
     52.0700	  602.00	  552.81	-1700.75	  373.40
     52.1700	  555.00	  549.35	-1744.28	  373.36
     52.2700	  548.00	  547.64	-1749.58	  373.33
     52.3700	  616.00	  547.52	-1681.45	  373.29
     52.4700	  560.00	  548.99	-1738.92	  373.26
     52.5700	  572.00	  552.41	-1730.34	  373.23
     52.6700	  541.00	  558.62	-1767.56	  373.20
     52.7700	  604.00	  569.18	-1715.12	  373.17
     52.8700	  608.00	  586.56	-1728.50	  373.15
     52.9700	  607.00	  614.18	-1757.12	  373.13
     53.0700	  678.00	  656.00	-1727.94	  373.10
     53.1700	  738.00	  715.53	-1727.47	  373.08
     53.2700	  827.00	  794.25	-1717.19	  373.06
     53.3700	  956.00	  889.63	-1683.57	  373.05
     53.4700	 1040.00	  992.96	-1702.90	  373.03
     53.5700	 1099.00	 1087.29	-1738.22	  373.02
     53.6700	 1192.00	 1148.57	-1706.50	  373.01
     53.7700	 1173.00	 1155.23	-1732.17	  373.00
     53.8700	 1151.00	 1104.35	-1703.29	  372.99
     53.9700	  998.00	 1014.81	-1766.74	  372.98
     54.0700	  934.00	  911.90	-1727.84	  372.97
     54.1700	  774.00	  814.50	-1790.44	  372.97
     54.2700	  711.00	  732.78	-1771.71	  372.97
     54.3700	  666.00	  670.26	-1754.19	  372.97
     54.4700	  606.00	  626.06	-1770.00	  372.97
     54.5700	  603.00	  596.90	-1743.83	  372.97
     54.6700	  602.00	  578.77	-1726.70	  372.97
     54.7700	  592.00	  568.07	-1726.01	  372.98
     54.8700	  585.00	  562.13	-1727.07	  372.98
     54.9700	  558.00	  559.21	-1751.15	  372.99
     55.0700	  535.00	  558.30	-1773.24	  373.00
     55.1700	  574.00	  558.89	-1734.83	  373.01
     55.2700	  573.00	  560.76	-1737.70	  373.03
     55.3700	  598.00	  563.86	-1715.80	  373.04
     55.4700	  593.00	  568.28	-1725.21	  373.06
     55.5700	  586.00	  574.23	-1738.16	  373.07
     55.6700	  593.00	  582.14	-1739.07	  373.09
     55.7700	  590.00	  592.82	-1752.75	  373.11
     55.8700	  606.00	  607.78	-1751.71	  373.13
     55.9700	  679.00	  629.75	-1700.69	  373.16
     56.0700	  624.00	  663.37	-1789.31	  373.18
     56.1700	  647.00	  715.83	-1818.76	  373.21
     56.2700	  742.00	  796.98	-1804.92	  373.23
     56.3700	  917.00	  918.49	-1751.42	  373.26
     56.4700	 1044.00	 1091.21	-1797.14	  373.29
     56.5700	 1287.00	 1320.96	-1783.89	  373.32
     56.6700	 1566.00	 1603.36	-1787.30	  373.35
     56.7700	 1781.00	 1918.13	-1887.07	  373.39
     56.8700	 2194.00	 2224.26	-1780.20	  373.42
     56.9700	 2418.00	 2458.71	-1790.64	  373.46
     57.0700	 2447.00	 2552.54	-1855.48	  373.50
     57.1700	 2510.00	 2471.72	-1711.66	  373.54
     57.2700	 2188.00	 2245.79	-1807.72	  373.58
     57.3700	 1975.00	 1943.68	-1718.62	  373.62
     57.4700	 1628.00	 1630.34	-1752.28	  373.66
     57.5700	 1275.00	 1348.48	-1823.42	  373.70
     57.6700	 1053.00	 1119.36	-1816.29	  373.75
     57.7700	  965.00	  948.43	-1733.37	  373.80
     57.8700	  831.00	  830.80	-1749.73	  373.84
     57.9700	  697.00	  756.61	-1809.54	  373.89
     58.0700	  695.00	  715.50	-1770.43	  373.94
     58.1700	  731.00	  699.21	-1718.14	  373.99
     58.2700	  758.00	  702.56	-1694.50	  374.05
     58.3700	  684.00	  722.95	-1788.89	  374.10
     58.4700	  780.00	  759.26	-1729.19	  374.16
     58.5700	  788.00	  810.43	-1772.36	  374.21
     58.6700	  897.00	  873.99	-1726.93	  374.27
     58.7700	  999.00	  944.87	-1695.81	  374.33
     58.8700	 1113.00	 1015.45	-1652.39	  374.39
     58.9700	 1104.00	 1078.25	-1724.19	  374.45
     59.0700	 1300.00	 1128.63	-1578.57	  374.51
     59.1700	 1303.00	 1163.15	-1610.09	  374.57
     59.2700	 1251.00	 1177.34	-1676.28	  374.63
     59.3700	 1294.00	 1169.76	-1625.70	  374.70
     59.4700	 1251.00	 1147.54	-1646.48	  374.76
     59.5700	 1266.00	 1123.75	-1607.69	  374.83
     59.6700	 1187.00	 1110.04	-1672.98	  374.90
     59.7700	 1107.00	 1113.27	-1756.21	  374.97
     59.8700	 1159.00	 1137.10	-1728.03	  375.04
     59.9700	 1240.00	 1184.14	-1694.07	  375.11
     60.0700	 1318.00	 1254.15	-1686.08	  375.18
     60.1700	 1452.00	 1340.04	-1637.97	  375.25
     60.2700	 1492.00	 1425.06	-1682.99	  375.33
     60.3700	 1533.00	 1483.79	-1700.73	  375.40
     60.4700	 1556.00	 1490.21	-1684.15	  375.48
     60.5700	 1552.00	 1433.20	-1631.14	  375.55
     60.6700	 1372.00	 1324.89	-1702.83	  375.63
     60.7700	 1194.00	 1190.63	-1746.57	  375.71
     60.8700	 1020.00	 1054.25	-1784.18	  375.79
     60.9700	  911.00	  931.99	-1770.93	  375.87
     61.0700	  766.00	  832.79	-1816.73	  375.95
     61.1700	  768.00	  759.86	-1741.80	  376.03
     61.2700	  660.00	  712.89	-1802.83	  376.11
     61.3700	  699.00	  690.00	-1740.94	  376.19
     61.4700	  718.00	  689.55	-1721.49	  376.28
     61.5700	  719.00	  711.10	-1742.04	  376.36
     61.6700	  794.00	  755.41	-1711.35	  376.45
     61.7700	  839.00	  823.41	-1734.35	  376.54
     61.8700	  912.00	  914.61	-1752.55	  376.62
     61.9700	 1018.00	 1025.24	-1757.18	  376.71
     62.0700	 1148.00	 1146.49	-1748.43	  376.80
     62.1700	 1212.00	 1263.21	-1801.14	  376.89
     62.2700	 1226.00	 1353.65	-1877.59	  376.98
     62.3700	 1284.00	 1394.43	-1860.37	  377.07
     62.4700	 1271.00	 1372.24	-1851.18	  377.16
     62.5700	 1258.00	 1293.58	-1785.52	  377.25
     62.6700	 1127.00	 1179.81	-1802.74	  377.34
     62.7700	  974.00	 1054.17	-1830.11	  377.44
     62.8700	  871.00	  934.14	-1813.08	  377.53
     62.9700	  736.00	  830.22	-1844.16	  377.63
     63.0700	  669.00	  747.09	-1828.03	  377.72
     63.1700	  633.00	  685.02	-1801.95	  377.82
     63.2700	  587.00	  641.56	-1804.50	  377.91
     63.3700	  590.00	  612.91	-1772.85	  378.01
     63.4700	  636.00	  595.27	-1709.21	  378.11
     63.5700	  604.00	  585.61	-1731.55	  378.20
     63.6700	  653.00	  581.99	-1678.93	  378.30
     63.7700	  577.00	  583.62	-1756.56	  378.40
     63.8700	  633.00	  590.70	-1707.64	  378.50
     63.9700	  624.00	  604.19	-1730.13	  378.60
     64.0700	  677.00	  625.51	-1698.45	  378.70
     64.1700	  652.00	  655.88	-1753.82	  378.80
     64.2700	  764.00	  696.14	-1682.08	  378.90
     64.3700	  796.00	  745.86	-1699.80	  379.01
     64.4700	  846.00	  802.84	-1706.78	  379.11
     64.5700	  921.00	  862.46	-1691.40	  379.21
     64.6700	  921.00	  917.42	-1746.36	  379.31
     64.7700	 1037.00	  958.55	-1671.49	  379.42
     64.8700	  999.00	  977.91	-1728.84	  379.52
     64.9700	 1007.00	  971.88	-1714.82	  379.62
     65.0700	 1016.00	  943.38	-1677.32	  379.73
     65.1700	  933.00	  899.40	-1716.34	  379.83
     65.2700	  890.00	  848.39	-1708.32	  379.94
     65.3700	  774.00	  797.12	-1773.05	  380.04
     65.4700	  705.00	  751.23	-1796.17	  380.15
     65.5700	  726.00	  712.18	-1736.11	  380.25
     65.6700	  646.00	  679.86	-1783.80	  380.36
     65.7700	  678.00	  653.34	-1725.28	  380.47
     65.8700	  594.00	  631.75	-1787.69	  380.57
     65.9700	  614.00	  614.68	-1750.61	  380.68
     66.0700	  634.00	  601.31	-1717.25	  380.79
     66.1700	  608.00	  591.48	-1733.42	  380.89
     66.2700	  569.00	  584.53	-1765.47	  381.00
     66.3700	  543.00	  580.22	-1787.16	  381.11
     66.4700	  545.00	  578.30	-1783.24	  381.22
     66.5700	  556.00	  578.62	-1772.56	  381.32
     66.6700	  575.00	  581.14	-1756.07	  381.43
     66.7700	  543.00	  586.04	-1792.97	  381.54
     66.8700	  585.00	  593.95	-1758.89	  381.65
     66.9700	  584.00	  605.82	-1771.75	  381.76
     67.0700	  617.00	  623.64	-1756.58	  381.86
     67.1700	  645.00	  650.43	-1755.37	  381.97
     67.2700	  639.00	  690.51	-1801.44	  382.08
     67.3700	  777.00	  749.42	-1722.36	  382.19
     67.4700	  813.00	  833.59	-1770.52	  382.30
     67.5700	  896.00	  949.17	-1803.11	  382.41
     67.6700	 1074.00	 1100.64	-1776.58	  382.52
     67.7700	 1242.00	 1288.64	-1796.58	  382.62
     67.8700	 1462.00	 1508.23	-1796.16	  382.73
     67.9700	 1713.00	 1746.76	-1783.70	  382.84
     68.0700	 2001.00	 1982.50	-1731.44	  382.95
     68.1700	 2208.00	 2184.02	-1725.96	  383.06
     68.2700	 2253.00	 2314.02	-1810.96	  383.17
     68.3700	 2374.00	 2341.67	-1717.61	  383.27
     68.4700	 2197.00	 2259.60	-1812.54	  383.38
     68.5700	 2121.00	 2088.84	-1717.78	  383.49
     68.6700	 1873.00	 1865.75	-1742.69	  383.60
     68.7700	 1743.00	 1625.63	-1632.56	  383.71
     68.8700	 1401.00	 1395.01	-1743.94	  383.81
     68.9700	 1168.00	 1190.85	-1772.79	  383.92
     69.0700	 1047.00	 1021.67	-1724.61	  384.03
     69.1700	  853.00	  889.34	-1786.27	  384.13
     69.2700	  773.00	  790.93	-1767.87	  384.24
     69.3700	  743.00	  720.88	-1727.82	  384.35
     69.4700	  695.00	  672.73	-1727.67	  384.45
     69.5700	  637.00	  640.41	-1753.35	  384.56
     69.6700	  606.00	  618.93	-1762.87	  384.66
     69.7700	  614.00	  604.61	-1740.55	  384.77
     69.8700	  607.00	  594.90	-1737.84	  384.88
     69.9700	  646.00	  588.22	-1692.15	  384.98
     70.0700	  611.00	  583.61	-1722.55	  385.08
     70.1700	  621.00	  580.37	-1709.31	  385.19
     70.2700	  583.00	  578.57	-1745.51	  385.29
     70.3700	  600.00	  577.90	-1727.83	  385.40
     70.4700	  582.00	  578.36	-1746.30	  385.50
     70.5700	  573.00	  580.10	-1757.03	  385.60
     70.6700	  546.00	  584.37	-1788.31	  385.70
     70.7700	  608.00	  589.85	-1731.79	  385.81
     70.8700	  643.00	  598.44	-1705.37	  385.91
     70.9700	  606.00	  611.61	-1755.54	  386.01
     71.0700	  618.00	  631.52	-1763.46	  386.11
     71.1700	  653.00	  661.10	-1758.04	  386.21
     71.2700	  692.00	  703.96	-1761.89	  386.31
     71.3700	  767.00	  764.11	-1747.04	  386.41
     71.4700	  823.00	  845.34	-1772.27	  386.51
     71.5700	  932.00	  950.39	-1768.32	  386.61
     71.6700	 1011.00	 1079.79	-1818.73	  386.70
     71.7700	 1200.00	 1230.80	-1780.73	  386.80
     71.8700	 1352.00	 1396.44	-1794.38	  386.90
     71.9700	 1538.00	 1564.58	-1776.52	  386.99
     72.0700	 1719.00	 1717.62	-1748.56	  387.09
     72.1700	 1715.00	 1833.29	-1868.23	  387.18
     72.2700	 1831.00	 1889.58	-1808.52	  387.28
     72.3700	 1846.00	 1873.75	-1777.69	  387.37
     72.4700	 1781.00	 1789.53	-1758.47	  387.46
     72.5700	 1655.00	 1654.82	-1749.76	  387.56
     72.6700	 1472.00	 1492.66	-1770.60	  387.65
     72.7700	 1323.00	 1323.63	-1750.56	  387.74
     72.8700	 1236.00	 1162.85	-1676.79	  387.83
     72.9700	 1052.00	 1020.11	-1718.05	  387.92
     73.0700	  956.00	  900.33	-1694.27	  388.01
     73.1700	  836.00	  804.67	-1718.61	  388.10
     73.2700	  815.00	  731.51	-1666.45	  388.19
     73.3700	  753.00	  677.59	-1674.52	  388.27
     73.4700	  633.00	  639.01	-1755.94	  388.36
     73.5700	  686.00	  611.95	-1675.88	  388.44
     73.6700	  604.00	  593.14	-1739.08	  388.53
     73.7700	  588.00	  580.05	-1741.99	  388.61
     73.8700	  574.00	  570.86	-1746.80	  388.70
     73.9700	  579.00	  564.34	-1735.28	  388.78
     74.0700	  573.00	  559.19	-1736.12	  388.86
     74.1700	  586.00	  555.97	-1719.90	  388.94
     74.2700	  613.00	  553.83	-1690.77	  389.02
     74.3700	  617.00	  552.55	-1685.49	  389.10
     74.4700	  595.00	  551.91	-1706.85	  389.18
     74.5700	  599.00	  551.70	-1702.63	  389.25
     74.6700	  592.00	  551.66	-1709.60	  389.33
     74.7700	  628.00	  551.54	-1673.48	  389.41
     74.8700	  647.00	  551.06	-1654.00	  389.48
     74.9700	  639.00	  550.06	-1660.99	  389.56
     75.0700	  614.00	  548.54	-1684.47	  389.63
     75.1700	  634.00	  546.70	-1662.63	  389.70
     75.2700	  607.00	  544.84	-1687.78	  389.77
     75.3700	  580.00	  543.31	-1713.25	  389.84
     75.4700	  555.00	  542.48	-1737.42	  389.91
     75.5700	  623.00	  542.72	-1669.65	  389.98
     75.6700	  607.00	  544.41	-1687.34	  390.04
     75.7700	  571.00	  547.97	-1726.91	  390.11
     75.8700	  590.00	  553.81	-1713.74	  390.18
     75.9700	  587.00	  562.27	-1725.21	  390.24
     76.0700	  669.00	  573.53	-1654.47	  390.30
     76.1700	  581.00	  587.71	-1756.65	  390.36
     76.2700	  639.00	  604.47	-1715.41	  390.43
     76.3700	  625.00	  623.13	-1748.06	  390.49
     76.4700	  641.00	  642.55	-1751.49	  390.54
     76.5700	  597.00	  661.12	-1814.06	  390.60
     76.6700	  710.00	  676.64	-1716.58	  390.66
     76.7700	  690.00	  686.96	-1746.90	  390.71
     76.8700	  676.00	  690.08	-1764.02	  390.77
     76.9700	  689.00	  685.30	-1746.24	  390.82
     77.0700	  701.00	  673.52	-1722.46	  390.87
     77.1700	  634.00	  656.76	-1772.70	  390.92
     77.2700	  668.00	  637.33	-1719.27	  390.97
     77.3700	  651.00	  617.26	-1716.20	  391.02
     77.4700	  608.00	  598.08	-1740.02	  391.07
     77.5700	  582.00	  580.82	-1748.76	  391.12
     77.6700	  547.00	  566.05	-1768.98	  391.16
     77.7700	  557.00	  553.96	-1746.90	  391.20
     77.8700	  516.00	  544.42	-1778.36	  391.25
     77.9700	  540.00	  537.23	-1747.17	  391.29
     78.0700	  529.00	  531.95	-1752.88	  391.33
     78.1700	  516.00	  528.16	-1762.10	  391.37
     78.2700	  568.00	  525.28	-1707.22	  391.40
     78.3700	  510.00	  523.43	-1763.36	  391.44
     78.4700	  507.00	  522.13	-1765.07	  391.48
     78.5700	  499.00	  521.23	-1772.17	  391.51
     78.6700	  538.00	  520.61	-1732.55	  391.54
     78.7700	  497.00	  520.19	-1773.12	  391.57
     78.8700	  484.00	  519.92	-1785.86	  391.60
     78.9700	  535.00	  519.80	-1734.74	  391.63
     79.0700	  507.00	  519.81	-1762.75	  391.66
     79.1700	  447.00	  519.97	-1822.91	  391.68
     79.2700	  532.00	  520.30	-1738.23	  391.71
     79.3700	  502.00	  520.81	-1768.75	  391.73
     79.4700	  502.00	  521.54	-1769.48	  391.75
     79.5700	  493.00	  522.55	-1779.49	  391.77
     79.6700	  491.00	  523.88	-1782.81	  391.79
     79.7700	  492.00	  525.59	-1783.53	  391.81
     79.8700	  528.00	  527.79	-1749.73	  391.83
     79.9700	  558.00	  530.56	-1722.50	  391.84
     80.0700	  523.00	  534.04	-1760.98	  391.86
     80.1700	  519.00	  538.36	-1769.30	  391.87
     80.2700	  553.00	  543.68	-1740.62	  391.88
     80.3700	  511.00	  550.14	-1789.08	  391.89
     80.4700	  511.00	  557.92	-1796.85	  391.89
     80.5700	  564.00	  567.16	-1753.09	  391.90
     80.6700	  578.00	  577.97	-1749.91	  391.91
     80.7700	  583.00	  590.15	-1757.09	  391.91
     80.8700	  627.00	  603.93	-1726.86	  391.91
     80.9700	  615.00	  618.65	-1753.59	  391.91
     81.0700	  626.00	  633.65	-1757.59	  391.91
     81.1700	  687.00	  648.08	-1711.02	  391.91
     81.2700	  682.00	  661.08	-1729.02	  391.90
     81.3700	  687.00	  671.97	-1734.90	  391.90
     81.4700	  701.00	  680.35	-1729.28	  391.89
     81.5700	  716.00	  686.04	-1719.97	  391.88
     81.6700	  694.00	  689.00	-1744.94	  391.87
     81.7700	  696.00	  689.28	-1743.22	  391.86
     81.8700	  767.00	  686.92	-1669.86	  391.85
     81.9700	  703.00	  681.93	-1728.87	  391.83
     82.0700	  728.00	  674.39	-1696.32	  391.81
     82.1700	  705.00	  664.61	-1709.55	  391.80
     82.2700	  673.00	  653.19	-1730.13	  391.78
     82.3700	  638.00	  640.80	-1752.74	  391.76
     82.4700	  679.00	  628.00	-1698.94	  391.73
     82.5700	  662.00	  615.19	-1703.13	  391.71
     82.6700	  588.00	  602.65	-1764.59	  391.68
     82.7700	  579.00	  590.67	-1761.61	  391.66
     82.8700	  580.00	  579.59	-1749.52	  391.63
     82.9700	  588.00	  569.73	-1731.67	  391.60
     83.0700	  560.00	  561.37	-1751.31	  391.56
     83.1700	  575.00	  554.67	-1729.60	  391.53
     83.2700	  506.00	  549.69	-1793.63	  391.49
     83.3700	  542.00	  546.43	-1754.37	  391.46
     83.4700	  571.00	  544.82	-1723.76	  391.42
     83.5700	  524.00	  544.69	-1770.63	  391.38
     83.6700	  541.00	  545.84	-1754.77	  391.33
     83.7700	  494.00	  547.97	-1803.91	  391.29
     83.8700	  541.00	  550.74	-1759.67	  391.24
     83.9700	  519.00	  553.73	-1784.67	  391.20
     84.0700	  540.00	  556.48	-1766.42	  391.15
     84.1700	  480.00	  558.44	-1828.38	  391.10
     84.2700	  521.00	  559.28	-1788.22	  391.05
     84.3700	  520.00	  558.75	-1788.68	  390.99
     84.4700	  559.00	  556.78	-1747.71	  390.94
     84.5700	  529.00	  553.60	-1774.54	  390.88
     84.6700	  554.00	  549.58	-1745.52	  390.82
     84.7700	  602.00	  545.11	-1693.04	  390.76
     84.8700	  482.00	  540.53	-1808.47	  390.70
     84.9700	  523.00	  536.14	-1763.08	  390.63
     85.0700	  504.00	  532.13	-1778.06	  390.57
     85.1700	  501.00	  528.62	-1777.56	  390.50
     85.2700	  521.00	  525.69	-1754.62	  390.43
     85.3700	  551.00	  523.34	-1722.28	  390.36
     85.4700	  494.00	  521.55	-1777.49	  390.28
     85.5700	  512.00	  520.27	-1758.20	  390.21
     85.6700	  545.00	  519.42	-1724.35	  390.13
     85.7700	  495.00	  518.97	-1773.91	  390.06
     85.8700	  509.00	  518.89	-1759.82	  389.98
     85.9700	  488.00	  519.14	-1781.07	  389.89
     86.0700	  538.00	  519.73	-1731.67	  389.81
     86.1700	  561.00	  520.72	-1709.66	  389.73
     86.2700	  485.00	  522.16	-1787.10	  389.64
     86.3700	  525.00	  524.16	-1749.10	  389.55
     86.4700	  529.00	  526.85	-1747.78	  389.46
     86.5700	  557.00	  530.35	-1723.28	  389.37
     86.6700	  541.00	  534.80	-1743.73	  389.28
     86.7700	  544.00	  540.31	-1746.25	  389.18
     86.8700	  515.00	  546.98	-1781.92	  389.08
     86.9700	  532.00	  554.81	-1772.75	  388.98
     87.0700	  548.00	  563.72	-1765.66	  388.88
     87.1700	  561.00	  573.52	-1762.46	  388.78
     87.2700	  559.00	  583.88	-1774.82	  388.68
     87.3700	  590.00	  594.32	-1754.26	  388.57
     87.4700	  617.00	  604.22	-1737.15	  388.46
     87.5700	  641.00	  612.81	-1721.75	  388.35
     87.6700	  585.00	  619.29	-1784.23	  388.24
     87.7700	  634.00	  622.94	-1738.88	  388.13
     87.8700	  627.00	  623.35	-1746.28	  388.01
     87.9700	  626.00	  620.55	-1744.49	  387.90
     88.0700	  645.00	  615.05	-1719.99	  387.78
     88.1700	  644.00	  607.62	-1713.56	  387.66
     88.2700	  593.00	  599.14	-1756.07	  387.54
     88.3700	  587.00	  590.42	-1753.36	  387.41
     88.4700	  603.00	  582.20	-1729.14	  387.29
     88.5700	  551.00	  575.05	-1773.99	  387.16
     88.6700	  545.00	  569.39	-1774.33	  387.03
     88.7700	  589.00	  565.07	-1726.01	  386.90
     88.8700	  533.00	  563.04	-1779.98	  386.77
     88.9700	  573.00	  562.83	-1739.77	  386.63
     89.0700	  535.00	  564.25	-1779.19	  386.50
     89.1700	  579.00	  566.99	-1737.93	  386.36
     89.2700	  605.00	  570.63	-1715.57	  386.22
     89.3700	  591.00	  574.67	-1733.60	  386.08
     89.4700	  609.00	  578.52	-1719.46	  385.94
     89.5700	  615.00	  581.60	-1716.54	  385.79
     89.6700	  597.00	  583.35	-1736.28	  385.64
     89.7700	  640.00	  583.38	-1693.32	  385.50
     89.8700	  575.00	  581.56	-1756.50	  385.35
     89.9700	  543.00	  578.04	-1784.97	  385.19
     90.0700	  593.00	  573.16	-1730.10	  385.04
     90.1700	  592.00	  567.39	-1725.32	  384.88
     90.2700	  518.00	  561.16	-1793.10	  384.73
     90.3700	  494.00	  554.88	-1810.81	  384.57
     90.4700	  547.00	  548.85	-1751.79	  384.41
     90.5700	  523.00	  543.32	-1770.26	  384.25
     90.6700	  506.00	  538.44	-1782.38	  384.08
     90.7700	  547.00	  534.31	-1737.24	  383.92
     90.8700	  549.00	  530.94	-1731.87	  383.75
     90.9700	  496.00	  528.32	-1782.25	  383.58
     91.0700	  490.00	  526.40	-1786.34	  383.41
     91.1700	  484.00	  525.12	-1791.06	  383.23
     91.2700	  494.00	  524.42	-1780.35	  383.06
     91.3700	  510.00	  524.24	-1764.18	  382.88
     91.4700	  511.00	  524.57	-1763.51	  382.71
     91.5700	  540.00	  525.40	-1735.34	  382.53
     91.6700	  497.00	  526.78	-1779.71	  382.35
     91.7700	  507.00	  528.77	-1771.70	  382.16
     91.8700	  471.00	  531.48	-1810.42	  381.98
     91.9700	  520.00	  535.06	-1765.00	  381.79
     92.0700	  524.00	  539.66	-1765.60	  381.60
     92.1700	  538.00	  545.46	-1757.40	  381.41
     92.2700	  569.00	  552.62	-1733.55	  381.22
     92.3700	  545.00	  561.28	-1766.22	  381.03
     92.4700	  547.00	  571.56	-1774.50	  380.84
     92.5700	  566.00	  583.50	-1767.44	  380.64
     92.6700	  567.00	  597.06	-1780.00	  380.44
     92.7700	  617.00	  612.13	-1745.06	  380.24
     92.8700	  553.00	  628.46	-1825.39	  380.04
     92.9700	  628.00	  645.70	-1767.64	  379.84
     93.0700	  681.00	  663.40	-1732.34	  379.63
     93.1700	  658.00	  680.97	-1772.91	  379.43
     93.2700	  676.00	  697.79	-1771.73	  379.22
     93.3700	  706.00	  713.31	-1757.24	  379.01
     93.4700	  748.00	  727.15	-1729.09	  378.80
     93.5700	  734.00	  739.33	-1755.26	  378.59
     93.6700	  757.00	  750.17	-1743.11	  378.38
     93.7700	  788.00	  760.24	-1722.18	  378.16
     93.8700	  770.00	  770.14	-1750.07	  377.94
     93.9700	  847.00	  780.32	-1683.26	  377.72
     94.0700	  830.00	  790.78	-1710.72	  377.50
     94.1700	  875.00	  802.23	-1677.17	  377.28
     94.2700	  838.00	  814.36	-1726.30	  377.06
     94.3700	  862.00	  827.16	-1715.10	  376.84
     94.4700	  875.00	  840.59	-1715.52	  376.61
     94.5700	  877.00	  854.53	-1727.46	  376.38
     94.6700	  879.00	  868.65	-1739.59	  376.15
     94.7700	  858.00	  882.30	-1774.23	  375.92
     94.8700	  921.00	  894.45	-1723.38	  375.69
     94.9700	  879.00	  903.78	-1774.72	  375.46
     95.0700	  946.00	  908.85	-1712.79	  375.22
     95.1700	  862.00	  908.36	-1796.29	  374.99
     95.2700	  905.00	  901.50	-1746.44	  374.75
     95.3700	  887.00	  888.28	-1751.22	  374.51
     95.4700	  909.00	  869.51	-1710.44	  374.27
     95.5700	  818.00	  846.63	-1778.57	  374.03
     95.6700	  792.00	  821.40	-1779.34	  373.78
     95.7700	  769.00	  795.67	-1776.60	  373.54
     95.8700	  775.00	  771.17	-1746.11	  373.29
     95.9700	  714.00	  749.53	-1785.47	  373.05
     96.0700	  740.00	  732.19	-1742.13	  372.80
     96.1700	  740.00	  720.43	-1730.37	  372.55
     96.2700	  680.00	  715.38	-1785.32	  372.30
     96.3700	  685.00	  718.01	-1782.95	  372.04
     96.4700	  696.00	  729.11	-1783.04	  371.79
     96.5700	  745.00	  749.27	-1754.21	  371.53
     96.6700	  775.00	  778.90	-1753.83	  371.28
     96.7700	  863.00	  818.10	-1705.04	  371.02
     96.8700	  856.00	  866.68	-1760.62	  370.76
     96.9700	  924.00	  924.03	-1749.96	  370.50
     97.0700	 1017.00	  989.10	-1722.04	  370.24
     97.1700	 1057.00	 1060.34	-1753.27	  369.98
     97.2700	 1088.00	 1135.59	-1797.53	  369.71
     97.3700	 1227.00	 1212.13	-1735.07	  369.45
     97.4700	 1248.00	 1286.61	-1788.55	  369.18
     97.5700	 1368.00	 1355.16	-1737.10	  368.91
     97.6700	 1403.00	 1413.58	-1760.52	  368.65
     97.7700	 1419.00	 1457.72	-1788.65	  368.38
     97.8700	 1516.00	 1484.14	-1718.08	  368.11
     97.9700	 1465.00	 1490.83	-1775.77	  367.83
     98.0700	 1422.00	 1477.67	-1805.60	  367.56
     98.1700	 1438.00	 1446.37	-1758.31	  367.29
     98.2700	 1418.00	 1400.11	-1732.04	  367.01
     98.3700	 1266.00	 1342.77	-1826.70	  366.74
     98.4700	 1169.00	 1278.48	-1859.42	  366.46
     98.5700	 1215.00	 1211.18	-1746.12	  366.18
     98.6700	 1142.00	 1144.42	-1752.35	  365.90
     98.7700	 1072.00	 1081.30	-1759.24	  365.62
     98.8700	  917.00	 1024.43	-1857.37	  365.34
     98.9700	  936.00	  975.93	-1789.87	  365.06
     99.0700	  891.00	  937.48	-1796.42	  364.78
     99.1700	  891.00	  910.37	-1769.31	  364.49
     99.2700	  894.00	  895.55	-1751.49	  364.21
     99.3700	  880.00	  893.66	-1763.60	  363.92
     99.4700	  946.00	  905.05	-1708.98	  363.64
     99.5700	  925.00	  929.77	-1754.71	  363.35
     99.6700	  919.00	  967.63	-1798.57	  363.06
     99.7700	 1007.00	 1018.13	-1761.07	  362.78
     99.8700	 1152.00	 1080.48	-1678.41	  362.49
     99.9700	 1144.00	 1153.49	-1759.43	  362.20
    100.0700	 1278.00	 1235.64	-1707.58	  361.91
    100.1700	 1297.00	 1324.88	-1777.82	  361.61
    100.2700	 1376.00	 1418.66	-1792.60	  361.32
    100.3700	 1507.00	 1513.92	-1756.86	  361.03
    100.4700	 1692.00	 1607.26	-1665.20	  360.74
    100.5700	 1709.00	 1695.06	-1736.00	  360.44
    100.6700	 1868.00	 1773.97	-1655.91	  360.15
    100.7700	 1878.00	 1841.23	-1713.16	  359.85
    100.8700	 1882.00	 1894.93	-1762.86	  359.56
    100.9700	 1986.00	 1933.94	-1697.88	  359.26
    101.0700	 1962.00	 1957.61	-1745.55	  358.96
    101.1700	 2025.00	 1965.50	-1690.43	  358.66
    101.2700	 1994.00	 1957.24	-1713.17	  358.37
    101.3700	 1978.00	 1932.79	-1704.72	  358.07
    101.4700	 1889.00	 1892.86	-1753.80	  357.77
    101.5700	 1857.00	 1839.22	-1732.15	  357.47
    101.6700	 1819.00	 1774.72	-1705.65	  357.17
    101.7700	 1770.00	 1703.05	-1682.98	  356.87
    101.8700	 1556.00	 1628.13	-1822.07	  356.57
    101.9700	 1567.00	 1553.69	-1736.62	  356.27
    102.0700	 1445.00	 1482.79	-1787.73	  355.97
    102.1700	 1438.00	 1417.76	-1729.70	  355.67
    102.2700	 1334.00	 1360.09	-1776.03	  355.36
    102.3700	 1332.00	 1310.44	-1728.38	  355.06
    102.4700	 1317.00	 1268.72	-1701.66	  354.76
    102.5700	 1177.00	 1234.13	-1807.07	  354.46
    102.6700	 1205.00	 1205.29	-1750.23	  354.15
    102.7700	 1138.00	 1180.37	-1792.31	  353.85
    102.8700	 1115.00	 1157.26	-1792.20	  353.55
    102.9700	 1123.00	 1133.87	-1760.81	  353.25
    103.0700	 1039.00	 1108.40	-1819.34	  352.94
    103.1700	 1077.00	 1079.64	-1752.58	  352.64
    103.2700	 1083.00	 1047.11	-1714.05	  352.34
    103.3700	 1034.00	 1011.00	-1726.94	  352.03
    103.4700	  924.00	  972.01	-1797.95	  351.73
    103.5700	  977.00	  931.12	-1704.06	  351.43
    103.6700	  908.00	  889.41	-1731.35	  351.12
    103.7700	  822.00	  847.91	-1775.85	  350.82
    103.8700	  800.00	  807.56	-1757.49	  350.52
    103.9700	  778.00	  769.15	-1741.09	  350.22
    104.0700	  756.00	  733.33	-1727.26	  349.91
    104.1700	  697.00	  700.54	-1753.48	  349.61
    104.2700	  733.00	  671.10	-1688.04	  349.31
    104.3700	  683.00	  645.14	-1712.08	  349.01
    104.4700	  608.00	  622.67	-1764.60	  348.71
    104.5700	  632.00	  603.56	-1721.50	  348.41
    104.6700	  604.00	  587.61	-1733.55	  348.10
    104.7700	  542.00	  574.54	-1782.47	  347.80
    104.8700	  631.00	  564.04	-1682.97	  347.50
    104.9700	  570.00	  555.79	-1735.73	  347.20
    105.0700	  613.00	  549.50	-1686.44	  346.91
    105.1700	  592.00	  544.87	-1702.80	  346.61
    105.2700	  537.00	  541.65	-1754.59	  346.31
    105.3700	  530.00	  539.64	-1759.58	  346.01
    105.4700	  546.00	  538.67	-1742.61	  345.71
    105.5700	  559.00	  538.61	-1729.55	  345.42
    105.6700	  509.00	  539.38	-1780.32	  345.12
    105.7700	  551.00	  540.92	-1739.86	  344.83
    105.8700	  536.00	  543.20	-1757.14	  344.53
    105.9700	  549.00	  546.21	-1747.15	  344.24
    106.0700	  575.00	  549.99	-1724.93	  343.95
    106.1700	  511.00	  554.56	-1793.50	  343.65
    106.2700	  542.00	  559.96	-1767.90	  343.36
    106.3700	  560.00	  566.23	-1756.17	  343.07
    106.4700	  559.00	  573.38	-1764.31	  342.78
    106.5700	  580.00	  581.42	-1751.35	  342.49
    106.6700	  565.00	  590.29	-1775.23	  342.21
    106.7700	  566.00	  599.91	-1783.84	  341.92
    106.8700	  616.00	  610.11	-1744.04	  341.64
    106.9700	  631.00	  620.69	-1739.63	  341.35
    107.0700	  642.00	  631.40	-1739.33	  341.07
    107.1700	  679.00	  641.92	-1712.86	  340.79
    107.2700	  630.00	  651.91	-1771.84	  340.50
    107.3700	  663.00	  660.98	-1747.92	  340.22
    107.4700	  658.00	  668.78	-1760.72	  339.95
    107.5700	  637.00	  674.98	-1787.92	  339.67
    107.6700	  686.00	  679.39	-1743.33	  339.39
    107.7700	  651.00	  681.94	-1780.88	  339.12
    107.8700	  737.00	  682.75	-1695.69	  338.84
    107.9700	  671.00	  682.07	-1761.01	  338.57
    108.0700	  678.00	  680.30	-1752.24	  338.30
    108.1700	  668.00	  677.86	-1759.80	  338.03
    108.2700	  635.00	  675.18	-1790.12	  337.76
    108.3700	  706.00	  672.64	-1716.57	  337.50
    108.4700	  693.00	  670.53	-1727.46	  337.23
    108.5700	  690.00	  669.07	-1729.01	  336.97
    108.6700	  720.00	  668.37	-1698.31	  336.71
    108.7700	  691.00	  668.44	-1727.38	  336.45
    108.8700	  689.00	  669.20	-1730.13	  336.19
    108.9700	  690.00	  670.44	-1730.38	  335.94
    109.0700	  653.00	  671.90	-1768.84	  335.68
    109.1700	  646.00	  673.23	-1777.17	  335.43
    109.2700	  744.00	  674.04	-1679.98	  335.18
    109.3700	  709.00	  673.94	-1714.88	  334.93
    109.4700	  702.00	  672.60	-1720.53	  334.68
    109.5700	  690.00	  669.76	-1729.69	  334.44
    109.6700	  623.00	  665.32	-1792.25	  334.20
    109.7700	  701.00	  659.32	-1708.25	  333.96
    109.8700	  679.00	  651.92	-1722.85	  333.72
    109.9700	  644.00	  643.37	-1749.31	  333.48
    110.0700	  652.00	  633.98	-1731.92	  333.25
    110.1700	  585.00	  624.08	-1789.01	  333.02
    110.2700	  608.00	  613.96	-1755.89	  332.79
    110.3700	  640.00	  603.90	-1713.84	  332.56
    110.4700	  621.00	  594.16	-1723.10	  332.34
    110.5700	  578.00	  584.95	-1756.89	  332.11
    110.6700	  560.00	  576.43	-1766.37	  331.89
    110.7700	  584.00	  568.74	-1734.68	  331.68
    110.8700	  545.00	  561.96	-1766.90	  331.46
    110.9700	  556.00	  556.14	-1750.08	  331.25
    111.0700	  559.00	  551.31	-1742.24	  331.04
    111.1700	  577.00	  547.44	-1720.38	  330.83
    111.2700	  583.00	  544.51	-1711.44	  330.63
    111.3700	  568.00	  542.45	-1724.38	  330.43
    111.4700	  521.00	  541.19	-1770.13	  330.23
    111.5700	  547.00	  540.66	-1743.60	  330.03
    111.6700	  547.00	  540.77	-1743.70	  329.84
    111.7700	  575.00	  541.43	-1716.37	  329.65
    111.8700	  572.00	  542.57	-1720.51	  329.46
    111.9700	  550.00	  544.10	-1744.04	  329.28
    112.0700	  508.00	  545.97	-1787.90	  329.10
    112.1700	  540.00	  548.10	-1758.04	  328.92
    112.2700	  540.00	  550.46	-1760.40	  328.75
    112.3700	  558.00	  553.01	-1744.95	  328.58
    112.4700	  558.00	  555.74	-1747.68	  328.41
    112.5700	  563.00	  558.65	-1745.59	  328.24
    112.6700	  520.00	  561.77	-1791.70	  328.08
    112.7700	  556.00	  565.12	-1759.05	  327.92
    112.8700	  558.00	  568.75	-1760.69	  327.77
    112.9700	  597.00	  572.75	-1725.68	  327.62
    113.0700	  584.00	  577.17	-1743.11	  327.47
    113.1700	  576.00	  582.13	-1756.07	  327.33
    113.2700	  550.00	  587.76	-1787.70	  327.19
    113.3700	  522.00	  594.21	-1822.14	  327.05
    113.4700	  605.00	  601.66	-1746.60	  326.92
    113.5700	  601.00	  610.38	-1759.31	  326.79
    113.6700	  627.00	  620.66	-1743.59	  326.67
    113.7700	  615.00	  632.89	-1767.83	  326.54
    113.8700	  648.00	  647.57	-1749.50	  326.43
    113.9700	  681.00	  665.28	-1734.21	  326.31
    114.0700	  693.00	  686.75	-1743.69	  326.21
    114.1700	  693.00	  712.88	-1769.82	  326.10
    114.2700	  799.00	  744.72	-1695.66	  326.00
    114.3700	  796.00	  783.52	-1737.46	  325.90
    114.4700	  825.00	  830.71	-1755.64	  325.81
    114.5700	  914.00	  887.91	-1723.85	  325.72
    114.6700	  954.00	  956.95	-1752.88	  325.64
    114.7700	 1071.00	 1039.80	-1718.74	  325.56
    114.8700	 1153.00	 1138.57	-1735.50	  325.48
    114.9700	 1303.00	 1255.39	-1702.33	  325.41
    115.0700	 1495.00	 1392.39	-1647.32	  325.35
    115.1700	 1582.00	 1551.60	-1719.54	  325.29
    115.2700	 1832.00	 1734.87	-1652.81	  325.23
    115.3700	 1951.00	 1943.63	-1742.57	  325.18
    115.4700	 2341.00	 2178.86	-1587.80	  325.13
    115.5700	 2535.00	 2440.86	-1655.80	  325.09
    115.6700	 2818.00	 2729.29	-1661.22	  325.05
    115.7700	 3061.00	 3042.91	-1731.85	  325.02
    115.8700	 3420.00	 3379.46	-1709.40	  325.00
    115.9700	 3780.00	 3735.62	-1705.56	  324.97
    116.0700	 4020.00	 4106.98	-1836.92	  324.96
    116.1700	 4464.00	 4488.05	-1773.99	  324.95
    116.2700	 4752.00	 4872.26	-1870.20	  324.94
    116.3700	 5061.00	 5251.84	-1940.77	  324.94
    116.4700	 5560.00	 5618.05	-1807.99	  324.94
    116.5700	 5905.00	 5961.31	-1806.25	  324.95
    116.6700	 6390.00	 6271.54	-1631.47	  324.97
    116.7700	 6544.00	 6538.48	-1744.41	  324.99
    116.8700	 6587.00	 6752.24	-1915.18	  325.02
    116.9700	 6819.00	 6904.22	-1835.16	  325.05
    117.0700	 6996.00	 6987.92	-1741.86	  325.09
    117.1700	 6960.00	 6999.75	-1789.69	  325.13
    117.2700	 6849.00	 6939.43	-1840.37	  325.18
    117.3700	 6861.00	 6810.09	-1699.03	  325.23
    117.4700	 6469.00	 6617.82	-1898.76	  325.30
    117.5700	 6463.00	 6370.98	-1657.91	  325.36
    117.6700	 5969.00	 6079.19	-1860.12	  325.44
    117.7700	 5680.00	 5752.57	-1822.51	  325.52
    117.8700	 5298.00	 5401.28	-1853.21	  325.60
    117.9700	 5011.00	 5034.83	-1773.77	  325.69
    118.0700	 4616.00	 4662.02	-1795.96	  325.79
    118.1700	 4258.00	 4290.49	-1782.42	  325.90
    118.2700	 3911.00	 3926.79	-1765.73	  326.01
    118.3700	 3666.00	 3576.49	-1660.42	  326.13
    118.4700	 3448.00	 3243.93	-1545.87	  326.25
    118.5700	 3138.00	 2932.43	-1544.37	  326.38
    118.6700	 2702.00	 2644.19	-1692.12	  326.52
    118.7700	 2316.00	 2380.44	-1814.37	  326.66
    118.8700	 2080.00	 2141.71	-1811.64	  326.82
    118.9700	 1858.00	 1927.77	-1819.70	  326.97
    119.0700	 1788.00	 1737.85	-1699.79	  327.14
    119.1700	 1593.00	 1570.69	-1727.62	  327.31
    119.2700	 1394.00	 1424.70	-1780.63	  327.49
    119.3700	 1339.00	 1298.13	-1709.07	  327.68
    119.4700	 1263.00	 1189.11	-1676.04	  327.87
    119.5700	 1094.00	 1095.70	-1751.64	  328.07
    119.6700	 1060.00	 1016.03	-1705.97	  328.28
    119.7700	  966.00	  948.28	-1732.22	  328.50
    119.8700	  869.00	  890.82	-1771.76	  328.72
    119.9700	  855.00	  842.15	-1737.08	  328.95
    120.0700	  829.00	  800.93	-1721.87	  329.19
    120.1700	  787.00	  766.01	-1728.95	  329.44
    120.2700	  733.00	  736.40	-1753.33	  329.69
    120.3700	  725.00	  711.25	-1736.19	  329.96
    120.4700	  677.00	  689.88	-1762.81	  330.23
    120.5700	  682.00	  671.69	-1739.63	  330.51
    120.6700	  636.00	  656.22	-1770.16	  330.79
    120.7700	  641.00	  643.08	-1752.02	  331.09
    120.8700	  647.00	  631.95	-1734.89	  331.39
    120.9700	  618.00	  622.58	-1754.52	  331.70
    121.0700	  578.00	  614.76	-1786.69	  332.02
    121.1700	  607.00	  608.32	-1751.25	  332.35
    121.2700	  592.00	  603.12	-1761.06	  332.68
    121.3700	  576.00	  599.05	-1772.98	  333.03
    121.4700	  584.00	  596.01	-1761.94	  333.38
    121.5700	  580.00	  593.91	-1763.85	  333.74
    121.6700	  589.00	  592.69	-1753.63	  334.12
    121.7700	  570.00	  592.27	-1772.20	  334.50
    121.8700	  579.00	  592.58	-1763.52	  334.88
    121.9700	  575.00	  593.56	-1768.50	  335.28
    122.0700	  570.00	  595.15	-1775.09	  335.69
    122.1700	  559.00	  597.27	-1788.21	  336.11
    122.2700	  614.00	  599.85	-1735.78	  336.53
    122.3700	  597.00	  602.80	-1755.74	  336.97
    122.4700	  607.00	  606.05	-1748.99	  337.41
    122.5700	  578.00	  609.50	-1781.43	  337.86
    122.6700	  608.00	  613.04	-1754.98	  338.33
    122.7700	  655.00	  616.58	-1711.52	  338.80
    122.8700	  588.00	  620.01	-1781.94	  339.28
    122.9700	  650.00	  623.20	-1723.14	  339.78
    123.0700	  658.00	  626.06	-1718.00	  340.28
    123.1700	  649.00	  628.49	-1729.42	  340.79
    123.2700	  664.00	  630.38	-1716.32	  341.31
    123.3700	  614.00	  631.69	-1767.62	  341.84
    123.4700	  664.00	  632.35	-1718.28	  342.39
    123.5700	  658.00	  632.35	-1724.29	  342.94
    123.6700	  618.00	  631.71	-1763.65	  343.50
    123.7700	  623.00	  630.45	-1757.39	  344.08
    123.8700	  599.00	  628.63	-1779.57	  344.66
    123.9700	  644.00	  626.31	-1732.24	  345.26
    124.0700	  653.00	  623.56	-1720.50	  345.86
    124.1700	  624.00	  620.44	-1746.38	  346.48
    124.2700	  591.00	  617.08	-1776.01	  347.10
    124.3700	  613.00	  613.51	-1750.45	  347.74
    124.4700	  595.00	  609.82	-1764.75	  348.39
    124.5700	  616.00	  606.06	-1740.00	  349.05
    124.6700	  616.00	  602.31	-1736.25	  349.72
    124.7700	  571.00	  598.62	-1777.55	  350.40
    124.8700	  548.00	  595.03	-1796.97	  351.10
    124.9700	  614.00	  460.12	-1596.05	  351.80
    125.0700	  626.00	  460.83	-1749.94	  352.52
    125.1700	  576.00	  461.56	-1749.94	  353.25
    125.2700	  615.00	  462.30	-1749.94	  353.99
    125.3700	  576.00	  463.05	-1749.94	  354.74
    125.4700	  553.00	  463.82	-1749.94	  355.50
    125.5700	  561.00	  464.59	-1749.94	  356.28
    125.6700	  591.00	  465.38	-1749.94	  357.07
    125.7700	  581.00	  466.18	-1749.94	  357.87
    125.8700	  568.00	  466.99	-1749.94	  358.68
    125.9700	  579.00	  467.81	-1749.94	  359.50
    126.0700	  577.00	  468.65	-1749.94	  360.34
    126.1700	  575.00	  469.50	-1749.94	  361.19
    126.2700	  571.00	  470.36	-1749.94	  362.05
    126.3700	  560.00	  471.23	-1749.94	  362.92
    126.4700	  501.00	  472.12	-1749.94	  363.81
    126.5700	  562.00	  473.02	-1749.94	  364.71
    126.6700	  561.00	  473.93	-1749.94	  365.62
    126.7700	  559.00	  474.86	-1749.94	  366.55
    126.8700	  546.00	  475.80	-1749.94	  367.49
    126.9700	  550.00	  476.75	-1749.94	  368.44
    127.0700	  594.00	  477.71	-1749.94	  369.40
    127.1700	  548.00	  478.69	-1749.94	  370.38
    127.2700	  541.00	  479.69	-1749.94	  371.37
    127.3700	  571.00	  480.69	-1749.94	  372.38
    127.4700	  561.00	  481.71	-1749.94	  373.40
    127.5700	  578.00	  482.74	-1749.94	  374.43
    127.6700	  583.00	  483.79	-1749.94	  375.48
    127.7700	  597.00	  484.85	-1749.94	  376.54
    127.8700	  638.00	  485.92	-1749.94	  377.61
    127.9700	  620.00	  487.01	-1749.94	  378.70
    128.0700	  609.00	  488.12	-1749.94	  379.80
    128.1700	  640.00	  489.23	-1749.94	  380.92
    128.2700	  661.00	  490.37	-1749.94	  382.05
    128.3700	  701.00	  491.51	-1749.94	  383.20
    128.4700	  712.00	  492.67	-1749.94	  384.36
    128.5700	    0.00	  493.85	-1749.94	  385.54
    128.6700	    0.00	  495.04	-1749.94	  386.73
     12.3512	        	        	        	        	       0	(  0  0  2)	  0  1
     24.9799	        	        	        	        	       0	(  0  0  4)	  0  1
     28.4060	        	        	        	        	       0	(  1  0  0)	  0  1
     29.1065	        	        	        	        	       0	(  1  0  1)	  0  1
     31.1219	        	        	        	        	       0	(  1  0  2)	  0  1
     34.2442	        	        	        	        	       0	(  1  0  3)	  0  1
     37.9282	        	        	        	        	       0	(  0  0  6)	  0  1
     38.2390	        	        	        	        	       0	(  1  0  4)	  0  1
     42.9097	        	        	        	        	       0	(  1  0  5)	  0  1
     48.1168	        	        	        	        	       0	(  1  0  6)	  0  1
     50.4061	        	        	        	        	       0	(  1  1  0)	  0  1
     51.4050	        	        	        	        	       0	(  0  0  8)	  0  1
     52.1379	        	        	        	        	       0	(  1  1  2)	  0  1
     53.7729	        	        	        	        	       0	(  1  0  7)	  0  1
     57.1109	        	        	        	        	       0	(  1  1  4)	  0  1
     58.9305	        	        	        	        	       0	(  2  0  0)	  0  1
     59.3242	        	        	        	        	       0	(  2  0  1)	  0  1
     59.8317	        	        	        	        	       0	(  1  0  8)	  0  1
     60.4958	        	        	        	        	       0	(  2  0  2)	  0  1
     62.4192	        	        	        	        	       0	(  2  0  3)	  0  1
     64.8455	        	        	        	        	       0	(  1  1  6)	  0  1
     65.0575	        	        	        	        	       0	(  2  0  4)	  0  1
     65.6996	        	        	        	        	       0	(  0  0 10)	  0  1
     66.2799	        	        	        	        	       0	(  1  0  9)	  0  1
     68.3698	        	        	        	        	       0	(  2  0  5)	  0  1
     72.3193	        	        	        	        	       0	(  2  0  6)	  0  1
     73.1320	        	        	        	        	       0	(  1  0 10)	  0  1
     74.9385	        	        	        	        	       0	(  1  1  8)	  0  1
     76.8798	        	        	        	        	       0	(  2  0  7)	  0  1
     80.4314	        	        	        	        	       0	(  1  0 11)	  0  1
     81.2645	        	        	        	        	       0	(  0  0 12)	  0  1
     81.2568	        	        	        	        	       0	(  2  1  0)	  0  1
     81.5988	        	        	        	        	       0	(  2  1  1)	  0  1
     82.0415	        	        	        	        	       0	(  2  0  8)	  0  1
     82.6232	        	        	        	        	       0	(  2  1  2)	  0  1
     84.3255	        	        	        	        	       0	(  2  1  3)	  0  1
     86.7009	        	        	        	        	       0	(  2  1  4)	  0  1
     87.2859	        	        	        	        	       0	(  1  1 10)	  0  1
     87.8170	        	        	        	        	       0	(  2  0  9)	  0  1
     88.2554	        	        	        	        	       0	(  1  0 12)	  0  1
     89.7474	        	        	        	        	       0	(  2  1  5)	  0  1
     93.4714	        	        	        	        	       0	(  2  1  6)	  0  1
     94.2499	        	        	        	        	       0	(  2  0 10)	  0  1
     95.2145	        	        	        	        	       0	(  3  0  0)	  0  1
     95.5544	        	        	        	        	       0	(  3  0  1)	  0  1
     96.5754	        	        	        	        	       0	(  3  0  2)	  0  1
     96.7302	        	        	        	        	       0	(  1  0 13)	  0  1
     97.8934	        	        	        	        	       0	(  2  1  7)	  0  1
     98.2819	        	        	        	        	       0	(  3  0  3)	  0  1
     98.9275	        	        	        	        	       0	(  0  0 14)	  0  1
    100.6841	        	        	        	        	       0	(  3  0  4)	  0  1
    101.4287	        	        	        	        	       0	(  2  0 11)	  0  1
    102.2697	        	        	        	        	       0	(  1  1 12)	  0  1
    103.0582	        	        	        	        	       0	(  2  1  8)	  0  1
    103.8018	        	        	        	        	       0	(  3  0  5)	  0  1
    106.0633	        	        	        	        	       0	(  1  0 14)	  0  1
    107.6714	        	        	        	        	       0	(  3  0  6)	  0  1
    109.0498	        	        	        	        	       0	(  2  1  9)	  0  1
    109.5144	        	        	        	        	       0	(  2  0 12)	  0  1
    112.3575	        	        	        	        	       0	(  3  0  7)	  0  1
    116.0201	        	        	        	        	       0	(  2  1 10)	  0  1
    116.6212	        	        	        	        	       0	(  1  0 15)	  0  1
    117.0959	        	        	        	        	       0	(  2  2  0)	  0  1
    117.9727	        	        	        	        	       0	(  3  0  8)	  0  1
    118.6285	        	        	        	        	       0	(  2  2  2)	  0  1
    118.8040	        	        	        	        	       0	(  2  0 13)	  0  1
    120.6480	        	        	        	        	       0	(  0  0 16)	  0  1
    121.3217	        	        	        	        	       0	(  1  1 14)	  0  1
    123.3726	        	        	        	        	       0	(  2  2  4)	  0  1
    124.2530	        	        	        	        	       0	(  2  1 11)	  0  1
    124.7202	        	        	        	        	       0	(  3  0  9)	  0  1
    125.2466	        	        	        	        	       0	(  3  1  0)	  0  1
    125.6626	        	        	        	        	       0	(  3  1  1)	  0  1
    126.9240	        	        	        	        	       0	(  3  1  2)	  0  1
    129.0745	        	        	        	        	       0	(  3  1  3)	  0  1
    129.1538	        	        	        	        	       0	(  1  0 16)	  0  1
    129.9029	        	        	        	        	       0	(  2  0 14)	  0  1
    131.9423	        	        	        	        	       0	(  2  2  6)	  0  1
    132.2018	        	        	        	        	       0	(  3  1  4)	  0  1
    132.9973	        	        	        	        	       0	(  3  0 10)	  0  1
    134.3395	        	        	        	        	       0	(  2  1 12)	  0  1
    136.4691	        	        	        	        	       0	(  3  1  5)	  0  1
    142.1972	        	        	        	        	       0	(  3  1  6)	  0  1
    143.7337	        	        	        	        	       0	(  3  0 11)	  0  1
    144.4039	        	        	        	        	       0	(  2  0 15)	  0  1
    145.7651	        	        	        	        	       0	(  1  0 17)	  0  1
    146.5269	        	        	        	        	       0	(  2  2  8)	  0  1
    147.8801	        	        	        	        	       0	(  2  1 13)	  0  1
    150.1283	        	        	        	        	       0	(  3  1  7)	  0  1
    151.0397	        	        	        	        	       0	(  1  1 16)	  0  1
    155.8244	        	        	        	        	       0	(  0  0 18)	  0  1
    160.5030	        	        	        	        	       0	(  3  0 12)	  0  1
    160.4800	        	        	        	        	       0	(  4  0  0)	  0  1
    161.5261	        	        	        	        	       0	(  4  0  1)	  0  1
    162.9736	        	        	        	        	       0	(  3  1  8)	  0  1
    165.0862	        	        	        	        	       0	(  4  0  2)	  0  1
    175.0135	        	        	        	        	       0	(  4  0  3)	  0  1
    175.8020	        	        	        	        	       0	(  2  0 16)	  0  1
