MSG Master    CELL:    5.87469   5.87469  23.06615   90.0000   90.0000  120.0000   SPGR: P 63/m m c             TEMP:    439.95
  2   1280     2.52000     0.00000    -0.08772     0.00000     0.00000    0
    95    95     0     0     2
       0.00000      10.00000
     125.00000     130.00000
 2Theta	Yobs	Ycal	Yobs-Ycal	Backg	Posr	(hkl)	K
      0.7700	    0.00	 1037.96	-2362.25	  891.71
      0.8700	    0.00	 1034.24	-2362.25	  887.99
      0.9700	   39.00	 1030.54	-2362.25	  884.29
      1.0700	   53.00	 1026.86	-2362.25	  880.62
      1.1700	   42.00	 1023.21	-2362.25	  876.97
      1.2700	   46.00	 1019.59	-2362.25	  873.34
      1.3700	   57.00	 1015.99	-2362.25	  869.74
      1.4700	  104.00	 1012.41	-2362.25	  866.16
      1.5700	  297.00	 1008.86	-2362.25	  862.61
      1.6700	  430.00	 1005.33	-2362.25	  859.08
      1.7700	  597.00	 1001.82	-2362.25	  855.57
      1.8700	  660.00	  998.34	-2362.25	  852.09
      1.9700	  754.00	  994.88	-2362.25	  848.63
      2.0700	  777.00	  991.44	-2362.25	  845.19
      2.1700	  787.00	  988.03	-2362.25	  841.78
      2.2700	  767.00	  984.64	-2362.25	  838.39
      2.3700	  752.00	  981.27	-2362.25	  835.02
      2.4700	  730.00	  977.93	-2362.25	  831.68
      2.5700	  678.00	  974.61	-2362.25	  828.36
      2.6700	  656.00	  971.31	-2362.25	  825.06
      2.7700	  634.00	  968.03	-2362.25	  821.78
      2.8700	  630.00	  964.78	-2362.25	  818.53
      2.9700	  609.00	  961.55	-2362.25	  815.30
      3.0700	  641.00	  958.34	-2362.25	  812.09
      3.1700	  605.00	  955.15	-2362.25	  808.90
      3.2700	  728.00	  951.99	-2362.25	  805.74
      3.3700	  925.00	  948.84	-2362.25	  802.60
      3.4700	 1083.00	  945.72	-2362.25	  799.47
      3.5700	 1272.00	  942.62	-2362.25	  796.37
      3.6700	 1345.00	  939.54	-2362.25	  793.30
      3.7700	 1464.00	  936.49	-2362.25	  790.24
      3.8700	 1627.00	  933.45	-2362.25	  787.21
      3.9700	 1621.00	  930.44	-2362.25	  784.19
      4.0700	 1720.00	  927.45	-2362.25	  781.20
      4.1700	 1674.00	  924.48	-2362.25	  778.23
      4.2700	 1741.00	  921.53	-2362.25	  775.28
      4.3700	 1649.00	  918.60	-2362.25	  772.35
      4.4700	 1535.00	  915.69	-2362.25	  769.44
      4.5700	 1598.00	  912.80	-2362.25	  766.56
      4.6700	 1544.00	  909.94	-2362.25	  763.69
      4.7700	 1468.00	  907.09	-2362.25	  760.84
      4.8700	 1454.00	  904.26	-2362.25	  758.02
      4.9700	 1344.00	  901.46	-2362.25	  755.21
      5.0700	 1335.00	  898.67	-2362.25	  752.43
      5.1700	 1413.00	  895.91	-2362.25	  749.66
      5.2700	 1347.00	  893.16	-2362.25	  746.92
      5.3700	 1280.00	  890.44	-2362.25	  744.19
      5.4700	 1275.00	  887.74	-2362.25	  741.49
      5.5700	 1270.00	  885.05	-2362.25	  738.80
      5.6700	 1229.00	  882.38	-2362.25	  736.14
      5.7700	 1231.00	  879.74	-2362.25	  733.49
      5.8700	 1202.00	  877.11	-2362.25	  730.87
      5.9700	 1158.00	  874.51	-2362.25	  728.26
      6.0700	 1163.00	  871.92	-2362.25	  725.67
      6.1700	 1145.00	  869.35	-2362.25	  723.10
      6.2700	 1032.00	  866.80	-2362.25	  720.55
      6.3700	 1098.00	  864.27	-2362.25	  718.02
      6.4700	 1043.00	  861.76	-2362.25	  715.51
      6.5700	 1073.00	  859.27	-2362.25	  713.02
      6.6700	  983.00	  856.79	-2362.25	  710.55
      6.7700	  944.00	  854.34	-2362.25	  708.09
      6.8700	  952.00	  851.90	-2362.25	  705.65
      6.9700	 1004.00	  849.48	-2362.25	  703.24
      7.0700	  969.00	  847.08	-2362.25	  700.84
      7.1700	  939.00	  844.70	-2362.25	  698.46
      7.2700	  867.00	  842.34	-2362.25	  696.09
      7.3700	  902.00	  840.00	-2362.25	  693.75
      7.4700	  900.00	  837.67	-2362.25	  691.42
      7.5700	  845.00	  835.36	-2362.25	  689.11
      7.6700	  862.00	  833.07	-2362.25	  686.82
      7.7700	  856.00	  830.80	-2362.25	  684.55
      7.8700	  888.00	  828.54	-2362.25	  682.29
      7.9700	  894.00	  826.30	-2362.25	  680.05
      8.0700	  835.00	  824.08	-2362.25	  677.83
      8.1700	  863.00	  821.88	-2362.25	  675.63
      8.2700	  862.00	  819.69	-2362.25	  673.45
      8.3700	  845.00	  817.52	-2362.25	  671.28
      8.4700	  810.00	  815.37	-2362.25	  669.13
      8.5700	  829.00	  813.24	-2362.25	  666.99
      8.6700	  808.00	  811.12	-2362.25	  664.87
      8.7700	  771.00	  809.02	-2362.25	  662.77
      8.8700	  818.00	  806.94	-2362.25	  660.69
      8.9700	  795.00	  804.87	-2362.25	  658.62
      9.0700	  825.00	  802.82	-2362.25	  656.57
      9.1700	  805.00	  800.79	-2362.25	  654.54
      9.2700	  865.00	  798.77	-2362.25	  652.52
      9.3700	  818.00	  796.77	-2362.25	  650.52
      9.4700	  784.00	  794.78	-2362.25	  648.54
      9.5700	  779.00	  792.82	-2362.25	  646.57
      9.6700	  849.00	  790.86	-2362.25	  644.62
      9.7700	  740.00	  788.93	-2362.25	  642.68
      9.8700	  794.00	  787.01	-2362.25	  640.76
      9.9700	  718.00	  785.10	-2362.25	  638.85
     10.0700	  743.00	  785.37	-2404.62	  636.97
     10.1700	  761.00	  783.73	-2384.98	  635.09
     10.2700	  794.00	  782.15	-2350.40	  633.24
     10.3700	  824.00	  780.65	-2318.90	  631.39
     10.4700	  733.00	  779.25	-2408.50	  629.57
     10.5700	  787.00	  777.98	-2353.23	  627.76
     10.6700	  808.00	  776.90	-2331.15	  625.96
     10.7700	  758.00	  776.08	-2380.33	  624.18
     10.8700	  807.00	  775.62	-2330.88	  622.41
     10.9700	  769.00	  775.61	-2368.86	  620.66
     11.0700	  753.00	  776.10	-2385.35	  618.93
     11.1700	  776.00	  777.11	-2363.36	  617.21
     11.2700	  775.00	  778.68	-2365.93	  615.50
     11.3700	  766.00	  780.83	-2377.08	  613.81
     11.4700	  747.00	  783.66	-2398.91	  612.13
     11.5700	  825.00	  787.29	-2324.54	  610.47
     11.6700	  815.00	  791.93	-2339.18	  608.83
     11.7700	  733.00	  797.84	-2427.09	  607.19
     11.8700	  808.00	  805.25	-2359.50	  605.57
     11.9700	  844.00	  814.22	-2332.47	  603.97
     12.0700	  857.00	  824.30	-2329.55	  602.38
     12.1700	  910.00	  834.08	-2286.33	  600.80
     12.2700	  898.00	  840.68	-2304.93	  599.24
     12.3700	  840.00	  839.86	-2362.11	  597.69
     12.4700	  861.00	  828.52	-2329.77	  596.16
     12.5700	  787.00	  809.57	-2384.82	  594.64
     12.6700	  782.00	  789.77	-2370.02	  593.13
     12.7700	  729.00	  773.35	-2406.60	  591.64
     12.8700	  739.00	  761.18	-2384.43	  590.16
     12.9700	  714.00	  752.59	-2400.84	  588.69
     13.0700	  750.00	  746.57	-2358.82	  587.24
     13.1700	  723.00	  742.19	-2381.44	  585.80
     13.2700	  723.00	  738.80	-2378.05	  584.37
     13.3700	  705.00	  735.99	-2393.24	  582.96
     13.4700	  702.00	  733.54	-2393.79	  581.56
     13.5700	  712.00	  731.35	-2381.60	  580.17
     13.6700	  714.00	  729.33	-2377.58	  578.80
     13.7700	  783.00	  727.44	-2306.69	  577.44
     13.8700	  740.00	  725.66	-2347.91	  576.09
     13.9700	  778.00	  723.97	-2308.22	  574.75
     14.0700	  748.00	  722.34	-2336.59	  573.43
     14.1700	  762.00	  720.78	-2321.03	  572.12
     14.2700	  719.00	  719.26	-2362.51	  570.82
     14.3700	  705.00	  717.79	-2375.04	  569.54
     14.4700	  721.00	  716.35	-2357.60	  568.26
     14.5700	  680.00	  714.95	-2397.20	  567.00
     14.6700	  690.00	  713.57	-2385.82	  565.75
     14.7700	  721.00	  712.22	-2353.47	  564.52
     14.8700	  743.00	  710.90	-2330.15	  563.29
     14.9700	  694.00	  709.60	-2377.85	  562.08
     15.0700	  660.00	  708.32	-2410.57	  560.88
     15.1700	  679.00	  707.06	-2390.31	  559.69
     15.2700	  685.00	  705.82	-2383.07	  558.51
     15.3700	  683.00	  704.60	-2383.85	  557.35
     15.4700	  687.00	  703.39	-2378.64	  556.19
     15.5700	  683.00	  702.20	-2381.45	  555.05
     15.6700	  671.00	  701.03	-2392.28	  553.92
     15.7700	  717.00	  699.87	-2345.12	  552.80
     15.8700	  735.00	  698.73	-2325.98	  551.70
     15.9700	  686.00	  697.60	-2373.85	  550.60
     16.0700	  675.00	  696.48	-2383.73	  549.51
     16.1700	  701.00	  695.38	-2356.63	  548.44
     16.2700	  671.00	  694.29	-2385.54	  547.38
     16.3700	  687.00	  693.22	-2368.47	  546.32
     16.4700	  713.00	  692.15	-2341.40	  545.28
     16.5700	  685.00	  691.10	-2368.35	  544.25
     16.6700	  673.00	  690.07	-2379.32	  543.23
     16.7700	  686.00	  689.04	-2365.29	  542.23
     16.8700	  683.00	  688.03	-2367.28	  541.23
     16.9700	  687.00	  687.02	-2362.27	  540.24
     17.0700	  735.00	  686.03	-2313.28	  539.26
     17.1700	  648.00	  685.05	-2399.30	  538.30
     17.2700	  645.00	  684.09	-2401.34	  537.34
     17.3700	  668.00	  683.13	-2377.38	  536.40
     17.4700	  727.00	  682.18	-2317.43	  535.46
     17.5700	  690.00	  681.25	-2353.50	  534.54
     17.6700	  705.00	  680.33	-2337.58	  533.62
     17.7700	  653.00	  679.41	-2388.66	  532.72
     17.8700	  683.00	  678.51	-2357.76	  531.82
     17.9700	  652.00	  677.62	-2387.87	  530.94
     18.0700	  713.00	  676.74	-2325.99	  530.06
     18.1700	  699.00	  675.87	-2339.12	  529.20
     18.2700	  677.00	  675.01	-2360.26	  528.34
     18.3700	  663.00	  674.16	-2373.41	  527.50
     18.4700	  714.00	  673.32	-2321.57	  526.66
     18.5700	  702.00	  672.49	-2332.74	  525.83
     18.6700	  658.00	  671.67	-2375.92	  525.02
     18.7700	  655.00	  670.86	-2378.11	  524.21
     18.8700	  737.00	  670.06	-2295.31	  523.41
     18.9700	  671.00	  669.27	-2360.52	  522.62
     19.0700	  734.00	  669.85	-2298.10	  521.84
     19.1700	  607.00	  669.11	-2424.36	  521.07
     19.2700	  691.00	  670.61	-2341.86	  520.31
     19.3700	  642.00	  669.93	-2390.18	  519.56
     19.4700	  691.00	  669.27	-2340.52	  518.82
     19.5700	  666.00	  668.62	-2364.87	  518.09
     19.6700	  692.00	  667.98	-2338.23	  517.36
     19.7700	  670.00	  667.36	-2359.61	  516.64
     19.8700	  688.00	  666.75	-2341.00	  515.94
     19.9700	  674.00	  666.15	-2354.40	  515.24
     20.0700	  661.00	  665.56	-2366.81	  514.55
     20.1700	  704.00	  665.04	-2323.29	  513.87
     20.2700	  733.00	  664.48	-2293.73	  513.19
     20.3700	  658.00	  663.93	-2368.18	  512.53
     20.4700	  699.00	  663.40	-2326.65	  511.87
     20.5700	  679.00	  662.88	-2346.13	  511.23
     20.6700	  635.00	  662.37	-2389.62	  510.59
     20.7700	  718.00	  661.88	-2306.13	  509.96
     20.8700	  664.00	  661.40	-2359.65	  509.33
     20.9700	  665.00	  660.93	-2358.18	  508.72
     21.0700	  677.00	  660.48	-2345.73	  508.11
     21.1700	  640.00	  660.04	-2382.29	  507.51
     21.2700	  668.00	  659.62	-2353.87	  506.92
     21.3700	  636.00	  659.22	-2385.47	  506.34
     21.4700	  643.00	  658.83	-2378.08	  505.76
     21.5700	  650.00	  658.45	-2370.70	  505.20
     21.6700	  691.00	  658.10	-2329.35	  504.64
     21.7700	  691.00	  657.76	-2329.01	  504.09
     21.8700	  660.00	  657.44	-2359.69	  503.54
     21.9700	  647.00	  657.14	-2372.39	  503.00
     22.0700	  686.00	  656.86	-2333.11	  502.48
     22.1700	  657.00	  656.61	-2361.86	  501.95
     22.2700	  698.00	  656.58	-2320.83	  501.44
     22.3700	  660.00	  656.37	-2358.62	  500.93
     22.4700	  703.00	  656.19	-2315.44	  500.43
     22.5700	  702.00	  656.03	-2316.28	  499.94
     22.6700	  676.00	  655.90	-2342.15	  499.46
     22.7700	  641.00	  655.80	-2377.05	  498.98
     22.8700	  640.00	  655.74	-2377.99	  498.51
     22.9700	  643.00	  655.71	-2374.96	  498.04
     23.0700	  686.00	  655.72	-2331.97	  497.59
     23.1700	  693.00	  655.78	-2325.03	  497.14
     23.2700	  648.00	  655.88	-2370.13	  496.69
     23.3700	  658.00	  656.05	-2360.30	  496.26
     23.4700	  643.00	  656.28	-2375.53	  495.83
     23.5700	  651.00	  656.58	-2367.83	  495.40
     23.6700	  666.00	  656.99	-2353.24	  494.99
     23.7700	  692.00	  657.51	-2327.76	  494.58
     23.8700	  685.00	  658.18	-2335.43	  494.17
     23.9700	  682.00	  659.07	-2339.32	  493.78
     24.0700	  675.00	  660.27	-2347.52	  493.39
     24.1700	  709.00	  661.93	-2315.18	  493.00
     24.2700	  673.00	  664.28	-2353.53	  492.63
     24.3700	  689.00	  667.66	-2340.91	  492.25
     24.4700	  671.00	  672.46	-2363.71	  491.89
     24.5700	  688.00	  678.94	-2353.19	  491.53
     24.6700	  703.00	  687.30	-2346.55	  491.18
     24.7700	  749.00	  697.14	-2310.39	  490.83
     24.8700	  721.00	  707.38	-2348.63	  490.49
     24.9700	  776.00	  715.95	-2302.20	  490.16
     25.0700	  803.00	  719.81	-2279.06	  489.83
     25.1700	  739.00	  716.68	-2339.93	  489.51
     25.2700	  708.00	  708.13	-2362.38	  489.19
     25.3700	  675.00	  698.27	-2385.52	  488.88
     25.4700	  733.00	  690.17	-2319.42	  488.57
     25.5700	  674.00	  684.72	-2372.97	  488.27
     25.6700	  715.00	  681.76	-2329.01	  487.98
     25.7700	  696.00	  680.76	-2347.01	  487.69
     25.8700	  662.00	  681.18	-2381.43	  487.41
     25.9700	  674.00	  682.61	-2370.86	  487.13
     26.0700	  694.00	  684.84	-2353.09	  486.86
     26.1700	  646.00	  687.73	-2403.98	  486.59
     26.2700	  694.00	  691.29	-2359.54	  486.33
     26.3700	  655.00	  695.55	-2402.80	  486.07
     26.4700	  711.00	  700.59	-2351.84	  485.82
     26.5700	  702.00	  706.54	-2366.79	  485.58
     26.6700	  677.00	  713.56	-2398.81	  485.34
     26.7700	  704.00	  721.87	-2380.12	  485.10
     26.8700	  709.00	  731.77	-2385.02	  484.87
     26.9700	  705.00	  743.65	-2400.90	  484.65
     27.0700	  719.00	  758.05	-2401.30	  484.43
     27.1700	  758.00	  775.71	-2379.96	  484.21
     27.2700	  775.00	  797.71	-2384.96	  484.00
     27.3700	  732.00	  825.69	-2455.94	  483.80
     27.4700	  815.00	  862.58	-2409.83	  483.60
     27.5700	  822.00	  914.49	-2454.74	  483.40
     27.6700	  838.00	  995.06	-2519.31	  483.21
     27.7700	  939.00	 1133.36	-2556.61	  483.03
     27.8700	 1066.00	 1384.10	-2680.35	  482.85
     27.9700	 1391.00	 1835.54	-2806.79	  482.67
     28.0700	 2067.00	 2602.49	-2897.74	  482.50
     28.1700	 3278.00	 3784.79	-2869.04	  482.33
     28.2700	 5363.00	 5373.45	-2372.70	  482.16
     28.3700	 7750.00	 7104.14	-1716.39	  482.01
     28.4700	 9449.00	 8362.30	-1275.55	  481.85
     28.5700	 9123.00	 8384.05	-1623.30	  481.70
     28.6700	 7418.00	 7093.29	-2037.54	  481.56
     28.7700	 5272.00	 5502.46	-2592.71	  481.41
     28.8700	 4114.00	 4506.55	-2754.80	  481.28
     28.9700	 4248.00	 4311.47	-2425.72	  481.14
     29.0700	 4916.00	 4640.77	-2087.02	  481.01
     29.1700	 5335.00	 4989.26	-2016.51	  480.89
     29.2700	 5163.00	 4848.72	-2047.97	  480.77
     29.3700	 4148.00	 4074.35	-2288.60	  480.65
     29.4700	 2899.00	 3050.43	-2513.68	  480.54
     29.5700	 1997.00	 2173.54	-2538.79	  480.43
     29.6700	 1416.00	 1577.90	-2524.15	  480.32
     29.7700	 1216.00	 1230.94	-2377.19	  480.22
     29.8700	 1017.00	 1045.08	-2390.33	  480.13
     29.9700	  934.00	  944.15	-2372.40	  480.03
     30.0700	  936.00	  883.36	-2309.61	  479.94
     30.1700	  791.00	  842.10	-2413.35	  479.86
     30.2700	  817.00	  811.97	-2357.22	  479.77
     30.3700	  806.00	  789.48	-2345.73	  479.69
     30.4700	  763.00	  773.17	-2372.42	  479.62
     30.5700	  748.00	  762.80	-2377.05	  479.55
     30.6700	  723.00	  759.09	-2398.34	  479.48
     30.7700	  769.00	  763.44	-2356.69	  479.41
     30.8700	  787.00	  776.96	-2352.21	  479.35
     30.9700	  810.00	  798.78	-2351.03	  479.29
     31.0700	  852.00	  824.30	-2334.55	  479.24
     31.1700	  835.00	  844.22	-2371.47	  479.19
     31.2700	  841.00	  845.91	-2367.16	  479.14
     31.3700	  839.00	  822.69	-2345.94	  479.09
     31.4700	  790.00	  784.41	-2356.66	  479.05
     31.5700	  767.00	  746.62	-2341.87	  479.01
     31.6700	  747.00	  717.25	-2332.50	  478.98
     31.7700	  751.00	  697.42	-2308.67	  478.94
     31.8700	  745.00	  685.10	-2302.35	  478.91
     31.9700	  731.00	  677.56	-2308.81	  478.89
     32.0700	  677.00	  672.72	-2357.97	  478.86
     32.1700	  685.00	  669.35	-2346.60	  478.84
     32.2700	  724.00	  666.84	-2305.09	  478.83
     32.3700	  664.00	  664.92	-2363.17	  478.81
     32.4700	  712.00	  663.49	-2313.74	  478.80
     32.5700	  719.00	  662.47	-2305.72	  478.79
     32.6700	  656.00	  661.87	-2368.12	  478.78
     32.7700	  666.00	  661.64	-2357.89	  478.78
     32.8700	  665.00	  661.83	-2359.08	  478.78
     32.9700	  711.00	  662.48	-2313.73	  478.78
     33.0700	  655.00	  663.68	-2370.93	  478.79
     33.1700	  719.00	  665.57	-2308.82	  478.79
     33.2700	  659.00	  668.38	-2371.63	  478.80
     33.3700	  734.00	  672.54	-2300.79	  478.81
     33.4700	  700.00	  678.90	-2341.15	  478.83
     33.5700	  707.00	  689.10	-2344.35	  478.85
     33.6700	  700.00	  706.12	-2368.37	  478.86
     33.7700	  711.00	  734.69	-2385.94	  478.89
     33.8700	  793.00	  781.11	-2350.36	  478.91
     33.9700	  915.00	  851.25	-2298.50	  478.94
     34.0700	 1008.00	  946.10	-2300.35	  478.97
     34.1700	 1160.00	 1056.20	-2258.45	  479.00
     34.2700	 1279.00	 1157.44	-2240.69	  479.03
     34.3700	 1362.00	 1212.46	-2212.71	  479.07
     34.4700	 1315.00	 1188.38	-2235.63	  479.10
     34.5700	 1198.00	 1093.49	-2257.74	  479.14
     34.6700	  994.00	  973.80	-2342.05	  479.18
     34.7700	  873.00	  867.05	-2356.30	  479.23
     34.8700	  796.00	  787.55	-2353.80	  479.27
     34.9700	  767.00	  735.10	-2330.35	  479.32
     35.0700	  745.00	  703.16	-2320.41	  479.37
     35.1700	  738.00	  684.36	-2308.61	  479.42
     35.2700	  699.00	  673.02	-2336.27	  479.48
     35.3700	  666.00	  665.65	-2361.90	  479.53
     35.4700	  691.00	  660.46	-2331.71	  479.59
     35.5700	  674.00	  656.56	-2344.81	  479.65
     35.6700	  665.00	  653.53	-2350.78	  479.71
     35.7700	  643.00	  651.12	-2370.37	  479.77
     35.8700	  674.00	  649.19	-2337.44	  479.84
     35.9700	  646.00	  647.63	-2363.88	  479.90
     36.0700	  680.00	  646.37	-2328.62	  479.97
     36.1700	  641.00	  645.36	-2366.61	  480.04
     36.2700	  637.00	  644.56	-2369.81	  480.11
     36.3700	  608.00	  643.95	-2398.20	  480.19
     36.4700	  633.00	  643.50	-2372.75	  480.26
     36.5700	  670.00	  643.22	-2335.47	  480.34
     36.6700	  660.00	  643.09	-2345.34	  480.41
     36.7700	  632.00	  643.32	-2373.57	  480.49
     36.8700	  645.00	  643.53	-2360.78	  480.57
     36.9700	  659.00	  643.94	-2347.19	  480.66
     37.0700	  608.00	  644.60	-2398.85	  480.74
     37.1700	  648.00	  645.58	-2359.83	  480.82
     37.2700	  644.00	  647.00	-2365.25	  480.91
     37.3700	  636.00	  649.60	-2375.85	  481.00
     37.4700	  671.00	  652.74	-2343.99	  481.08
     37.5700	  656.00	  657.57	-2363.82	  481.17
     37.6700	  678.00	  665.07	-2349.32	  481.27
     37.7700	  680.00	  676.73	-2358.98	  481.36
     37.8700	  664.00	  694.15	-2392.40	  481.45
     37.9700	  720.00	  718.58	-2360.83	  481.55
     38.0700	  777.00	  747.74	-2332.99	  481.64
     38.1700	  765.00	  782.87	-2380.12	  481.74
     38.2700	  780.00	  815.30	-2397.55	  481.84
     38.3700	  809.00	  834.99	-2388.24	  481.94
     38.4700	  722.00	  832.02	-2472.27	  482.04
     38.5700	  804.00	  805.94	-2364.19	  482.14
     38.6700	  731.00	  768.17	-2399.42	  482.24
     38.7700	  659.00	  731.04	-2434.29	  482.34
     38.8700	  712.00	  700.87	-2351.12	  482.44
     38.9700	  660.00	  679.14	-2381.39	  482.55
     39.0700	  658.00	  664.82	-2369.07	  482.66
     39.1700	  623.00	  655.91	-2395.16	  482.76
     39.2700	  633.00	  650.46	-2379.71	  482.87
     39.3700	  646.00	  647.04	-2363.29	  482.98
     39.4700	  645.00	  644.76	-2362.01	  483.09
     39.5700	  658.00	  641.84	-2346.09	  483.20
     39.6700	  639.00	  640.65	-2363.90	  483.31
     39.7700	  645.00	  639.74	-2356.99	  483.42
     39.8700	  666.00	  639.03	-2335.28	  483.53
     39.9700	  595.00	  638.47	-2405.72	  483.64
     40.0700	  626.00	  638.05	-2374.30	  483.75
     40.1700	  652.00	  637.72	-2347.97	  483.87
     40.2700	  682.00	  637.47	-2317.72	  483.98
     40.3700	  628.00	  637.30	-2371.55	  484.10
     40.4700	  631.00	  637.19	-2368.44	  484.21
     40.5700	  586.00	  637.12	-2413.37	  484.33
     40.6700	  647.00	  637.11	-2352.36	  484.45
     40.7700	  640.00	  637.68	-2359.93	  484.56
     40.8700	  633.00	  637.76	-2367.01	  484.68
     40.9700	  642.00	  637.88	-2358.13	  484.80
     41.0700	  590.00	  638.10	-2410.35	  484.92
     41.1700	  662.00	  638.31	-2338.56	  485.03
     41.2700	  617.00	  638.57	-2383.82	  485.15
     41.3700	  656.00	  638.87	-2345.12	  485.27
     41.4700	  594.00	  639.24	-2407.49	  485.39
     41.5700	  645.00	  639.68	-2356.93	  485.51
     41.6700	  645.00	  640.21	-2357.46	  485.63
     41.7700	  675.00	  640.84	-2328.09	  485.75
     41.8700	  631.00	  641.62	-2372.87	  485.88
     41.9700	  659.00	  642.61	-2345.86	  486.00
     42.0700	  625.00	  643.92	-2381.17	  486.12
     42.1700	  650.00	  645.76	-2358.01	  486.24
     42.2700	  629.00	  648.49	-2381.74	  486.36
     42.3700	  698.00	  652.71	-2316.96	  486.48
     42.4700	  623.00	  659.17	-2398.42	  486.61
     42.5700	  654.00	  668.91	-2377.16	  486.73
     42.6700	  664.00	  682.59	-2380.84	  486.85
     42.7700	  685.00	  700.23	-2377.48	  486.97
     42.8700	  717.00	  720.46	-2365.71	  487.09
     42.9700	  745.00	  739.76	-2357.01	  487.22
     43.0700	  737.00	  752.54	-2377.79	  487.34
     43.1700	  713.00	  753.38	-2402.63	  487.46
     43.2700	  703.00	  741.59	-2400.84	  487.58
     43.3700	  715.00	  722.39	-2369.64	  487.71
     43.4700	  678.00	  702.06	-2386.31	  487.83
     43.5700	  659.00	  684.48	-2387.73	  487.95
     43.6700	  702.00	  670.96	-2331.21	  488.07
     43.7700	  723.00	  661.43	-2300.68	  488.20
     43.8700	  695.00	  655.20	-2322.45	  488.32
     43.9700	  692.00	  651.30	-2321.55	  488.44
     44.0700	  650.00	  649.10	-2361.35	  488.56
     44.1700	  689.00	  647.61	-2320.86	  488.68
     44.2700	  643.00	  646.64	-2365.89	  488.81
     44.3700	  692.00	  645.99	-2316.24	  488.93
     44.4700	  660.00	  645.54	-2347.79	  489.05
     44.5700	  630.00	  645.23	-2377.48	  489.17
     44.6700	  684.00	  645.04	-2323.29	  489.29
     44.7700	  671.00	  644.93	-2336.18	  489.41
     44.8700	  610.00	  644.88	-2397.13	  489.53
     44.9700	  642.00	  644.89	-2365.14	  489.65
     45.0700	  657.00	  645.22	-2350.47	  489.77
     45.1700	  625.00	  645.32	-2382.57	  489.89
     45.2700	  614.00	  645.46	-2393.71	  490.01
     45.3700	  637.00	  645.64	-2370.89	  490.13
     45.4700	  631.00	  645.85	-2377.10	  490.24
     45.5700	  649.00	  646.09	-2359.34	  490.36
     45.6700	  679.00	  646.45	-2329.70	  490.48
     45.7700	  680.00	  646.75	-2329.00	  490.60
     45.8700	  665.00	  647.10	-2344.35	  490.71
     45.9700	  660.00	  647.47	-2349.72	  490.83
     46.0700	  639.00	  647.87	-2371.12	  490.94
     46.1700	  641.00	  648.30	-2369.55	  491.06
     46.2700	  694.00	  648.77	-2317.02	  491.17
     46.3700	  670.00	  649.29	-2341.54	  491.29
     46.4700	  617.00	  649.86	-2395.11	  491.40
     46.5700	  605.00	  650.43	-2407.68	  491.51
     46.6700	  638.00	  651.13	-2375.38	  491.63
     46.7700	  633.00	  651.89	-2381.14	  491.74
     46.8700	  681.00	  652.75	-2334.00	  491.85
     46.9700	  677.00	  653.72	-2338.97	  491.96
     47.0700	  633.00	  654.84	-2384.09	  492.07
     47.1700	  626.00	  656.16	-2392.41	  492.18
     47.2700	  675.00	  657.78	-2345.03	  492.29
     47.3700	  616.00	  659.88	-2406.13	  492.40
     47.4700	  669.00	  662.74	-2355.99	  492.51
     47.5700	  633.00	  666.79	-2396.04	  492.61
     47.6700	  637.00	  672.59	-2397.84	  492.72
     47.7700	  672.00	  680.76	-2371.01	  492.82
     47.8700	  692.00	  691.77	-2362.02	  492.93
     47.9700	  696.00	  705.73	-2371.98	  493.03
     48.0700	  708.00	  721.93	-2376.18	  493.14
     48.1700	  791.00	  738.50	-2309.75	  493.24
     48.2700	  742.00	  752.08	-2372.33	  493.34
     48.3700	  743.00	  758.66	-2377.91	  493.44
     48.4700	  730.00	  756.08	-2388.32	  493.54
     48.5700	  748.00	  746.59	-2360.84	  493.64
     48.6700	  669.00	  733.54	-2426.79	  493.74
     48.7700	  664.00	  721.01	-2419.26	  493.84
     48.8700	  698.00	  711.03	-2375.28	  493.94
     48.9700	  677.00	  704.41	-2389.66	  494.03
     49.0700	  676.00	  701.21	-2387.46	  494.13
     49.1700	  658.00	  701.10	-2405.35	  494.22
     49.2700	  676.00	  703.69	-2389.94	  494.32
     49.3700	  706.00	  708.72	-2364.97	  494.41
     49.4700	  730.00	  716.34	-2348.59	  494.50
     49.5700	  728.00	  727.40	-2361.65	  494.59
     49.6700	  755.00	  744.31	-2351.56	  494.69
     49.7700	  750.00	  772.66	-2384.91	  494.77
     49.8700	  829.00	  823.91	-2357.16	  494.86
     49.9700	  970.00	  918.36	-2310.61	  494.95
     50.0700	 1126.00	 1085.45	-2321.70	  495.04
     50.1700	 1524.00	 1357.36	-2195.61	  495.12
     50.2700	 1873.00	 1752.96	-2242.21	  495.21
     50.3700	 2414.00	 2254.74	-2202.99	  495.29
     50.4700	 2889.00	 2788.68	-2261.93	  495.38
     50.5700	 3334.00	 3219.56	-2247.81	  495.46
     50.6700	 3221.00	 3388.66	-2529.91	  495.54
     50.7700	 3182.00	 3215.58	-2395.83	  495.62
     50.8700	 2630.00	 2779.01	-2511.26	  495.70
     50.9700	 2084.00	 2244.25	-2522.50	  495.77
     51.0700	 1640.00	 1747.82	-2470.07	  495.85
     51.1700	 1250.00	 1362.29	-2474.54	  495.93
     51.2700	 1030.00	 1102.99	-2435.24	  496.00
     51.3700	  975.00	  949.28	-2336.53	  496.08
     51.4700	  834.00	  867.22	-2395.47	  496.15
     51.5700	  869.00	  825.75	-2319.00	  496.22
     51.6700	  780.00	  803.03	-2385.28	  496.29
     51.7700	  786.00	  786.81	-2363.06	  496.36
     51.8700	  828.00	  772.14	-2306.39	  496.43
     51.9700	  864.00	  758.53	-2256.78	  496.50
     52.0700	  790.00	  746.59	-2318.84	  496.56
     52.1700	  761.00	  736.86	-2338.11	  496.63
     52.2700	  758.00	  729.41	-2333.66	  496.69
     52.3700	  743.00	  723.91	-2343.17	  496.75
     52.4700	  739.00	  719.95	-2343.20	  496.82
     52.5700	  767.00	  717.32	-2312.57	  496.88
     52.6700	  717.00	  716.13	-2361.38	  496.94
     52.7700	  752.00	  716.70	-2326.95	  497.00
     52.8700	  692.00	  719.53	-2389.78	  497.05
     52.9700	  766.00	  725.44	-2321.69	  497.11
     53.0700	  784.00	  735.74	-2313.99	  497.16
     53.1700	  810.00	  752.44	-2304.69	  497.22
     53.2700	  745.00	  778.20	-2395.45	  497.27
     53.3700	  811.00	  816.11	-2367.36	  497.32
     53.4700	  900.00	  869.03	-2331.28	  497.37
     53.5700	  947.00	  938.60	-2353.85	  497.42
     53.6700	 1004.00	 1023.39	-2381.64	  497.47
     53.7700	 1097.00	 1117.97	-2383.22	  497.51
     53.8700	 1230.00	 1210.44	-2342.69	  497.56
     53.9700	 1289.00	 1281.89	-2355.14	  497.60
     54.0700	 1369.00	 1311.08	-2304.33	  497.65
     54.1700	 1301.00	 1287.19	-2348.44	  497.69
     54.2700	 1253.00	 1219.04	-2328.29	  497.73
     54.3700	 1149.00	 1127.86	-2341.11	  497.77
     54.4700	 1059.00	 1033.45	-2336.70	  497.81
     54.5700	  976.00	  948.32	-2334.57	  497.84
     54.6700	  846.00	  878.42	-2394.67	  497.88
     54.7700	  799.00	  825.12	-2388.37	  497.91
     54.8700	  784.00	  787.04	-2365.29	  497.95
     54.9700	  715.00	  761.33	-2408.58	  497.98
     55.0700	  747.00	  744.79	-2360.04	  498.01
     55.1700	  756.00	  734.64	-2340.89	  498.04
     55.2700	  741.00	  728.76	-2350.01	  498.07
     55.3700	  709.00	  725.72	-2378.97	  498.09
     55.4700	  731.00	  724.69	-2355.94	  498.12
     55.5700	  730.00	  725.21	-2357.46	  498.14
     55.6700	  713.00	  727.08	-2376.33	  498.16
     55.7700	  638.00	  730.28	-2454.53	  498.19
     55.8700	  714.00	  734.92	-2383.17	  498.21
     55.9700	  742.00	  741.26	-2361.51	  498.22
     56.0700	  752.00	  749.87	-2360.12	  498.24
     56.1700	  707.00	  761.79	-2417.04	  498.26
     56.2700	  747.00	  779.02	-2394.27	  498.27
     56.3700	  813.00	  805.15	-2354.40	  498.29
     56.4700	  787.00	  846.19	-2421.44	  498.30
     56.5700	  886.00	  911.05	-2387.30	  498.31
     56.6700	 1005.00	 1011.54	-2368.79	  498.32
     56.7700	 1098.00	 1160.62	-2424.87	  498.33
     56.8700	 1386.00	 1368.71	-2344.96	  498.34
     56.9700	 1692.00	 1638.39	-2308.64	  498.34
     57.0700	 2014.00	 1958.38	-2306.63	  498.35
     57.1700	 2344.00	 2297.49	-2315.74	  498.35
     57.2700	 2646.00	 2600.66	-2316.91	  498.35
     57.3700	 2795.00	 2793.48	-2360.73	  498.35
     57.4700	 2768.00	 2812.20	-2406.45	  498.35
     57.5700	 2532.00	 2649.57	-2479.82	  498.35
     57.6700	 2298.00	 2361.86	-2426.11	  498.34
     57.7700	 1942.00	 2025.67	-2445.92	  498.34
     57.8700	 1645.00	 1701.14	-2418.39	  498.33
     57.9700	 1352.00	 1423.55	-2433.80	  498.33
     58.0700	 1168.00	 1207.48	-2401.73	  498.32
     58.1700	 1009.00	 1052.79	-2406.04	  498.31
     58.2700	  888.00	  950.71	-2424.96	  498.30
     58.3700	  917.00	  889.83	-2335.08	  498.28
     58.4700	  828.00	  860.19	-2394.44	  498.27
     58.5700	  895.00	  855.46	-2322.71	  498.25
     58.6700	  890.00	  872.83	-2345.08	  498.24
     58.7700	  909.00	  911.60	-2364.85	  498.22
     58.8700	  983.00	  971.26	-2350.51	  498.20
     58.9700	 1009.00	 1049.03	-2402.28	  498.18
     59.0700	 1157.00	 1138.23	-2343.48	  498.15
     59.1700	 1234.00	 1227.52	-2355.77	  498.13
     59.2700	 1305.00	 1303.42	-2360.67	  498.10
     59.3700	 1323.00	 1356.54	-2395.79	  498.08
     59.4700	 1338.00	 1385.08	-2409.33	  498.05
     59.5700	 1367.00	 1389.64	-2384.89	  498.02
     59.6700	 1390.00	 1369.98	-2342.23	  497.99
     59.7700	 1356.00	 1330.33	-2336.58	  497.96
     59.8700	 1277.00	 1283.15	-2368.40	  497.93
     59.9700	 1358.00	 1243.79	-2248.04	  497.89
     60.0700	 1264.00	 1223.98	-2322.23	  497.86
     60.1700	 1329.00	 1230.44	-2263.69	  497.82
     60.2700	 1336.00	 1266.69	-2292.94	  497.78
     60.3700	 1458.00	 1333.75	-2238.00	  497.74
     60.4700	 1556.00	 1427.73	-2233.98	  497.70
     60.5700	 1565.00	 1536.04	-2333.29	  497.66
     60.6700	 1616.00	 1635.69	-2381.94	  497.61
     60.7700	 1659.00	 1695.93	-2399.18	  497.57
     60.8700	 1567.00	 1689.78	-2485.03	  497.52
     60.9700	 1531.00	 1611.57	-2442.82	  497.47
     61.0700	 1458.00	 1481.40	-2385.65	  497.42
     61.1700	 1248.00	 1329.71	-2443.96	  497.37
     61.2700	 1141.00	 1182.46	-2403.71	  497.32
     61.3700	  999.00	 1056.47	-2419.72	  497.27
     61.4700	  913.00	  959.85	-2409.10	  497.21
     61.5700	  926.00	  894.30	-2330.55	  497.15
     61.6700	  858.00	  857.88	-2362.13	  497.10
     61.7700	  854.00	  848.08	-2356.33	  497.04
     61.8700	  894.00	  864.01	-2332.26	  496.98
     61.9700	  950.00	  907.38	-2319.63	  496.92
     62.0700	 1092.00	  981.85	-2252.10	  496.85
     62.1700	 1158.00	 1091.04	-2295.29	  496.79
     62.2700	 1236.00	 1235.59	-2361.84	  496.72
     62.3700	 1463.00	 1409.97	-2309.22	  496.66
     62.4700	 1592.00	 1599.80	-2370.05	  496.59
     62.5700	 1847.00	 1780.14	-2295.39	  496.52
     62.6700	 1946.00	 1916.07	-2332.32	  496.45
     62.7700	 1864.00	 1971.62	-2469.87	  496.38
     62.8700	 1899.00	 1928.75	-2392.00	  496.30
     62.9700	 1759.00	 1800.88	-2404.13	  496.23
     63.0700	 1549.00	 1622.79	-2436.04	  496.15
     63.1700	 1416.00	 1430.48	-2376.73	  496.08
     63.2700	 1192.00	 1250.38	-2420.63	  496.00
     63.3700	 1124.00	 1098.13	-2336.38	  495.92
     63.4700	  957.00	  979.86	-2385.11	  495.84
     63.5700	  898.00	  894.76	-2359.01	  495.76
     63.6700	  800.00	  837.73	-2399.98	  495.67
     63.7700	  795.00	  802.17	-2369.42	  495.59
     63.8700	  739.00	  781.98	-2405.23	  495.50
     63.9700	  824.00	  772.60	-2310.85	  495.41
     64.0700	  803.00	  771.37	-2330.62	  495.33
     64.1700	  758.00	  777.11	-2381.36	  495.24
     64.2700	  747.00	  791.73	-2406.98	  495.14
     64.3700	  821.00	  817.04	-2358.29	  495.05
     64.4700	  881.00	  856.43	-2337.68	  494.96
     64.5700	  917.00	  913.80	-2359.05	  494.86
     64.6700	 1021.00	  992.70	-2333.95	  494.77
     64.7700	 1112.00	 1095.07	-2345.32	  494.67
     64.8700	 1181.00	 1219.74	-2400.99	  494.57
     64.9700	 1379.00	 1360.75	-2344.00	  494.47
     65.0700	 1564.00	 1506.06	-2304.31	  494.37
     65.1700	 1693.00	 1637.52	-2306.77	  494.27
     65.2700	 1680.00	 1733.90	-2416.15	  494.16
     65.3700	 1748.00	 1775.76	-2390.01	  494.06
     65.4700	 1661.00	 1753.15	-2454.40	  493.95
     65.5700	 1542.00	 1671.45	-2491.70	  493.84
     65.6700	 1497.00	 1549.39	-2414.64	  493.74
     65.7700	 1367.00	 1410.09	-2405.34	  493.63
     65.8700	 1221.00	 1272.65	-2413.90	  493.52
     65.9700	 1105.00	 1149.24	-2406.49	  493.40
     66.0700	 1001.00	 1045.62	-2406.87	  493.29
     66.1700	  904.00	  962.90	-2421.15	  493.18
     66.2700	  857.00	  899.42	-2404.67	  493.06
     66.3700	  859.00	  852.32	-2355.57	  492.94
     66.4700	  760.00	  818.22	-2420.47	  492.83
     66.5700	  769.00	  794.02	-2387.27	  492.71
     66.6700	  762.00	  777.10	-2377.35	  492.59
     66.7700	  702.00	  765.54	-2425.79	  492.47
     66.8700	  749.00	  758.05	-2371.30	  492.34
     66.9700	  737.00	  753.85	-2379.10	  492.22
     67.0700	  710.00	  752.66	-2404.91	  492.09
     67.1700	  672.00	  754.24	-2444.49	  491.97
     67.2700	  752.00	  759.03	-2369.28	  491.84
     67.3700	  771.00	  767.91	-2359.16	  491.71
     67.4700	  770.00	  782.68	-2374.93	  491.58
     67.5700	  795.00	  805.90	-2373.15	  491.45
     67.6700	  834.00	  841.85	-2370.10	  491.32
     67.7700	  973.00	  896.05	-2285.30	  491.19
     67.8700	  932.00	  975.29	-2405.54	  491.06
     67.9700	 1079.00	 1086.59	-2369.84	  490.92
     68.0700	 1199.00	 1235.74	-2398.99	  490.78
     68.1700	 1433.00	 1425.18	-2354.43	  490.65
     68.2700	 1672.00	 1651.87	-2342.12	  490.51
     68.3700	 1978.00	 1905.15	-2289.40	  490.37
     68.4700	 2135.00	 2164.89	-2392.14	  490.23
     68.5700	 2437.00	 2400.51	-2325.76	  490.09
     68.6700	 2628.00	 2572.93	-2307.18	  489.95
     68.7700	 2523.00	 2644.35	-2483.60	  489.80
     68.8700	 2567.00	 2596.14	-2391.39	  489.66
     68.9700	 2439.00	 2440.86	-2364.11	  489.51
     69.0700	 2188.00	 2214.04	-2388.29	  489.37
     69.1700	 1974.00	 1955.73	-2343.98	  489.22
     69.2700	 1736.00	 1698.56	-2324.81	  489.07
     69.3700	 1488.00	 1464.60	-2338.85	  488.92
     69.4700	 1288.00	 1266.38	-2340.63	  488.77
     69.5700	 1222.00	 1108.35	-2248.60	  488.62
     69.6700	 1051.00	  988.97	-2300.22	  488.47
     69.7700	  978.00	  902.90	-2287.15	  488.32
     69.8700	  892.00	  843.17	-2313.42	  488.16
     69.9700	  900.00	  802.86	-2265.11	  488.01
     70.0700	  866.00	  776.04	-2272.29	  487.85
     70.1700	  859.00	  758.18	-2261.43	  487.69
     70.2700	  795.00	  746.10	-2313.35	  487.53
     70.3700	  762.00	  737.78	-2338.03	  487.38
     70.4700	  761.00	  731.96	-2333.21	  487.22
     70.5700	  728.00	  727.91	-2362.16	  487.06
     70.6700	  728.00	  725.26	-2359.51	  486.89
     70.7700	  775.00	  723.82	-2311.07	  486.73
     70.8700	  735.00	  723.53	-2350.78	  486.57
     70.9700	  659.00	  724.47	-2427.72	  486.40
     71.0700	  737.00	  726.88	-2352.13	  486.24
     71.1700	  754.00	  731.17	-2339.42	  486.07
     71.2700	  732.00	  737.92	-2368.17	  485.90
     71.3700	  781.00	  748.74	-2329.99	  485.74
     71.4700	  771.00	  765.27	-2356.52	  485.57
     71.5700	  778.00	  790.10	-2374.35	  485.40
     71.6700	  811.00	  826.58	-2377.83	  485.23
     71.7700	  940.00	  878.69	-2300.94	  485.06
     71.8700	 1009.00	  950.61	-2303.86	  484.89
     71.9700	 1080.00	 1045.94	-2328.19	  484.71
     72.0700	 1279.00	 1166.77	-2250.02	  484.54
     72.1700	 1302.00	 1312.50	-2372.75	  484.36
     72.2700	 1476.00	 1478.73	-2364.98	  484.19
     72.3700	 1620.00	 1656.34	-2398.59	  484.01
     72.4700	 1834.00	 1830.67	-2358.92	  483.84
     72.5700	 2004.00	 1981.49	-2339.74	  483.66
     72.6700	 2120.00	 2084.93	-2327.18	  483.48
     72.7700	 2149.00	 2120.15	-2333.40	  483.30
     72.8700	 1973.00	 2078.99	-2468.24	  483.12
     72.9700	 1823.00	 1970.83	-2510.08	  482.94
     73.0700	 1849.00	 1817.07	-2330.32	  482.76
     73.1700	 1604.00	 1642.13	-2400.38	  482.58
     73.2700	 1524.00	 1464.49	-2302.74	  482.40
     73.3700	 1233.00	 1298.96	-2428.21	  482.21
     73.4700	 1142.00	 1154.24	-2374.49	  482.03
     73.5700	 1021.00	 1034.28	-2375.53	  481.84
     73.6700	  943.00	  939.39	-2358.64	  481.66
     73.7700	  859.00	  867.40	-2370.65	  481.47
     73.8700	  828.00	  814.69	-2348.94	  481.29
     73.9700	  770.00	  777.17	-2369.42	  481.10
     74.0700	  747.00	  751.01	-2366.26	  480.91
     74.1700	  697.00	  732.47	-2397.72	  480.72
     74.2700	  754.00	  720.20	-2328.45	  480.53
     74.3700	  687.00	  711.96	-2387.21	  480.34
     74.4700	  712.00	  706.64	-2356.89	  480.15
     74.5700	  718.00	  703.53	-2347.78	  479.96
     74.6700	  764.00	  702.20	-2300.45	  479.77
     74.7700	  715.00	  702.33	-2349.58	  479.58
     74.8700	  700.00	  703.64	-2365.89	  479.39
     74.9700	  735.00	  705.76	-2333.01	  479.19
     75.0700	  677.00	  708.44	-2393.69	  479.00
     75.1700	  740.00	  711.12	-2333.37	  478.80
     75.2700	  761.00	  713.25	-2314.50	  478.61
     75.3700	  760.00	  714.28	-2316.53	  478.41
     75.4700	  791.00	  713.91	-2285.16	  478.22
     75.5700	  770.00	  712.23	-2304.48	  478.02
     75.6700	  773.00	  709.77	-2299.02	  477.83
     75.7700	  775.00	  707.30	-2294.55	  477.63
     75.8700	  716.00	  705.66	-2351.91	  477.43
     75.9700	  717.00	  705.92	-2351.17	  477.23
     76.0700	  702.00	  709.01	-2369.26	  477.03
     76.1700	  747.00	  716.02	-2331.27	  476.83
     76.2700	  754.00	  728.08	-2336.33	  476.63
     76.3700	  760.00	  746.29	-2348.54	  476.43
     76.4700	  796.00	  771.61	-2337.86	  476.23
     76.5700	  825.00	  804.64	-2341.89	  476.03
     76.6700	  890.00	  845.42	-2317.67	  475.83
     76.7700	  909.00	  893.16	-2346.41	  475.63
     76.8700	  930.00	  946.02	-2378.27	  475.43
     76.9700	  947.00	 1000.96	-2416.21	  475.22
     77.0700	 1028.00	 1053.57	-2387.82	  475.02
     77.1700	 1063.00	 1098.17	-2397.42	  474.82
     77.2700	 1162.00	 1128.36	-2328.61	  474.62
     77.3700	 1118.00	 1138.77	-2383.02	  474.41
     77.4700	 1077.00	 1127.25	-2412.50	  474.21
     77.5700	 1049.00	 1095.96	-2409.21	  474.00
     77.6700	 1032.00	 1050.25	-2380.50	  473.80
     77.7700	  985.00	  996.29	-2373.54	  473.59
     77.8700	  927.00	  940.11	-2375.36	  473.39
     77.9700	  886.00	  885.89	-2362.14	  473.18
     78.0700	  808.00	  836.58	-2390.83	  472.98
     78.1700	  772.00	  793.92	-2384.17	  472.77
     78.2700	  777.00	  758.60	-2343.85	  472.56
     78.3700	  741.00	  730.50	-2351.75	  472.36
     78.4700	  716.00	  708.93	-2355.18	  472.15
     78.5700	  695.00	  692.87	-2360.12	  471.94
     78.6700	  707.00	  681.23	-2336.48	  471.73
     78.7700	  675.00	  672.95	-2360.20	  471.53
     78.8700	  704.00	  667.13	-2325.38	  471.32
     78.9700	  679.00	  663.07	-2346.32	  471.11
     79.0700	  627.00	  660.24	-2395.49	  470.90
     79.1700	  706.00	  658.22	-2314.47	  470.69
     79.2700	  683.00	  656.90	-2336.15	  470.49
     79.3700	  701.00	  656.08	-2317.33	  470.28
     79.4700	  634.00	  655.68	-2383.93	  470.07
     79.5700	  682.00	  655.67	-2335.92	  469.86
     79.6700	  648.00	  656.07	-2370.32	  469.65
     79.7700	  661.00	  656.92	-2358.17	  469.44
     79.8700	  677.00	  658.29	-2343.54	  469.23
     79.9700	  743.00	  660.30	-2279.55	  469.02
     80.0700	  670.00	  663.17	-2355.42	  468.81
     80.1700	  684.00	  667.22	-2345.47	  468.60
     80.2700	  667.00	  672.94	-2368.19	  468.39
     80.3700	  659.00	  681.07	-2384.32	  468.18
     80.4700	  719.00	  692.70	-2335.95	  467.98
     80.5700	  805.00	  708.97	-2266.22	  467.77
     80.6700	  755.00	  732.27	-2339.52	  467.56
     80.7700	  827.00	  764.43	-2299.68	  467.35
     80.8700	  821.00	  807.66	-2348.91	  467.14
     80.9700	  950.00	  863.95	-2276.20	  466.93
     81.0700	 1045.00	  934.68	-2251.93	  466.72
     81.1700	 1042.00	 1020.09	-2340.34	  466.51
     81.2700	 1154.00	 1118.73	-2326.98	  466.30
     81.3700	 1329.00	 1227.08	-2260.33	  466.09
     81.4700	 1419.00	 1339.26	-2282.51	  465.88
     81.5700	 1459.00	 1447.18	-2350.43	  465.67
     81.6700	 1534.00	 1541.31	-2369.56	  465.46
     81.7700	 1651.00	 1612.24	-2323.49	  465.25
     81.8700	 1643.00	 1653.05	-2372.30	  465.04
     81.9700	 1610.00	 1660.78	-2413.03	  464.84
     82.0700	 1585.00	 1636.34	-2413.59	  464.63
     82.1700	 1547.00	 1583.71	-2398.96	  464.42
     82.2700	 1507.00	 1509.28	-2364.53	  464.21
     82.3700	 1417.00	 1420.92	-2366.17	  464.00
     82.4700	 1296.00	 1326.43	-2392.68	  463.79
     82.5700	 1237.00	 1232.35	-2357.60	  463.59
     82.6700	 1148.00	 1143.45	-2357.70	  463.38
     82.7700	 1052.00	 1062.93	-2373.18	  463.17
     82.8700	  939.00	  992.49	-2415.74	  462.96
     82.9700	  890.00	  932.49	-2404.74	  462.76
     83.0700	  818.00	  882.18	-2426.43	  462.55
     83.1700	  816.00	  840.21	-2386.46	  462.34
     83.2700	  783.00	  805.11	-2384.36	  462.14
     83.3700	  734.00	  775.73	-2403.98	  461.93
     83.4700	  740.00	  751.24	-2373.49	  461.72
     83.5700	  702.00	  731.17	-2391.42	  461.52
     83.6700	  648.00	  715.18	-2429.43	  461.31
     83.7700	  674.00	  703.09	-2391.34	  461.11
     83.8700	  719.00	  694.73	-2337.98	  460.90
     83.9700	  695.00	  689.91	-2357.16	  460.70
     84.0700	  688.00	  688.39	-2362.64	  460.50
     84.1700	  685.00	  689.77	-2367.02	  460.29
     84.2700	  651.00	  693.56	-2404.81	  460.09
     84.3700	  686.00	  699.10	-2375.35	  459.89
     84.4700	  662.00	  705.41	-2405.66	  459.68
     84.5700	  750.00	  711.89	-2324.14	  459.48
     84.6700	  711.00	  717.36	-2368.61	  459.28
     84.7700	  710.00	  720.72	-2372.97	  459.08
     84.8700	  651.00	  721.38	-2432.63	  458.88
     84.9700	  748.00	  718.88	-2333.13	  458.68
     85.0700	  673.00	  713.43	-2402.68	  458.48
     85.1700	  691.00	  705.68	-2376.93	  458.28
     85.2700	  697.00	  696.48	-2361.73	  458.08
     85.3700	  702.00	  686.69	-2346.94	  457.88
     85.4700	  668.00	  677.07	-2371.32	  457.68
     85.5700	  655.00	  668.21	-2375.46	  457.48
     85.6700	  638.00	  660.57	-2384.82	  457.29
     85.7700	  640.00	  654.46	-2376.71	  457.09
     85.8700	  652.00	  650.06	-2360.31	  456.89
     85.9700	  654.00	  647.46	-2355.71	  456.70
     86.0700	  640.00	  646.71	-2368.96	  456.50
     86.1700	  699.00	  647.80	-2311.04	  456.31
     86.2700	  669.00	  650.70	-2343.95	  456.11
     86.3700	  742.00	  655.37	-2275.62	  455.92
     86.4700	  659.00	  661.73	-2364.98	  455.73
     86.5700	  695.00	  669.65	-2336.90	  455.53
     86.6700	  720.00	  678.93	-2321.18	  455.34
     86.7700	  660.00	  689.27	-2391.52	  455.15
     86.8700	  680.00	  700.31	-2382.56	  454.96
     86.9700	  674.00	  711.55	-2399.80	  454.77
     87.0700	  694.00	  722.45	-2390.70	  454.58
     87.1700	  737.00	  732.43	-2357.68	  454.39
     87.2700	  735.00	  741.05	-2368.30	  454.21
     87.3700	  738.00	  748.19	-2372.44	  454.02
     87.4700	  719.00	  754.05	-2397.30	  453.83
     87.5700	  709.00	  759.11	-2412.36	  453.65
     87.6700	  746.00	  763.93	-2380.18	  453.46
     87.7700	  726.00	  768.94	-2405.19	  453.28
     87.8700	  691.00	  774.33	-2445.58	  453.09
     87.9700	  766.00	  779.98	-2376.23	  452.91
     88.0700	  796.00	  785.46	-2351.71	  452.73
     88.1700	  774.00	  790.05	-2378.30	  452.55
     88.2700	  810.00	  792.85	-2345.10	  452.37
     88.3700	  762.00	  792.92	-2393.17	  452.19
     88.4700	  758.00	  789.62	-2393.87	  452.01
     88.5700	  781.00	  782.81	-2364.06	  451.83
     88.6700	  760.00	  772.91	-2375.16	  451.65
     88.7700	  719.00	  760.72	-2403.97	  451.47
     88.8700	  714.00	  747.18	-2395.43	  451.30
     88.9700	  744.00	  732.77	-2351.02	  451.12
     89.0700	  729.00	  719.22	-2352.47	  450.95
     89.1700	  711.00	  706.77	-2358.02	  450.77
     89.2700	  678.00	  695.94	-2380.19	  450.60
     89.3700	  695.00	  687.10	-2354.35	  450.43
     89.4700	  675.00	  680.42	-2367.67	  450.26
     89.5700	  722.00	  675.92	-2316.17	  450.09
     89.6700	  707.00	  673.45	-2328.70	  449.92
     89.7700	  657.00	  672.71	-2377.96	  449.75
     89.8700	  700.00	  673.33	-2335.58	  449.58
     89.9700	  672.00	  674.79	-2365.04	  449.42
     90.0700	  718.00	  676.58	-2320.83	  449.25
     90.1700	  729.00	  678.10	-2311.35	  449.09
     90.2700	  730.00	  678.82	-2311.07	  448.92
     90.3700	  705.00	  678.35	-2335.60	  448.76
     90.4700	  720.00	  676.47	-2318.72	  448.60
     90.5700	  674.00	  673.25	-2361.50	  448.44
     90.6700	  754.00	  668.91	-2277.16	  448.28
     90.7700	  694.00	  663.81	-2332.06	  448.12
     90.8700	  711.00	  658.33	-2309.58	  447.96
     90.9700	  633.00	  652.79	-2382.04	  447.81
     91.0700	  646.00	  647.47	-2363.72	  447.65
     91.1700	  665.00	  642.58	-2339.83	  447.50
     91.2700	  628.00	  638.27	-2372.52	  447.34
     91.3700	  616.00	  634.62	-2380.87	  447.19
     91.4700	  589.00	  631.67	-2404.92	  447.04
     91.5700	  642.00	  629.39	-2349.64	  446.89
     91.6700	  586.00	  627.75	-2404.00	  446.74
     91.7700	  601.00	  626.71	-2387.96	  446.59
     91.8700	  634.00	  626.21	-2354.46	  446.45
     91.9700	  613.00	  626.21	-2375.46	  446.30
     92.0700	  617.00	  626.70	-2371.95	  446.16
     92.1700	  652.00	  627.71	-2337.96	  446.01
     92.2700	  658.00	  629.28	-2333.53	  445.87
     92.3700	  612.00	  631.52	-2381.77	  445.73
     92.4700	  674.00	  634.57	-2322.82	  445.59
     92.5700	  644.00	  638.59	-2356.84	  445.45
     92.6700	  624.00	  643.79	-2382.04	  445.31
     92.7700	  645.00	  650.40	-2367.65	  445.17
     92.8700	  658.00	  658.64	-2362.89	  445.04
     92.9700	  622.00	  668.73	-2408.98	  444.90
     93.0700	  684.00	  680.81	-2359.06	  444.77
     93.1700	  727.00	  694.98	-2330.23	  444.64
     93.2700	  686.00	  711.24	-2387.49	  444.51
     93.3700	  720.00	  729.47	-2371.72	  444.38
     93.4700	  752.00	  749.40	-2359.65	  444.25
     93.5700	  737.00	  770.62	-2395.87	  444.12
     93.6700	  773.00	  792.59	-2381.84	  444.00
     93.7700	  788.00	  814.60	-2388.85	  443.87
     93.8700	  758.00	  835.83	-2440.08	  443.75
     93.9700	  792.00	  855.50	-2425.75	  443.63
     94.0700	  837.00	  872.98	-2398.23	  443.51
     94.1700	  875.00	  888.05	-2375.30	  443.39
     94.2700	  852.00	  900.97	-2411.22	  443.27
     94.3700	  842.00	  912.40	-2432.65	  443.16
     94.4700	  822.00	  923.22	-2463.47	  443.04
     94.5700	  931.00	  933.99	-2365.24	  442.93
     94.6700	  926.00	  946.04	-2382.29	  442.81
     94.7700	  939.00	  959.47	-2382.72	  442.70
     94.8700	  977.00	  974.49	-2359.74	  442.59
     94.9700	  967.00	  991.15	-2386.40	  442.49
     95.0700	 1035.00	 1009.42	-2336.67	  442.38
     95.1700	 1007.00	 1029.13	-2384.38	  442.27
     95.2700	 1053.00	 1049.86	-2359.11	  442.17
     95.3700	 1078.00	 1070.85	-2355.10	  442.07
     95.4700	 1088.00	 1090.86	-2365.11	  441.96
     95.5700	 1073.00	 1108.21	-2397.46	  441.86
     95.6700	 1137.00	 1120.94	-2346.19	  441.77
     95.7700	 1110.00	 1127.04	-2379.29	  441.67
     95.8700	 1115.00	 1124.89	-2372.14	  441.57
     95.9700	 1131.00	 1113.67	-2344.92	  441.48
     96.0700	 1118.00	 1093.66	-2337.91	  441.39
     96.1700	 1003.00	 1066.15	-2425.40	  441.30
     96.2700	 1080.00	 1033.18	-2315.43	  441.21
     96.3700	  988.00	  997.15	-2371.40	  441.12
     96.4700	  936.00	  960.56	-2386.81	  441.03
     96.5700	  930.00	  925.74	-2357.99	  440.95
     96.6700	  899.00	  894.87	-2358.12	  440.86
     96.7700	  925.00	  869.78	-2307.03	  440.78
     96.8700	  870.00	  852.04	-2344.29	  440.70
     96.9700	  866.00	  842.88	-2339.13	  440.62
     97.0700	  866.00	  843.25	-2339.50	  440.54
     97.1700	  965.00	  853.84	-2251.09	  440.47
     97.2700	  945.00	  875.11	-2292.36	  440.39
     97.3700	  873.00	  907.24	-2396.49	  440.32
     97.4700	  969.00	  950.14	-2343.39	  440.25
     97.5700	 1052.00	 1003.44	-2313.69	  440.18
     97.6700	 1132.00	 1066.37	-2296.62	  440.11
     97.7700	 1145.00	 1137.72	-2354.97	  440.04
     97.8700	 1207.00	 1215.76	-2371.01	  439.98
     97.9700	 1328.00	 1298.15	-2332.40	  439.91
     98.0700	 1366.00	 1381.97	-2378.22	  439.85
     98.1700	 1403.00	 1463.68	-2422.93	  439.79
     98.2700	 1515.00	 1539.12	-2386.37	  439.73
     98.3700	 1565.00	 1603.80	-2401.05	  439.67
     98.4700	 1544.00	 1653.25	-2471.50	  439.62
     98.5700	 1637.00	 1683.69	-2408.94	  439.56
     98.6700	 1654.00	 1692.80	-2401.05	  439.51
     98.7700	 1618.00	 1680.21	-2424.46	  439.46
     98.8700	 1577.00	 1647.63	-2432.88	  439.41
     98.9700	 1541.00	 1598.34	-2419.59	  439.37
     99.0700	 1478.00	 1536.49	-2420.74	  439.32
     99.1700	 1457.00	 1466.52	-2371.77	  439.28
     99.2700	 1376.00	 1392.72	-2378.97	  439.23
     99.3700	 1311.00	 1319.01	-2370.26	  439.19
     99.4700	 1209.00	 1248.77	-2402.02	  439.15
     99.5700	 1205.00	 1184.87	-2342.12	  439.12
     99.6700	 1069.00	 1129.63	-2422.88	  439.08
     99.7700	 1087.00	 1084.95	-2360.20	  439.05
     99.8700	 1074.00	 1052.28	-2340.53	  439.02
     99.9700	 1030.00	 1032.72	-2364.97	  438.99
    100.0700	 1070.00	 1027.03	-2319.28	  438.96
    100.1700	 1054.00	 1035.66	-2343.91	  438.93
    100.2700	 1120.00	 1058.74	-2300.99	  438.91
    100.3700	 1146.00	 1096.11	-2312.36	  438.88
    100.4700	 1109.00	 1147.26	-2400.51	  438.86
    100.5700	 1284.00	 1211.36	-2289.61	  438.84
    100.6700	 1303.00	 1287.15	-2346.40	  438.82
    100.7700	 1397.00	 1372.95	-2338.20	  438.81
    100.8700	 1519.00	 1466.62	-2309.87	  438.79
    100.9700	 1637.00	 1565.49	-2290.74	  438.78
    101.0700	 1630.00	 1666.31	-2398.56	  438.77
    101.1700	 1787.00	 1765.76	-2341.01	  438.76
    101.2700	 1860.00	 1859.99	-2362.24	  438.75
    101.3700	 1945.00	 1945.45	-2362.70	  438.75
    101.4700	 1947.00	 2019.15	-2434.40	  438.74
    101.5700	 2161.00	 2079.06	-2280.31	  438.74
    101.6700	 2156.00	 2124.03	-2330.28	  438.74
    101.7700	 2125.00	 2153.58	-2390.83	  438.74
    101.8700	 2119.00	 2167.60	-2410.85	  438.75
    101.9700	 2198.00	 2165.98	-2330.23	  438.75
    102.0700	 2189.00	 2148.72	-2321.97	  438.76
    102.1700	 2130.00	 2116.19	-2348.44	  438.77
    102.2700	 2147.00	 2069.52	-2284.77	  438.78
    102.3700	 2110.00	 2010.87	-2263.12	  438.79
    102.4700	 1984.00	 1943.32	-2321.57	  438.81
    102.5700	 1941.00	 1870.52	-2291.77	  438.82
    102.6700	 1851.00	 1796.18	-2307.43	  438.84
    102.7700	 1822.00	 1723.64	-2263.89	  438.86
    102.8700	 1709.00	 1655.53	-2308.78	  438.88
    102.9700	 1571.00	 1593.73	-2384.98	  438.91
    103.0700	 1546.00	 1539.24	-2355.49	  438.93
    103.1700	 1587.00	 1492.38	-2267.63	  438.96
    103.2700	 1459.00	 1452.77	-2356.02	  438.99
    103.3700	 1450.00	 1419.40	-2331.65	  439.02
    103.4700	 1354.00	 1390.78	-2399.03	  439.06
    103.5700	 1395.00	 1365.01	-2332.26	  439.09
    103.6700	 1263.00	 1340.05	-2439.30	  439.13
    103.7700	 1333.00	 1313.96	-2343.21	  439.17
    103.8700	 1257.00	 1285.13	-2390.38	  439.21
    103.9700	 1222.00	 1252.60	-2392.85	  439.25
    104.0700	 1206.00	 1216.13	-2372.38	  439.30
    104.1700	 1198.00	 1176.09	-2340.34	  439.34
    104.2700	 1141.00	 1133.31	-2354.56	  439.39
    104.3700	 1098.00	 1088.86	-2353.11	  439.44
    104.4700	 1025.00	 1043.86	-2381.11	  439.50
    104.5700	 1039.00	  999.35	-2322.60	  439.55
    104.6700	  970.00	  956.27	-2348.52	  439.61
    104.7700	  909.00	  915.39	-2368.64	  439.67
    104.8700	  958.00	  877.32	-2281.57	  439.73
    104.9700	  930.00	  842.43	-2274.68	  439.79
    105.0700	  899.00	  811.18	-2274.43	  439.85
    105.1700	  756.00	  783.58	-2389.83	  439.92
    105.2700	  775.00	  759.63	-2346.88	  439.99
    105.3700	  767.00	  739.18	-2334.43	  440.06
    105.4700	  771.00	  722.03	-2313.28	  440.13
    105.5700	  760.00	  707.88	-2310.13	  440.20
    105.6700	  722.00	  696.41	-2336.66	  440.28
    105.7700	  719.00	  687.25	-2330.50	  440.36
    105.8700	  646.00	  680.19	-2396.44	  440.44
    105.9700	  714.00	  674.89	-2323.14	  440.52
    106.0700	  690.00	  671.12	-2343.37	  440.60
    106.1700	  702.00	  668.66	-2328.91	  440.69
    106.2700	  636.00	  667.37	-2393.61	  440.77
    106.3700	  702.00	  667.13	-2327.38	  440.86
    106.4700	  712.00	  667.90	-2318.15	  440.96
    106.5700	  679.00	  669.64	-2352.89	  441.05
    106.6700	  675.00	  672.36	-2359.61	  441.14
    106.7700	  655.00	  676.09	-2383.34	  441.24
    106.8700	  686.00	  680.88	-2357.13	  441.34
    106.9700	  769.00	  686.77	-2280.02	  441.44
    107.0700	  681.00	  693.83	-2375.08	  441.55
    107.1700	  686.00	  702.09	-2378.34	  441.65
    107.2700	  702.00	  711.57	-2371.82	  441.76
    107.3700	  729.00	  722.24	-2355.49	  441.87
    107.4700	  701.00	  734.03	-2395.28	  441.98
    107.5700	  752.00	  746.81	-2357.06	  442.09
    107.6700	  746.00	  760.40	-2376.65	  442.21
    107.7700	  748.00	  774.53	-2388.78	  442.33
    107.8700	  767.00	  788.88	-2384.13	  442.45
    107.9700	  785.00	  803.07	-2380.32	  442.57
    108.0700	  783.00	  816.68	-2395.93	  442.69
    108.1700	  803.00	  829.24	-2388.49	  442.82
    108.2700	  814.00	  840.29	-2388.54	  442.94
    108.3700	  773.00	  849.41	-2438.66	  443.07
    108.4700	  773.00	  856.29	-2445.54	  443.20
    108.5700	  790.00	  860.79	-2433.04	  443.34
    108.6700	  777.00	  862.94	-2448.19	  443.47
    108.7700	  820.00	  862.98	-2405.23	  443.61
    108.8700	  840.00	  861.36	-2383.61	  443.75
    108.9700	  812.00	  858.57	-2408.82	  443.89
    109.0700	  800.00	  855.12	-2417.37	  444.03
    109.1700	  843.00	  851.52	-2370.77	  444.18
    109.2700	  800.00	  848.19	-2410.44	  444.32
    109.3700	  788.00	  845.47	-2419.72	  444.47
    109.4700	  785.00	  843.58	-2420.83	  444.62
    109.5700	  768.00	  842.64	-2436.89	  444.78
    109.6700	  847.00	  842.63	-2357.88	  444.93
    109.7700	  768.00	  843.44	-2437.69	  445.09
    109.8700	  748.00	  844.83	-2459.08	  445.25
    109.9700	  796.00	  846.48	-2412.73	  445.41
    110.0700	  815.00	  847.96	-2395.21	  445.57
    110.1700	  784.00	  848.83	-2427.08	  445.74
    110.2700	  795.00	  848.63	-2415.88	  445.90
    110.3700	  818.00	  847.02	-2391.27	  446.07
    110.4700	  865.00	  843.70	-2340.95	  446.24
    110.5700	  860.00	  838.56	-2340.81	  446.42
    110.6700	  771.00	  831.64	-2422.89	  446.59
    110.7700	  825.00	  823.12	-2360.37	  446.77
    110.8700	  809.00	  813.29	-2366.54	  446.95
    110.9700	  801.00	  802.48	-2363.73	  447.13
    111.0700	  739.00	  791.03	-2414.28	  447.31
    111.1700	  794.00	  779.29	-2347.54	  447.49
    111.2700	  754.00	  767.56	-2375.81	  447.68
    111.3700	  748.00	  756.12	-2370.37	  447.87
    111.4700	  709.00	  745.20	-2398.45	  448.06
    111.5700	  659.00	  734.99	-2438.24	  448.25
    111.6700	  728.00	  725.63	-2359.88	  448.45
    111.7700	  717.00	  717.23	-2362.48	  448.64
    111.8700	  712.00	  709.85	-2360.10	  448.84
    111.9700	  710.00	  703.53	-2355.78	  449.04
    112.0700	  667.00	  698.26	-2393.51	  449.24
    112.1700	  693.00	  694.00	-2363.25	  449.45
    112.2700	  680.00	  690.71	-2372.96	  449.65
    112.3700	  721.00	  688.32	-2329.57	  449.86
    112.4700	  699.00	  686.72	-2349.97	  450.07
    112.5700	  632.00	  685.85	-2416.10	  450.28
    112.6700	  678.00	  685.59	-2369.84	  450.50
    112.7700	  693.00	  685.84	-2355.09	  450.71
    112.8700	  643.00	  686.53	-2405.78	  450.93
    112.9700	  694.00	  687.55	-2355.80	  451.15
    113.0700	  640.00	  688.83	-2411.08	  451.37
    113.1700	  656.00	  690.30	-2396.55	  451.59
    113.2700	  626.00	  691.92	-2428.18	  451.82
    113.3700	  675.00	  693.66	-2380.91	  452.04
    113.4700	  662.00	  695.49	-2395.74	  452.27
    113.5700	  717.00	  697.42	-2342.67	  452.50
    113.6700	  674.00	  699.47	-2387.72	  452.73
    113.7700	  666.00	  701.69	-2397.94	  452.97
    113.8700	  652.00	  704.11	-2414.36	  453.20
    113.9700	  698.00	  706.78	-2371.03	  453.44
    114.0700	  682.00	  709.80	-2390.05	  453.68
    114.1700	  694.00	  713.26	-2381.51	  453.92
    114.2700	  688.00	  717.26	-2391.51	  454.17
    114.3700	  722.00	  721.94	-2362.19	  454.41
    114.4700	  690.00	  727.50	-2399.75	  454.66
    114.5700	  669.00	  734.16	-2427.41	  454.91
    114.6700	  767.00	  742.21	-2337.46	  455.16
    114.7700	  713.00	  752.06	-2401.31	  455.41
    114.8700	  799.00	  764.20	-2327.45	  455.66
    114.9700	  811.00	  779.26	-2330.51	  455.92
    115.0700	  794.00	  798.02	-2366.27	  456.18
    115.1700	  837.00	  821.47	-2346.72	  456.44
    115.2700	  862.00	  850.81	-2351.06	  456.70
    115.3700	  970.00	  887.47	-2279.72	  456.96
    115.4700	 1006.00	  933.16	-2289.41	  457.23
    115.5700	 1101.00	  989.84	-2251.09	  457.49
    115.6700	 1150.00	 1059.75	-2272.00	  457.76
    115.7700	 1326.00	 1145.35	-2181.60	  458.03
    115.8700	 1449.00	 1249.36	-2162.61	  458.30
    115.9700	 1539.00	 1374.56	-2197.81	  458.58
    116.0700	 1759.00	 1523.81	-2127.06	  458.85
    116.1700	 1940.00	 1699.83	-2122.08	  459.13
    116.2700	 2181.00	 1905.14	-2086.39	  459.41
    116.3700	 2421.00	 2141.87	-2083.12	  459.69
    116.4700	 2628.00	 2411.49	-2145.74	  459.97
    116.5700	 3073.00	 2714.66	-2003.91	  460.25
    116.6700	 3339.00	 3051.00	-2074.25	  460.54
    116.7700	 3610.00	 3419.07	-2171.32	  460.82
    116.8700	 4048.00	 3816.09	-2130.34	  461.11
    116.9700	 4302.00	 4237.78	-2298.03	  461.40
    117.0700	 4634.00	 4678.40	-2406.65	  461.69
    117.1700	 5208.00	 5130.67	-2284.92	  461.99
    117.2700	 5519.00	 5586.14	-2429.39	  462.28
    117.3700	 6031.00	 6034.97	-2366.22	  462.58
    117.4700	 6179.00	 6466.17	-2649.42	  462.88
    117.5700	 6623.00	 6868.00	-2607.25	  463.18
    117.6700	 7051.00	 7228.29	-2539.54	  463.48
    117.7700	 7330.00	 7535.15	-2567.40	  463.78
    117.8700	 7498.00	 7777.47	-2641.72	  464.09
    117.9700	 7481.00	 7945.79	-2827.04	  464.39
    118.0700	 7570.00	 8033.28	-2825.53	  464.70
    118.1700	 7668.00	 8036.45	-2730.70	  465.01
    118.2700	 7636.00	 7955.57	-2681.82	  465.32
    118.3700	 7552.00	 7794.62	-2604.87	  465.63
    118.4700	 7276.00	 7560.81	-2647.06	  465.95
    118.5700	 7010.00	 7263.79	-2616.04	  466.26
    118.6700	 6668.00	 6914.83	-2609.08	  466.58
    118.7700	 6269.00	 6525.80	-2619.05	  466.90
    118.8700	 5930.00	 6108.61	-2540.86	  467.21
    118.9700	 5723.00	 5674.76	-2314.01	  467.54
    119.0700	 5253.00	 5234.87	-2344.12	  467.86
    119.1700	 4947.00	 4798.49	-2213.74	  468.18
    119.2700	 4599.00	 4373.73	-2136.98	  468.51
    119.3700	 4308.00	 3967.26	-2021.51	  468.83
    119.4700	 3936.00	 3584.41	-2010.66	  469.16
    119.5700	 3628.00	 3229.00	-1963.25	  469.49
    119.6700	 3284.00	 2903.51	-1981.76	  469.82
    119.7700	 2941.00	 2609.07	-2030.32	  470.15
    119.8700	 2651.00	 2345.73	-2056.98	  470.49
    119.9700	 2356.00	 2112.77	-2119.02	  470.82
    120.0700	 2154.00	 1908.71	-2116.96	  471.16
    120.1700	 2033.00	 1731.58	-2060.83	  471.50
    120.2700	 1896.00	 1579.05	-2045.30	  471.83
    120.3700	 1662.00	 1448.61	-2148.86	  472.17
    120.4700	 1561.00	 1337.74	-2138.99	  472.52
    120.5700	 1422.00	 1243.96	-2184.21	  472.86
    120.6700	 1308.00	 1164.91	-2219.16	  473.20
    120.7700	 1268.00	 1098.42	-2192.67	  473.55
    120.8700	 1175.00	 1042.54	-2229.79	  473.89
    120.9700	 1058.00	  995.56	-2299.81	  474.24
    121.0700	 1074.00	  956.01	-2244.26	  474.59
    121.1700	  979.00	  922.66	-2305.91	  474.94
    121.2700	  972.00	  894.46	-2284.71	  475.29
    121.3700	  946.00	  870.58	-2286.83	  475.64
    121.4700	  916.00	  850.32	-2296.57	  476.00
    121.5700	  908.00	  833.14	-2287.39	  476.35
    121.6700	  853.00	  818.61	-2327.86	  476.71
    121.7700	  770.00	  806.38	-2398.63	  477.06
    121.8700	  783.00	  796.16	-2375.42	  477.42
    121.9700	  792.00	  787.76	-2358.01	  477.78
    122.0700	  751.00	  780.99	-2392.24	  478.14
    122.1700	  751.00	  775.72	-2386.97	  478.50
    122.2700	  776.00	  771.84	-2358.09	  478.86
    122.3700	  717.00	  769.25	-2414.50	  479.22
    122.4700	  746.00	  767.88	-2384.13	  479.59
    122.5700	  752.00	  767.66	-2377.91	  479.95
    122.6700	  719.00	  768.53	-2411.78	  480.32
    122.7700	  672.00	  770.44	-2460.69	  480.68
    122.8700	  751.00	  773.34	-2384.59	  481.05
    122.9700	  686.00	  777.16	-2453.41	  481.42
    123.0700	  765.00	  781.85	-2379.10	  481.79
    123.1700	  747.00	  787.35	-2402.60	  482.16
    123.2700	  780.00	  793.58	-2375.83	  482.53
    123.3700	  721.00	  800.47	-2441.72	  482.90
    123.4700	  792.00	  807.92	-2378.17	  483.28
    123.5700	  801.00	  815.83	-2377.08	  483.65
    123.6700	  735.00	  824.11	-2451.36	  484.02
    123.7700	  731.00	  832.63	-2463.88	  484.40
    123.8700	  777.00	  841.27	-2426.52	  484.78
    123.9700	  802.00	  849.90	-2410.15	  485.15
    124.0700	  827.00	  858.39	-2393.64	  485.53
    124.1700	  802.00	  866.62	-2426.87	  485.91
    124.2700	  837.00	  874.45	-2399.70	  486.29
    124.3700	  887.00	  881.79	-2357.04	  486.67
    124.4700	  802.00	  888.56	-2448.81	  487.05
    124.5700	  847.00	  894.69	-2409.94	  487.43
    124.6700	  882.00	  900.15	-2380.40	  487.81
    124.7700	  853.00	  904.98	-2414.23	  488.19
    124.8700	  829.00	  909.21	-2442.46	  488.57
    124.9700	  872.00	  635.20	-2125.45	  488.96
    125.0700	  838.00	  635.59	-2362.25	  489.34
    125.1700	  868.00	  635.97	-2362.25	  489.72
    125.2700	  895.00	  636.36	-2362.25	  490.11
    125.3700	  858.00	  636.74	-2362.25	  490.49
    125.4700	  849.00	  637.13	-2362.25	  490.88
    125.5700	  887.00	  637.51	-2362.25	  491.27
    125.6700	  849.00	  637.90	-2362.25	  491.65
    125.7700	  882.00	  638.29	-2362.25	  492.04
    125.8700	  823.00	  638.67	-2362.25	  492.43
    125.9700	  834.00	  639.06	-2362.25	  492.81
    126.0700	  878.00	  639.45	-2362.25	  493.20
    126.1700	  908.00	  639.84	-2362.25	  493.59
    126.2700	  860.00	  640.23	-2362.25	  493.98
    126.3700	  873.00	  640.62	-2362.25	  494.37
    126.4700	  892.00	  641.01	-2362.25	  494.76
    126.5700	  820.00	  641.40	-2362.25	  495.15
    126.6700	  800.00	  641.79	-2362.25	  495.54
    126.7700	  847.00	  642.18	-2362.25	  495.93
    126.8700	  841.00	  642.57	-2362.25	  496.32
    126.9700	  769.00	  642.96	-2362.25	  496.71
    127.0700	  809.00	  643.35	-2362.25	  497.10
    127.1700	  770.00	  643.74	-2362.25	  497.49
    127.2700	  747.00	  644.13	-2362.25	  497.88
    127.3700	  756.00	  644.52	-2362.25	  498.27
    127.4700	  776.00	  644.91	-2362.25	  498.66
    127.5700	  725.00	  645.30	-2362.25	  499.05
    127.6700	  732.00	  645.69	-2362.25	  499.44
    127.7700	  719.00	  646.08	-2362.25	  499.83
    127.8700	  692.00	  646.47	-2362.25	  500.23
    127.9700	  714.00	  646.86	-2362.25	  500.62
    128.0700	  692.00	  647.25	-2362.25	  501.01
    128.1700	  736.00	  647.64	-2362.25	  501.40
    128.2700	  696.00	  648.03	-2362.25	  501.79
    128.3700	  704.00	  648.43	-2362.25	  502.18
    128.4700	  706.00	  648.82	-2362.25	  502.57
    128.5700	    0.00	  649.21	-2362.25	  502.96
    128.6700	    0.00	  649.59	-2362.25	  503.35
     12.4567	        	        	        	        	       0	(  0  0  2)	  0  1
     12.4567	        	        	        	        	    -590	(  0  0  2)	  0  1
     25.1546	        	        	        	        	       0	(  0  0  4)	  0  1
     25.1546	        	        	        	        	    -590	(  0  0  4)	  0  1
     28.5904	        	        	        	        	       0	(  1  0  0)	  0  1
     28.5904	        	        	        	        	    -590	(  1  0  0)	  0  1
     29.2951	        	        	        	        	       0	(  1  0  1)	  0  1
     29.2951	        	        	        	        	    -590	(  1  0  1)	  0  1
     31.3226	        	        	        	        	       0	(  1  0  2)	  0  1
     31.3226	        	        	        	        	    -590	(  1  0  2)	  0  1
     34.4637	        	        	        	        	       0	(  1  0  3)	  0  1
     34.4637	        	        	        	        	    -590	(  1  0  3)	  0  1
     38.1775	        	        	        	        	       0	(  0  0  6)	  0  1
     38.1775	        	        	        	        	    -590	(  0  0  6)	  0  1
     38.4828	        	        	        	        	       0	(  1  0  4)	  0  1
     38.4828	        	        	        	        	    -590	(  1  0  4)	  0  1
     43.1825	        	        	        	        	       0	(  1  0  5)	  0  1
     43.1825	        	        	        	        	    -590	(  1  0  5)	  0  1
     48.4229	        	        	        	        	       0	(  1  0  6)	  0  1
     48.4229	        	        	        	        	    -590	(  1  0  6)	  0  1
     50.7154	        	        	        	        	       0	(  1  1  0)	  0  1
     50.7154	        	        	        	        	    -590	(  1  1  0)	  0  1
     51.7385	        	        	        	        	       0	(  0  0  8)	  0  1
     51.7385	        	        	        	        	    -590	(  0  0  8)	  0  1
     52.4589	        	        	        	        	       0	(  1  1  2)	  0  1
     52.4589	        	        	        	        	    -590	(  1  1  2)	  0  1
     54.1165	        	        	        	        	       0	(  1  0  7)	  0  1
     54.1165	        	        	        	        	    -590	(  1  0  7)	  0  1
     57.4666	        	        	        	        	       0	(  1  1  4)	  0  1
     57.4666	        	        	        	        	    -590	(  1  1  4)	  0  1
     59.2940	        	        	        	        	       0	(  2  0  0)	  0  1
     59.2940	        	        	        	        	    -590	(  2  0  0)	  0  1
     59.6905	        	        	        	        	       0	(  2  0  1)	  0  1
     59.6905	        	        	        	        	    -590	(  2  0  1)	  0  1
     60.2176	        	        	        	        	       0	(  1  0  8)	  0  1
     60.2176	        	        	        	        	    -590	(  1  0  8)	  0  1
     60.8707	        	        	        	        	       0	(  2  0  2)	  0  1
     60.8707	        	        	        	        	    -590	(  2  0  2)	  0  1
     62.8084	        	        	        	        	       0	(  2  0  3)	  0  1
     62.8084	        	        	        	        	    -590	(  2  0  3)	  0  1
     65.2581	        	        	        	        	       0	(  1  1  6)	  0  1
     65.2581	        	        	        	        	    -590	(  1  1  6)	  0  1
     65.4667	        	        	        	        	       0	(  2  0  4)	  0  1
     65.4667	        	        	        	        	    -590	(  2  0  4)	  0  1
     66.1338	        	        	        	        	       0	(  0  0 10)	  0  1
     66.1338	        	        	        	        	    -590	(  0  0 10)	  0  1
     66.7135	        	        	        	        	       0	(  1  0  9)	  0  1
     66.7135	        	        	        	        	    -590	(  1  0  9)	  0  1
     68.8049	        	        	        	        	       0	(  2  0  5)	  0  1
     68.8049	        	        	        	        	    -590	(  2  0  5)	  0  1
     72.7866	        	        	        	        	       0	(  2  0  6)	  0  1
     72.7866	        	        	        	        	    -590	(  2  0  6)	  0  1
     73.6204	        	        	        	        	       0	(  1  0 10)	  0  1
     73.6204	        	        	        	        	    -590	(  1  0 10)	  0  1
     75.4326	        	        	        	        	       0	(  1  1  8)	  0  1
     75.4326	        	        	        	        	    -590	(  1  1  8)	  0  1
     77.3861	        	        	        	        	       0	(  2  0  7)	  0  1
     77.3861	        	        	        	        	    -590	(  2  0  7)	  0  1
     80.9837	        	        	        	        	       0	(  1  0 11)	  0  1
     80.9837	        	        	        	        	    -590	(  1  0 11)	  0  1
     81.7890	        	        	        	        	       0	(  2  1  0)	  0  1
     81.7890	        	        	        	        	    -590	(  2  1  0)	  0  1
     81.8291	        	        	        	        	       0	(  0  0 12)	  0  1
     81.8291	        	        	        	        	    -590	(  0  0 12)	  0  1
     82.1342	        	        	        	        	       0	(  2  1  1)	  0  1
     82.1342	        	        	        	        	    -590	(  2  1  1)	  0  1
     82.5949	        	        	        	        	       0	(  2  0  8)	  0  1
     82.5949	        	        	        	        	    -590	(  2  0  8)	  0  1
     83.1683	        	        	        	        	       0	(  2  1  2)	  0  1
     83.1683	        	        	        	        	    -590	(  2  1  2)	  0  1
     84.8872	        	        	        	        	       0	(  2  1  3)	  0  1
     84.8872	        	        	        	        	    -590	(  2  1  3)	  0  1
     87.2863	        	        	        	        	       0	(  2  1  4)	  0  1
     87.2863	        	        	        	        	    -590	(  2  1  4)	  0  1
     87.8957	        	        	        	        	       0	(  1  1 10)	  0  1
     87.8957	        	        	        	        	    -590	(  1  1 10)	  0  1
     88.4276	        	        	        	        	       0	(  2  0  9)	  0  1
     88.4276	        	        	        	        	    -590	(  2  0  9)	  0  1
     88.8843	        	        	        	        	       0	(  1  0 12)	  0  1
     88.8843	        	        	        	        	    -590	(  1  0 12)	  0  1
     90.3647	        	        	        	        	       0	(  2  1  5)	  0  1
     90.3647	        	        	        	        	    -590	(  2  1  5)	  0  1
     94.1298	        	        	        	        	       0	(  2  1  6)	  0  1
     94.1298	        	        	        	        	    -590	(  2  1  6)	  0  1
     94.9310	        	        	        	        	       0	(  2  0 10)	  0  1
     94.9310	        	        	        	        	    -590	(  2  0 10)	  0  1
     95.8840	        	        	        	        	       0	(  3  0  0)	  0  1
     95.8840	        	        	        	        	    -590	(  3  0  0)	  0  1
     96.2279	        	        	        	        	       0	(  3  0  1)	  0  1
     96.2279	        	        	        	        	    -590	(  3  0  1)	  0  1
     97.2611	        	        	        	        	       0	(  3  0  2)	  0  1
     97.2611	        	        	        	        	    -590	(  3  0  2)	  0  1
     97.4547	        	        	        	        	       0	(  1  0 13)	  0  1
     97.4547	        	        	        	        	    -590	(  1  0 13)	  0  1
     98.6045	        	        	        	        	       0	(  2  1  7)	  0  1
     98.6045	        	        	        	        	    -590	(  2  1  7)	  0  1
     98.9886	        	        	        	        	       0	(  3  0  3)	  0  1
     98.9886	        	        	        	        	    -590	(  3  0  3)	  0  1
     99.6841	        	        	        	        	       0	(  0  0 14)	  0  1
     99.6841	        	        	        	        	    -590	(  0  0 14)	  0  1
    101.4215	        	        	        	        	       0	(  3  0  4)	  0  1
    101.4215	        	        	        	        	    -590	(  3  0  4)	  0  1
    102.1993	        	        	        	        	       0	(  2  0 11)	  0  1
    102.1993	        	        	        	        	    -590	(  2  0 11)	  0  1
    103.0564	        	        	        	        	       0	(  1  1 12)	  0  1
    103.0564	        	        	        	        	    -590	(  1  1 12)	  0  1
    103.8370	        	        	        	        	       0	(  2  1  8)	  0  1
    103.8370	        	        	        	        	    -590	(  2  1  8)	  0  1
    104.5814	        	        	        	        	       0	(  3  0  5)	  0  1
    104.5814	        	        	        	        	    -590	(  3  0  5)	  0  1
    106.9137	        	        	        	        	       0	(  1  0 14)	  0  1
    106.9137	        	        	        	        	    -590	(  1  0 14)	  0  1
    108.5078	        	        	        	        	       0	(  3  0  6)	  0  1
    108.5078	        	        	        	        	    -590	(  3  0  6)	  0  1
    109.9173	        	        	        	        	       0	(  2  1  9)	  0  1
    109.9173	        	        	        	        	    -590	(  2  1  9)	  0  1
    110.4040	        	        	        	        	       0	(  2  0 12)	  0  1
    110.4040	        	        	        	        	    -590	(  2  0 12)	  0  1
    113.2699	        	        	        	        	       0	(  3  0  7)	  0  1
    113.2699	        	        	        	        	    -590	(  3  0  7)	  0  1
    117.0090	        	        	        	        	       0	(  2  1 10)	  0  1
    117.0090	        	        	        	        	    -590	(  2  1 10)	  0  1
    117.6527	        	        	        	        	       0	(  1  0 15)	  0  1
    117.6527	        	        	        	        	    -590	(  1  0 15)	  0  1
    118.0797	        	        	        	        	       0	(  2  2  0)	  0  1
    118.0797	        	        	        	        	    -590	(  2  2  0)	  0  1
    118.9895	        	        	        	        	       0	(  3  0  8)	  0  1
    118.9895	        	        	        	        	    -590	(  3  0  8)	  0  1
    119.6428	        	        	        	        	       0	(  2  2  2)	  0  1
    119.6428	        	        	        	        	    -590	(  2  2  2)	  0  1
    119.8641	        	        	        	        	       0	(  2  0 13)	  0  1
    119.8641	        	        	        	        	    -590	(  2  0 13)	  0  1
    121.7694	        	        	        	        	       0	(  0  0 16)	  0  1
    121.7694	        	        	        	        	    -590	(  0  0 16)	  0  1
    122.4420	        	        	        	        	       0	(  1  1 14)	  0  1
    122.4420	        	        	        	        	    -590	(  1  1 14)	  0  1
    124.4910	        	        	        	        	       0	(  2  2  4)	  0  1
    124.4910	        	        	        	        	    -590	(  2  2  4)	  0  1
    125.4206	        	        	        	        	       0	(  2  1 11)	  0  1
    125.4206	        	        	        	        	    -590	(  2  1 11)	  0  1
    125.8881	        	        	        	        	       0	(  3  0  9)	  0  1
    125.8881	        	        	        	        	    -590	(  3  0  9)	  0  1
    126.4050	        	        	        	        	       0	(  3  1  0)	  0  1
    126.4050	        	        	        	        	    -590	(  3  1  0)	  0  1
    126.8315	        	        	        	        	       0	(  3  1  1)	  0  1
    126.8315	        	        	        	        	    -590	(  3  1  1)	  0  1
    128.1257	        	        	        	        	       0	(  3  1  2)	  0  1
    128.1257	        	        	        	        	    -590	(  3  1  2)	  0  1
    130.3358	        	        	        	        	       0	(  3  1  3)	  0  1
    130.3358	        	        	        	        	    -590	(  3  1  3)	  0  1
    130.4896	        	        	        	        	       0	(  1  0 16)	  0  1
    130.4896	        	        	        	        	    -590	(  1  0 16)	  0  1
    131.2432	        	        	        	        	       0	(  2  0 14)	  0  1
    131.2432	        	        	        	        	    -590	(  2  0 14)	  0  1
    133.2973	        	        	        	        	       0	(  2  2  6)	  0  1
    133.2973	        	        	        	        	    -590	(  2  2  6)	  0  1
    133.5589	        	        	        	        	       0	(  3  1  4)	  0  1
    133.5589	        	        	        	        	    -590	(  3  1  4)	  0  1
    134.4064	        	        	        	        	       0	(  3  0 10)	  0  1
    134.4064	        	        	        	        	    -590	(  3  0 10)	  0  1
    135.8089	        	        	        	        	       0	(  2  1 12)	  0  1
    135.8089	        	        	        	        	    -590	(  2  1 12)	  0  1
    137.9787	        	        	        	        	       0	(  3  1  5)	  0  1
    137.9787	        	        	        	        	    -590	(  3  1  5)	  0  1
    143.9660	        	        	        	        	       0	(  3  1  6)	  0  1
    143.9660	        	        	        	        	    -590	(  3  1  6)	  0  1
    145.6189	        	        	        	        	       0	(  3  0 11)	  0  1
    145.6189	        	        	        	        	    -590	(  3  0 11)	  0  1
    146.3700	        	        	        	        	       0	(  2  0 15)	  0  1
    146.3700	        	        	        	        	    -590	(  2  0 15)	  0  1
    147.8441	        	        	        	        	       0	(  1  0 17)	  0  1
    147.8441	        	        	        	        	    -590	(  1  0 17)	  0  1
    148.5618	        	        	        	        	       0	(  2  2  8)	  0  1
    148.5618	        	        	        	        	    -590	(  2  2  8)	  0  1
    150.0569	        	        	        	        	       0	(  2  1 13)	  0  1
    150.0569	        	        	        	        	    -590	(  2  1 13)	  0  1
    152.4298	        	        	        	        	       0	(  3  1  7)	  0  1
    152.4298	        	        	        	        	    -590	(  3  1  7)	  0  1
    153.5256	        	        	        	        	       0	(  1  1 16)	  0  1
    153.5256	        	        	        	        	    -590	(  1  1 16)	  0  1
    158.9195	        	        	        	        	       0	(  0  0 18)	  0  1
    158.9195	        	        	        	        	    -590	(  0  0 18)	  0  1
    164.2211	        	        	        	        	       0	(  4  0  0)	  0  1
    164.2211	        	        	        	        	    -590	(  4  0  0)	  0  1
    164.3686	        	        	        	        	       0	(  3  0 12)	  0  1
    164.3686	        	        	        	        	    -590	(  3  0 12)	  0  1
    165.5395	        	        	        	        	       0	(  4  0  1)	  0  1
    165.5395	        	        	        	        	    -590	(  4  0  1)	  0  1
    167.5121	        	        	        	        	       0	(  3  1  8)	  0  1
    167.5121	        	        	        	        	    -590	(  3  1  8)	  0  1
