MSG Master    CELL:    5.87653   5.87653  23.07309   90.0000   90.0000  120.0000   SPGR: P 63/m m c             TEMP:    447.35
  2   1280     2.52000     0.00000    -0.08336     0.00000     0.00000    0
    95    95     0     0     2
       0.00000      10.00000
     125.00000     130.00000
 2Theta	Yobs	Ycal	Yobs-Ycal	Backg	Posr	(hkl)	K
      0.7700	    0.00	 1014.44	-2291.50	  873.47
      0.8700	    0.00	 1010.77	-2291.50	  869.81
      0.9700	   40.00	 1007.13	-2291.50	  866.17
      1.0700	   44.00	 1003.51	-2291.50	  862.55
      1.1700	   48.00	  999.92	-2291.50	  858.95
      1.2700	   42.00	  996.35	-2291.50	  855.38
      1.3700	   53.00	  992.80	-2291.50	  851.83
      1.4700	   97.00	  989.27	-2291.50	  848.31
      1.5700	  329.00	  985.77	-2291.50	  844.80
      1.6700	  461.00	  982.29	-2291.50	  841.32
      1.7700	  558.00	  978.83	-2291.50	  837.87
      1.8700	  620.00	  975.40	-2291.50	  834.43
      1.9700	  720.00	  971.98	-2291.50	  831.02
      2.0700	  759.00	  968.59	-2291.50	  827.63
      2.1700	  821.00	  965.23	-2291.50	  824.26
      2.2700	  757.00	  961.88	-2291.50	  820.91
      2.3700	  752.00	  958.56	-2291.50	  817.59
      2.4700	  702.00	  955.26	-2291.50	  814.29
      2.5700	  730.00	  951.98	-2291.50	  811.01
      2.6700	  647.00	  948.72	-2291.50	  807.75
      2.7700	  672.00	  945.48	-2291.50	  804.52
      2.8700	  689.00	  942.27	-2291.50	  801.30
      2.9700	  650.00	  939.08	-2291.50	  798.11
      3.0700	  564.00	  935.91	-2291.50	  794.94
      3.1700	  598.00	  932.76	-2291.50	  791.79
      3.2700	  700.00	  929.63	-2291.50	  788.66
      3.3700	  958.00	  926.52	-2291.50	  785.55
      3.4700	 1069.00	  923.43	-2291.50	  782.47
      3.5700	 1183.00	  920.37	-2291.50	  779.40
      3.6700	 1303.00	  917.32	-2291.50	  776.36
      3.7700	 1468.00	  914.30	-2291.50	  773.33
      3.8700	 1609.00	  911.30	-2291.50	  770.33
      3.9700	 1580.00	  908.31	-2291.50	  767.35
      4.0700	 1681.00	  905.35	-2291.50	  764.39
      4.1700	 1709.00	  902.41	-2291.50	  761.44
      4.2700	 1712.00	  899.49	-2291.50	  758.52
      4.3700	 1757.00	  896.59	-2291.50	  755.62
      4.4700	 1602.00	  893.71	-2291.50	  752.74
      4.5700	 1540.00	  890.85	-2291.50	  749.88
      4.6700	 1522.00	  888.01	-2291.50	  747.04
      4.7700	 1391.00	  885.19	-2291.50	  744.22
      4.8700	 1442.00	  882.38	-2291.50	  741.42
      4.9700	 1361.00	  879.60	-2291.50	  738.64
      5.0700	 1301.00	  876.84	-2291.50	  735.88
      5.1700	 1362.00	  874.10	-2291.50	  733.13
      5.2700	 1265.00	  871.38	-2291.50	  730.41
      5.3700	 1329.00	  868.67	-2291.50	  727.71
      5.4700	 1260.00	  865.99	-2291.50	  725.02
      5.5700	 1161.00	  863.32	-2291.50	  722.36
      5.6700	 1184.00	  860.68	-2291.50	  719.71
      5.7700	 1146.00	  858.05	-2291.50	  717.08
      5.8700	 1103.00	  855.44	-2291.50	  714.48
      5.9700	 1070.00	  852.85	-2291.50	  711.89
      6.0700	 1087.00	  850.28	-2291.50	  709.32
      6.1700	 1140.00	  847.73	-2291.50	  706.76
      6.2700	 1074.00	  845.20	-2291.50	  704.23
      6.3700	 1034.00	  842.68	-2291.50	  701.72
      6.4700	 1014.00	  840.19	-2291.50	  699.22
      6.5700	 1033.00	  837.71	-2291.50	  696.74
      6.6700	  970.00	  835.25	-2291.50	  694.28
      6.7700	 1001.00	  832.81	-2291.50	  691.84
      6.8700	  904.00	  830.38	-2291.50	  689.42
      6.9700	  947.00	  827.98	-2291.50	  687.01
      7.0700	  960.00	  825.59	-2291.50	  684.62
      7.1700	  923.00	  823.22	-2291.50	  682.25
      7.2700	  925.00	  820.87	-2291.50	  679.90
      7.3700	  887.00	  818.53	-2291.50	  677.56
      7.4700	  892.00	  816.21	-2291.50	  675.25
      7.5700	  866.00	  813.91	-2291.50	  672.95
      7.6700	  852.00	  811.63	-2291.50	  670.66
      7.7700	  859.00	  809.36	-2291.50	  668.40
      7.8700	  839.00	  807.12	-2291.50	  666.15
      7.9700	  868.00	  804.88	-2291.50	  663.92
      8.0700	  785.00	  802.67	-2291.50	  661.70
      8.1700	  822.00	  800.47	-2291.50	  659.51
      8.2700	  834.00	  798.29	-2291.50	  657.33
      8.3700	  825.00	  796.13	-2291.50	  655.16
      8.4700	  800.00	  793.98	-2291.50	  653.02
      8.5700	  818.00	  791.85	-2291.50	  650.89
      8.6700	  782.00	  789.74	-2291.50	  648.77
      8.7700	  824.00	  787.64	-2291.50	  646.68
      8.8700	  789.00	  785.56	-2291.50	  644.59
      8.9700	  769.00	  783.50	-2291.50	  642.53
      9.0700	  778.00	  781.45	-2291.50	  640.48
      9.1700	  772.00	  779.42	-2291.50	  638.45
      9.2700	  802.00	  777.40	-2291.50	  636.43
      9.3700	  752.00	  775.40	-2291.50	  634.43
      9.4700	  782.00	  773.41	-2291.50	  632.45
      9.5700	  813.00	  771.45	-2291.50	  630.48
      9.6700	  789.00	  769.49	-2291.50	  628.53
      9.7700	  758.00	  767.56	-2291.50	  626.59
      9.8700	  776.00	  765.63	-2291.50	  624.67
      9.9700	  779.00	  763.73	-2291.50	  622.76
     10.0700	  781.00	  763.88	-2274.38	  620.87
     10.1700	  760.00	  762.23	-2293.73	  619.00
     10.2700	  741.00	  760.63	-2311.13	  617.14
     10.3700	  735.00	  759.11	-2315.61	  615.29
     10.4700	  787.00	  757.68	-2262.18	  613.46
     10.5700	  767.00	  756.38	-2280.88	  611.65
     10.6700	  732.00	  755.27	-2314.77	  609.85
     10.7700	  736.00	  754.42	-2309.92	  608.06
     10.8700	  762.00	  753.92	-2283.42	  606.29
     10.9700	  740.00	  753.86	-2305.36	  604.54
     11.0700	  723.00	  754.31	-2322.81	  602.80
     11.1700	  741.00	  755.28	-2305.78	  601.07
     11.2700	  745.00	  756.80	-2303.30	  599.36
     11.3700	  796.00	  758.91	-2254.41	  597.66
     11.4700	  778.00	  761.68	-2275.18	  595.98
     11.5700	  786.00	  765.25	-2270.75	  594.31
     11.6700	  772.00	  769.82	-2289.32	  592.65
     11.7700	  786.00	  775.68	-2281.18	  591.01
     11.8700	  791.00	  783.09	-2283.59	  589.39
     11.9700	  842.00	  792.17	-2241.67	  587.78
     12.0700	  781.00	  802.52	-2313.02	  586.18
     12.1700	  896.00	  812.71	-2208.21	  584.59
     12.2700	  901.00	  819.77	-2210.27	  583.02
     12.3700	  886.00	  819.16	-2224.66	  581.46
     12.4700	  854.00	  807.56	-2245.06	  579.92
     12.5700	  736.00	  787.97	-2343.47	  578.39
     12.6700	  768.00	  767.64	-2291.14	  576.87
     12.7700	  686.00	  750.94	-2356.44	  575.37
     12.8700	  753.00	  738.73	-2277.23	  573.88
     12.9700	  662.00	  730.24	-2359.74	  572.40
     13.0700	  751.00	  724.36	-2264.86	  570.94
     13.1700	  717.00	  720.10	-2294.60	  569.49
     13.2700	  667.00	  716.79	-2341.29	  568.05
     13.3700	  653.00	  714.04	-2352.54	  566.63
     13.4700	  691.00	  711.63	-2312.13	  565.22
     13.5700	  715.00	  709.46	-2285.96	  563.82
     13.6700	  714.00	  707.46	-2284.96	  562.43
     13.7700	  692.00	  705.59	-2305.09	  561.06
     13.8700	  672.00	  703.82	-2323.32	  559.70
     13.9700	  709.00	  702.13	-2284.63	  558.35
     14.0700	  677.00	  700.51	-2315.01	  557.02
     14.1700	  733.00	  698.94	-2257.44	  555.69
     14.2700	  677.00	  697.43	-2311.93	  554.38
     14.3700	  680.00	  695.95	-2307.45	  553.08
     14.4700	  728.00	  694.51	-2258.01	  551.80
     14.5700	  676.00	  693.10	-2308.60	  550.52
     14.6700	  708.00	  691.71	-2275.21	  549.26
     14.7700	  670.00	  690.36	-2311.86	  548.01
     14.8700	  667.00	  689.03	-2313.53	  546.77
     14.9700	  668.00	  687.72	-2311.22	  545.55
     15.0700	  679.00	  686.43	-2298.93	  544.33
     15.1700	  657.00	  685.16	-2319.66	  543.13
     15.2700	  646.00	  683.91	-2329.41	  541.94
     15.3700	  674.00	  682.67	-2300.17	  540.76
     15.4700	  660.00	  681.46	-2312.96	  539.59
     15.5700	  634.00	  680.25	-2337.75	  538.43
     15.6700	  664.00	  679.07	-2306.57	  537.29
     15.7700	  650.00	  677.90	-2319.40	  536.15
     15.8700	  749.00	  676.74	-2219.24	  535.03
     15.9700	  708.00	  675.60	-2259.10	  533.92
     16.0700	  692.00	  674.47	-2273.97	  532.82
     16.1700	  762.00	  673.35	-2202.85	  531.73
     16.2700	  670.00	  672.25	-2293.75	  530.65
     16.3700	  667.00	  671.16	-2295.66	  529.58
     16.4700	  698.00	  670.08	-2263.58	  528.53
     16.5700	  694.00	  669.02	-2266.52	  527.48
     16.6700	  650.00	  667.96	-2309.46	  526.44
     16.7700	  652.00	  666.92	-2306.42	  525.42
     16.8700	  667.00	  665.89	-2290.39	  524.41
     16.9700	  623.00	  664.88	-2333.38	  523.40
     17.0700	  699.00	  663.87	-2256.37	  522.41
     17.1700	  615.00	  662.88	-2339.38	  521.43
     17.2700	  668.00	  661.89	-2285.39	  520.46
     17.3700	  677.00	  660.92	-2275.42	  519.49
     17.4700	  623.00	  659.96	-2328.46	  518.54
     17.5700	  695.00	  659.01	-2255.51	  517.60
     17.6700	  672.00	  658.07	-2277.57	  516.67
     17.7700	  650.00	  657.14	-2298.64	  515.75
     17.8700	  629.00	  656.22	-2318.72	  514.84
     17.9700	  661.00	  655.32	-2285.82	  513.94
     18.0700	  652.00	  654.42	-2293.92	  513.05
     18.1700	  687.00	  653.53	-2258.03	  512.16
     18.2700	  620.00	  652.66	-2324.16	  511.29
     18.3700	  696.00	  651.79	-2247.29	  510.43
     18.4700	  678.00	  650.93	-2264.43	  509.58
     18.5700	  656.00	  650.09	-2285.59	  508.74
     18.6700	  681.00	  649.25	-2259.75	  507.90
     18.7700	  704.00	  648.43	-2235.93	  507.08
     18.8700	  712.00	  647.61	-2227.11	  506.26
     18.9700	  672.00	  646.80	-2266.30	  505.46
     19.0700	  677.00	  646.01	-2260.51	  504.66
     19.1700	  652.00	  646.49	-2285.99	  503.88
     19.2700	  656.00	  647.90	-2283.40	  503.10
     19.3700	  643.00	  647.20	-2295.70	  502.33
     19.4700	  652.00	  646.52	-2286.02	  501.57
     19.5700	  623.00	  645.85	-2314.35	  500.82
     19.6700	  637.00	  645.19	-2299.69	  500.08
     19.7700	  640.00	  644.55	-2296.05	  499.35
     19.8700	  598.00	  643.91	-2337.41	  498.62
     19.9700	  631.00	  643.29	-2303.79	  497.91
     20.0700	  597.00	  642.68	-2337.18	  497.20
     20.1700	  686.00	  642.08	-2247.58	  496.50
     20.2700	  684.00	  641.56	-2249.06	  495.81
     20.3700	  649.00	  640.99	-2283.49	  495.13
     20.4700	  643.00	  640.43	-2288.93	  494.46
     20.5700	  660.00	  639.89	-2271.39	  493.79
     20.6700	  666.00	  639.36	-2264.86	  493.14
     20.7700	  647.00	  638.84	-2283.34	  492.49
     20.8700	  700.00	  638.34	-2229.84	  491.85
     20.9700	  617.00	  637.85	-2312.35	  491.22
     21.0700	  618.00	  637.37	-2310.87	  490.60
     21.1700	  605.00	  636.91	-2323.41	  489.98
     21.2700	  634.00	  636.46	-2293.96	  489.38
     21.3700	  618.00	  636.03	-2309.53	  488.78
     21.4700	  646.00	  635.62	-2281.12	  488.19
     21.5700	  643.00	  635.22	-2283.72	  487.61
     21.6700	  605.00	  634.84	-2321.34	  487.03
     21.7700	  642.00	  634.48	-2283.98	  486.46
     21.8700	  639.00	  634.13	-2286.63	  485.90
     21.9700	  657.00	  633.81	-2268.31	  485.35
     22.0700	  660.00	  633.50	-2265.00	  484.81
     22.1700	  649.00	  633.21	-2275.71	  484.27
     22.2700	  636.00	  632.95	-2288.45	  483.74
     22.3700	  613.00	  632.70	-2311.20	  483.22
     22.4700	  635.00	  632.70	-2289.20	  482.70
     22.5700	  619.00	  632.51	-2305.01	  482.20
     22.6700	  618.00	  632.35	-2305.85	  481.70
     22.7700	  633.00	  632.22	-2290.72	  481.20
     22.8700	  632.00	  632.12	-2291.62	  480.72
     22.9700	  674.00	  632.06	-2249.56	  480.24
     23.0700	  670.00	  632.03	-2253.53	  479.77
     23.1700	  658.00	  632.05	-2265.55	  479.30
     23.2700	  643.00	  632.12	-2280.62	  478.84
     23.3700	  643.00	  632.24	-2280.74	  478.39
     23.4700	  656.00	  632.42	-2267.92	  477.95
     23.5700	  666.00	  632.68	-2258.18	  477.51
     23.6700	  623.00	  633.03	-2301.53	  477.08
     23.7700	  643.00	  633.50	-2282.00	  476.66
     23.8700	  647.00	  634.11	-2278.61	  476.24
     23.9700	  670.00	  634.93	-2256.43	  475.83
     24.0700	  658.00	  636.05	-2269.55	  475.43
     24.1700	  661.00	  637.62	-2268.12	  475.03
     24.2700	  670.00	  639.90	-2261.40	  474.64
     24.3700	  598.00	  643.20	-2336.70	  474.25
     24.4700	  655.00	  647.89	-2284.39	  473.88
     24.5700	  714.00	  654.44	-2231.94	  473.51
     24.6700	  693.00	  662.90	-2261.40	  473.14
     24.7700	  691.00	  672.93	-2273.43	  472.78
     24.8700	  715.00	  683.41	-2259.91	  472.43
     24.9700	  704.00	  692.16	-2279.66	  472.08
     25.0700	  727.00	  695.93	-2260.43	  471.74
     25.1700	  753.00	  692.32	-2230.82	  471.40
     25.2700	  696.00	  683.08	-2278.58	  471.08
     25.3700	  691.00	  672.77	-2273.27	  470.75
     25.4700	  612.00	  664.50	-2344.00	  470.44
     25.5700	  637.00	  658.98	-2313.48	  470.12
     25.6700	  686.00	  656.03	-2261.53	  469.82
     25.7700	  643.00	  655.04	-2303.54	  469.52
     25.8700	  651.00	  655.45	-2295.95	  469.23
     25.9700	  665.00	  656.83	-2283.33	  468.94
     26.0700	  678.00	  658.96	-2272.46	  468.65
     26.1700	  650.00	  661.73	-2303.23	  468.38
     26.2700	  701.00	  665.13	-2255.63	  468.11
     26.3700	  706.00	  669.20	-2254.70	  467.84
     26.4700	  669.00	  674.03	-2296.53	  467.58
     26.5700	  703.00	  679.74	-2268.24	  467.32
     26.6700	  645.00	  686.47	-2332.97	  467.07
     26.7700	  652.00	  694.46	-2333.96	  466.83
     26.8700	  689.00	  703.99	-2306.49	  466.59
     26.9700	  718.00	  715.43	-2288.94	  466.36
     27.0700	  736.00	  729.33	-2284.83	  466.13
     27.1700	  683.00	  746.40	-2354.90	  465.90
     27.2700	  719.00	  767.69	-2340.19	  465.68
     27.3700	  756.00	  794.83	-2330.33	  465.47
     27.4700	  771.00	  830.73	-2351.23	  465.26
     27.5700	  816.00	  881.52	-2357.02	  465.06
     27.6700	  791.00	  960.95	-2461.45	  464.86
     27.7700	  888.00	 1098.24	-2501.74	  464.66
     27.8700	 1083.00	 1348.20	-2556.70	  464.47
     27.9700	 1346.00	 1798.61	-2744.11	  464.29
     28.0700	 1938.00	 2562.42	-2915.92	  464.11
     28.1700	 3297.00	 3735.53	-2730.03	  463.93
     28.2700	 5322.00	 5301.88	-2271.38	  463.76
     28.3700	 7805.00	 6987.68	-1474.18	  463.60
     28.4700	 9166.00	 8173.98	-1299.48	  463.44
     28.5700	 8881.00	 8117.84	-1528.34	  463.28
     28.6700	 6945.00	 6799.50	-2146.00	  463.13
     28.7700	 4980.00	 5238.24	-2549.74	  462.98
     28.8700	 3938.00	 4281.78	-2635.28	  462.83
     28.9700	 4109.00	 4104.13	-2286.63	  462.70
     29.0700	 4702.00	 4420.93	-2010.43	  462.56
     29.1700	 5173.00	 4737.54	-1856.04	  462.43
     29.2700	 4840.00	 4570.84	-2022.34	  462.30
     29.3700	 3864.00	 3808.12	-2235.62	  462.18
     29.4700	 2595.00	 2833.17	-2529.67	  462.06
     29.5700	 1847.00	 2014.03	-2458.53	  461.95
     29.6700	 1326.00	 1466.39	-2431.89	  461.84
     29.7700	 1115.00	 1152.07	-2328.57	  461.73
     29.8700	  984.00	  985.41	-2292.91	  461.63
     29.9700	  938.00	  894.96	-2248.46	  461.53
     30.0700	  831.00	  840.10	-2300.60	  461.44
     30.1700	  830.00	  802.59	-2264.09	  461.35
     30.2700	  779.00	  775.11	-2287.61	  461.26
     30.3700	  745.00	  754.64	-2301.15	  461.18
     30.4700	  771.00	  739.97	-2260.47	  461.10
     30.5700	  723.00	  731.01	-2299.51	  461.03
     30.6700	  773.00	  728.66	-2247.16	  460.96
     30.7700	  742.00	  734.50	-2284.00	  460.89
     30.8700	  726.00	  749.73	-2315.23	  460.82
     30.9700	  775.00	  773.42	-2289.92	  460.76
     31.0700	  805.00	  800.61	-2287.11	  460.71
     31.1700	  852.00	  821.29	-2260.79	  460.65
     31.2700	  825.00	  822.22	-2288.72	  460.60
     31.3700	  769.00	  797.14	-2319.64	  460.56
     31.4700	  771.00	  757.32	-2277.82	  460.51
     31.5700	  757.00	  718.87	-2253.37	  460.47
     31.6700	  723.00	  689.54	-2258.04	  460.44
     31.7700	  709.00	  670.11	-2252.61	  460.40
     31.8700	  709.00	  658.26	-2240.76	  460.37
     31.9700	  651.00	  651.11	-2291.61	  460.35
     32.0700	  691.00	  646.56	-2247.06	  460.32
     32.1700	  645.00	  643.39	-2289.89	  460.30
     32.2700	  647.00	  641.04	-2285.54	  460.29
     32.3700	  651.00	  639.26	-2279.76	  460.27
     32.4700	  649.00	  637.94	-2280.44	  460.26
     32.5700	  681.00	  637.02	-2247.52	  460.25
     32.6700	  667.00	  636.49	-2260.99	  460.25
     32.7700	  629.00	  636.34	-2298.84	  460.25
     32.8700	  636.00	  636.64	-2292.14	  460.25
     32.9700	  628.00	  637.37	-2300.87	  460.25
     33.0700	  663.00	  638.65	-2267.15	  460.26
     33.1700	  658.00	  640.62	-2274.12	  460.27
     33.2700	  676.00	  643.51	-2259.01	  460.28
     33.3700	  628.00	  647.78	-2311.28	  460.29
     33.4700	  612.00	  654.29	-2333.79	  460.31
     33.5700	  740.00	  664.79	-2216.29	  460.33
     33.6700	  717.00	  682.43	-2256.93	  460.35
     33.7700	  768.00	  712.33	-2235.83	  460.38
     33.8700	  744.00	  761.27	-2308.77	  460.40
     33.9700	  814.00	  835.55	-2313.05	  460.43
     34.0700	 1026.00	  936.08	-2201.58	  460.47
     34.1700	 1108.00	 1052.12	-2235.62	  460.50
     34.2700	 1221.00	 1157.11	-2227.61	  460.54
     34.3700	 1320.00	 1210.65	-2182.15	  460.58
     34.4700	 1282.00	 1179.27	-2188.77	  460.62
     34.5700	 1219.00	 1075.50	-2148.00	  460.67
     34.6700	 1016.00	  949.53	-2225.03	  460.71
     34.7700	  816.00	  839.68	-2315.18	  460.76
     34.8700	  799.00	  759.45	-2251.95	  460.82
     34.9700	  730.00	  707.52	-2269.02	  460.87
     35.0700	  703.00	  676.51	-2265.01	  460.93
     35.1700	  652.00	  658.51	-2298.01	  460.98
     35.2700	  670.00	  647.68	-2269.18	  461.04
     35.3700	  657.00	  640.62	-2275.12	  461.11
     35.4700	  659.00	  635.61	-2268.11	  461.17
     35.5700	  656.00	  631.84	-2267.34	  461.24
     35.6700	  696.00	  628.89	-2224.39	  461.31
     35.7700	  653.00	  626.55	-2265.05	  461.38
     35.8700	  603.00	  624.68	-2313.18	  461.45
     35.9700	  643.00	  623.22	-2271.72	  461.52
     36.0700	  608.00	  622.00	-2305.50	  461.60
     36.1700	  642.00	  621.02	-2270.52	  461.68
     36.2700	  662.00	  620.25	-2249.75	  461.76
     36.3700	  659.00	  619.66	-2252.16	  461.84
     36.4700	  641.00	  619.24	-2269.74	  461.92
     36.5700	  612.00	  618.97	-2298.47	  462.01
     36.6700	  623.00	  618.85	-2287.35	  462.09
     36.7700	  611.00	  618.89	-2299.39	  462.18
     36.8700	  628.00	  619.09	-2282.59	  462.27
     36.9700	  561.00	  619.50	-2350.00	  462.36
     37.0700	  644.00	  620.34	-2267.84	  462.46
     37.1700	  641.00	  621.29	-2271.79	  462.55
     37.2700	  628.00	  622.69	-2286.19	  462.65
     37.3700	  655.00	  625.25	-2261.75	  462.75
     37.4700	  653.00	  628.36	-2266.86	  462.85
     37.5700	  650.00	  633.17	-2274.67	  462.95
     37.6700	  646.00	  640.74	-2286.24	  463.05
     37.7700	  688.00	  652.51	-2256.01	  463.15
     37.8700	  649.00	  670.25	-2312.75	  463.26
     37.9700	  661.00	  695.20	-2325.70	  463.37
     38.0700	  689.00	  725.09	-2327.59	  463.47
     38.1700	  746.00	  760.68	-2306.18	  463.58
     38.2700	  800.00	  793.00	-2284.50	  463.69
     38.3700	  780.00	  811.53	-2323.03	  463.81
     38.4700	  777.00	  806.43	-2320.93	  463.92
     38.5700	  739.00	  778.34	-2330.84	  464.03
     38.6700	  714.00	  739.67	-2317.17	  464.15
     38.7700	  729.00	  702.64	-2265.14	  464.26
     38.8700	  692.00	  673.16	-2272.66	  464.38
     38.9700	  672.00	  652.35	-2271.85	  464.50
     39.0700	  626.00	  638.91	-2304.41	  464.62
     39.1700	  631.00	  630.71	-2291.21	  464.74
     39.2700	  621.00	  625.75	-2296.25	  464.86
     39.3700	  606.00	  622.66	-2308.16	  464.99
     39.4700	  648.00	  619.38	-2262.88	  465.11
     39.5700	  617.00	  617.93	-2292.43	  465.23
     39.6700	  609.00	  616.85	-2299.35	  465.36
     39.7700	  571.00	  616.02	-2336.52	  465.49
     39.8700	  567.00	  615.38	-2339.88	  465.61
     39.9700	  600.00	  614.89	-2306.39	  465.74
     40.0700	  623.00	  614.51	-2283.01	  465.87
     40.1700	  607.00	  614.23	-2298.73	  466.00
     40.2700	  557.00	  614.03	-2348.53	  466.13
     40.3700	  614.00	  613.89	-2291.39	  466.26
     40.4700	  623.00	  613.81	-2282.31	  466.40
     40.5700	  615.00	  613.79	-2290.29	  466.53
     40.6700	  618.00	  613.80	-2287.30	  466.66
     40.7700	  597.00	  613.86	-2308.36	  466.80
     40.8700	  593.00	  614.49	-2312.99	  466.93
     40.9700	  661.00	  614.63	-2245.13	  467.07
     41.0700	  623.00	  614.82	-2283.32	  467.20
     41.1700	  645.00	  615.05	-2261.55	  467.34
     41.2700	  603.00	  615.32	-2303.82	  467.48
     41.3700	  637.00	  615.71	-2270.21	  467.62
     41.4700	  598.00	  616.09	-2309.59	  467.76
     41.5700	  648.00	  616.55	-2260.05	  467.89
     41.6700	  624.00	  617.09	-2284.59	  468.03
     41.7700	  580.00	  617.74	-2329.24	  468.17
     41.8700	  640.00	  618.54	-2270.04	  468.31
     41.9700	  658.00	  619.54	-2253.04	  468.45
     42.0700	  616.00	  620.86	-2296.36	  468.60
     42.1700	  611.00	  622.73	-2303.23	  468.74
     42.2700	  634.00	  625.52	-2283.02	  468.88
     42.3700	  655.00	  629.86	-2266.36	  469.02
     42.4700	  626.00	  636.58	-2302.08	  469.16
     42.5700	  674.00	  646.76	-2264.26	  469.31
     42.6700	  644.00	  661.14	-2308.64	  469.45
     42.7700	  593.00	  679.68	-2378.18	  469.59
     42.8700	  669.00	  700.77	-2323.27	  469.74
     42.9700	  690.00	  720.52	-2322.02	  469.88
     43.0700	  713.00	  732.89	-2311.39	  470.02
     43.1700	  684.00	  732.41	-2339.91	  470.17
     43.2700	  673.00	  719.04	-2337.54	  470.31
     43.3700	  648.00	  698.67	-2342.17	  470.46
     43.4700	  658.00	  677.77	-2311.27	  470.60
     43.5700	  629.00	  660.01	-2322.51	  470.75
     43.6700	  612.00	  646.70	-2326.20	  470.89
     43.7700	  629.00	  637.56	-2300.06	  471.04
     43.8700	  665.00	  631.68	-2258.18	  471.18
     43.9700	  606.00	  628.08	-2313.58	  471.33
     44.0700	  630.00	  625.90	-2287.40	  471.47
     44.1700	  672.00	  624.74	-2244.24	  471.62
     44.2700	  644.00	  623.87	-2271.37	  471.76
     44.3700	  604.00	  623.29	-2310.79	  471.91
     44.4700	  623.00	  622.90	-2291.40	  472.05
     44.5700	  650.00	  622.64	-2264.14	  472.19
     44.6700	  647.00	  622.48	-2266.98	  472.34
     44.7700	  615.00	  622.40	-2298.90	  472.48
     44.8700	  612.00	  622.39	-2301.89	  472.63
     44.9700	  640.00	  622.45	-2273.95	  472.77
     45.0700	  652.00	  622.54	-2262.04	  472.92
     45.1700	  604.00	  622.93	-2310.43	  473.06
     45.2700	  641.00	  623.10	-2273.60	  473.20
     45.3700	  620.00	  623.31	-2294.81	  473.35
     45.4700	  655.00	  623.54	-2260.04	  473.49
     45.5700	  667.00	  623.81	-2248.31	  473.63
     45.6700	  607.00	  624.10	-2308.60	  473.78
     45.7700	  591.00	  624.42	-2324.92	  473.92
     45.8700	  613.00	  624.87	-2303.37	  474.06
     45.9700	  628.00	  625.25	-2288.75	  474.20
     46.0700	  595.00	  625.67	-2322.17	  474.34
     46.1700	  644.00	  626.12	-2273.62	  474.48
     46.2700	  631.00	  626.61	-2287.11	  474.62
     46.3700	  649.00	  627.15	-2269.65	  474.76
     46.4700	  675.00	  627.73	-2244.23	  474.90
     46.5700	  615.00	  628.16	-2304.66	  475.04
     46.6700	  672.00	  628.88	-2248.38	  475.18
     46.7700	  644.00	  629.81	-2277.31	  475.32
     46.8700	  643.00	  630.68	-2279.18	  475.46
     46.9700	  629.00	  631.65	-2294.15	  475.60
     47.0700	  619.00	  632.77	-2305.27	  475.74
     47.1700	  684.00	  634.09	-2241.59	  475.87
     47.2700	  673.00	  635.70	-2254.20	  476.01
     47.3700	  618.00	  637.79	-2311.29	  476.14
     47.4700	  658.00	  640.65	-2274.15	  476.28
     47.5700	  626.00	  644.73	-2310.23	  476.41
     47.6700	  594.00	  650.60	-2348.10	  476.55
     47.7700	  656.00	  658.91	-2294.41	  476.68
     47.8700	  592.00	  670.16	-2369.66	  476.82
     47.9700	  659.00	  684.41	-2316.91	  476.95
     48.0700	  712.00	  700.85	-2280.35	  477.08
     48.1700	  687.00	  717.42	-2321.92	  477.21
     48.2700	  731.00	  730.54	-2291.04	  477.34
     48.3700	  748.00	  736.16	-2279.66	  477.47
     48.4700	  668.00	  732.46	-2355.96	  477.60
     48.5700	  690.00	  721.78	-2323.28	  477.73
     48.6700	  652.00	  708.91	-2348.41	  477.86
     48.7700	  654.00	  696.53	-2334.03	  477.98
     48.8700	  673.00	  686.96	-2305.46	  478.11
     48.9700	  661.00	  680.86	-2311.36	  478.24
     49.0700	  635.00	  678.19	-2334.69	  478.36
     49.1700	  663.00	  678.55	-2307.05	  478.48
     49.2700	  656.00	  681.52	-2317.02	  478.61
     49.3700	  649.00	  686.88	-2329.38	  478.73
     49.4700	  677.00	  694.82	-2309.32	  478.85
     49.5700	  689.00	  706.31	-2308.81	  478.97
     49.6700	  688.00	  724.00	-2327.50	  479.09
     49.7700	  738.00	  753.98	-2307.48	  479.21
     49.8700	  835.00	  808.57	-2265.07	  479.33
     49.9700	  941.00	  909.18	-2259.68	  479.45
     50.0700	 1114.00	 1086.06	-2263.56	  479.57
     50.1700	 1437.00	 1370.89	-2225.39	  479.68
     50.2700	 1876.00	 1779.48	-2194.98	  479.80
     50.3700	 2463.00	 2288.32	-2116.82	  479.91
     50.4700	 3004.00	 2815.64	-2103.14	  480.03
     50.5700	 3295.00	 3220.18	-2216.68	  480.14
     50.6700	 3171.00	 3346.72	-2467.22	  480.25
     50.7700	 3043.00	 3133.32	-2381.82	  480.36
     50.8700	 2574.00	 2676.48	-2393.98	  480.47
     50.9700	 2018.00	 2142.26	-2415.76	  480.58
     51.0700	 1592.00	 1660.17	-2359.67	  480.69
     51.1700	 1193.00	 1293.49	-2391.99	  480.79
     51.2700	 1030.00	 1051.69	-2313.19	  480.90
     51.3700	  909.00	  911.06	-2293.56	  481.00
     51.4700	  867.00	  837.32	-2261.82	  481.11
     51.5700	  854.00	  800.40	-2237.90	  481.21
     51.6700	  767.00	  780.01	-2304.51	  481.31
     51.7700	  761.00	  765.07	-2295.57	  481.41
     51.8700	  757.00	  751.64	-2286.14	  481.51
     51.9700	  773.00	  739.61	-2258.11	  481.61
     52.0700	  781.00	  729.73	-2240.23	  481.71
     52.1700	  700.00	  722.32	-2313.82	  481.81
     52.2700	  757.00	  716.94	-2251.44	  481.90
     52.3700	  767.00	  712.67	-2237.17	  482.00
     52.4700	  682.00	  708.64	-2318.14	  482.09
     52.5700	  693.00	  704.77	-2303.27	  482.18
     52.6700	  741.00	  701.70	-2252.20	  482.28
     52.7700	  693.00	  700.30	-2298.80	  482.37
     52.8700	  720.00	  701.43	-2272.93	  482.45
     52.9700	  701.00	  706.10	-2296.60	  482.54
     53.0700	  743.00	  715.69	-2264.19	  482.63
     53.1700	  739.00	  732.25	-2284.75	  482.72
     53.2700	  819.00	  758.53	-2231.03	  482.80
     53.3700	  821.00	  797.74	-2268.24	  482.88
     53.4700	  818.00	  852.82	-2326.32	  482.97
     53.5700	  892.00	  925.19	-2324.69	  483.05
     53.6700	  985.00	 1013.25	-2319.75	  483.13
     53.7700	 1181.00	 1110.68	-2221.18	  483.21
     53.8700	 1180.00	 1203.96	-2315.46	  483.28
     53.9700	 1330.00	 1272.78	-2234.28	  483.36
     54.0700	 1345.00	 1295.57	-2242.07	  483.43
     54.1700	 1300.00	 1263.58	-2255.08	  483.51
     54.2700	 1170.00	 1188.67	-2310.17	  483.58
     54.3700	 1089.00	 1093.53	-2296.03	  483.65
     54.4700	 1006.00	  997.74	-2283.25	  483.72
     54.5700	  964.00	  913.14	-2240.64	  483.79
     54.6700	  812.00	  844.97	-2324.47	  483.86
     54.7700	  729.00	  794.01	-2356.51	  483.93
     54.8700	  775.00	  758.33	-2274.83	  483.99
     54.9700	  734.00	  734.72	-2292.22	  484.06
     55.0700	  716.00	  719.84	-2295.34	  484.12
     55.1700	  736.00	  710.90	-2266.40	  484.18
     55.2700	  745.00	  705.84	-2252.34	  484.24
     55.3700	  747.00	  703.36	-2247.86	  484.30
     55.4700	  672.00	  702.71	-2322.21	  484.36
     55.5700	  703.00	  703.49	-2291.99	  484.41
     55.6700	  678.00	  705.55	-2319.05	  484.47
     55.7700	  726.00	  708.90	-2274.40	  484.52
     55.8700	  674.00	  713.67	-2331.17	  484.58
     55.9700	  726.00	  720.13	-2285.63	  484.63
     56.0700	  744.00	  728.87	-2276.37	  484.68
     56.1700	  749.00	  741.01	-2283.51	  484.73
     56.2700	  728.00	  758.67	-2322.17	  484.77
     56.3700	  782.00	  785.70	-2295.20	  484.82
     56.4700	  842.00	  828.48	-2277.98	  484.86
     56.5700	  835.00	  896.57	-2353.07	  484.91
     56.6700	  979.00	 1002.45	-2314.95	  484.95
     56.7700	 1122.00	 1159.49	-2328.99	  484.99
     56.8700	 1425.00	 1377.97	-2244.47	  485.03
     56.9700	 1749.00	 1659.22	-2201.72	  485.07
     57.0700	 2008.00	 1989.30	-2272.80	  485.11
     57.1700	 2397.00	 2332.81	-2227.31	  485.14
     57.2700	 2620.00	 2629.61	-2301.11	  485.17
     57.3700	 2691.00	 2802.38	-2402.88	  485.21
     57.4700	 2788.00	 2791.76	-2295.26	  485.24
     57.5700	 2507.00	 2601.47	-2385.97	  485.27
     57.6700	 2226.00	 2295.95	-2361.45	  485.30
     57.7700	 1878.00	 1952.67	-2366.17	  485.32
     57.8700	 1547.00	 1629.30	-2373.80	  485.35
     57.9700	 1220.00	 1358.21	-2429.71	  485.37
     58.0700	 1081.00	 1151.23	-2361.73	  485.40
     58.1700	  986.00	 1005.98	-2311.48	  485.42
     58.2700	  918.00	  912.26	-2285.76	  485.44
     58.3700	  863.00	  858.09	-2286.59	  485.46
     58.4700	  824.00	  833.66	-2301.16	  485.48
     58.5700	  815.00	  833.15	-2309.65	  485.49
     58.6700	  881.00	  854.25	-2264.75	  485.51
     58.7700	  896.00	  896.54	-2292.04	  485.52
     58.8700	  971.00	  959.49	-2279.99	  485.53
     58.9700	 1019.00	 1040.08	-2312.58	  485.54
     59.0700	 1130.00	 1131.14	-2292.64	  485.55
     59.1700	 1230.00	 1220.98	-2282.48	  485.56
     59.2700	 1333.00	 1296.36	-2254.86	  485.57
     59.3700	 1288.00	 1348.94	-2352.44	  485.57
     59.4700	 1392.00	 1377.12	-2276.62	  485.57
     59.5700	 1340.00	 1380.55	-2332.05	  485.58
     59.6700	 1327.00	 1358.50	-2323.00	  485.58
     59.7700	 1368.00	 1316.30	-2239.80	  485.58
     59.8700	 1352.00	 1267.75	-2207.25	  485.57
     59.9700	 1323.00	 1228.66	-2197.16	  485.57
     60.0700	 1253.00	 1210.42	-2248.92	  485.56
     60.1700	 1247.00	 1219.47	-2263.97	  485.56
     60.2700	 1310.00	 1259.15	-2240.65	  485.55
     60.3700	 1369.00	 1330.11	-2252.61	  485.54
     60.4700	 1526.00	 1427.32	-2192.82	  485.53
     60.5700	 1586.00	 1536.30	-2241.80	  485.52
     60.6700	 1656.00	 1632.11	-2267.61	  485.50
     60.7700	 1689.00	 1683.01	-2285.51	  485.49
     60.8700	 1650.00	 1664.11	-2305.61	  485.47
     60.9700	 1484.00	 1574.34	-2381.84	  485.45
     61.0700	 1369.00	 1437.14	-2359.64	  485.44
     61.1700	 1246.00	 1283.30	-2328.80	  485.41
     61.2700	 1092.00	 1137.65	-2337.15	  485.39
     61.3700	  974.00	 1015.55	-2333.05	  485.37
     61.4700	  930.00	  923.88	-2285.38	  485.34
     61.5700	  892.00	  863.34	-2262.84	  485.32
     61.6700	  840.00	  831.49	-2282.99	  485.29
     61.7700	  882.00	  825.81	-2235.31	  485.26
     61.8700	  880.00	  845.77	-2257.27	  485.23
     61.9700	  874.00	  893.56	-2311.06	  485.20
     62.0700	 1020.00	  973.19	-2244.69	  485.16
     62.1700	 1202.00	 1088.16	-2177.66	  485.13
     62.2700	 1354.00	 1238.51	-2176.01	  485.09
     62.3700	 1463.00	 1417.35	-2245.85	  485.05
     62.4700	 1640.00	 1608.47	-2259.97	  485.01
     62.5700	 1795.00	 1784.71	-2281.21	  484.97
     62.6700	 1892.00	 1909.67	-2309.17	  484.93
     62.7700	 1879.00	 1948.65	-2361.15	  484.89
     62.8700	 1816.00	 1888.63	-2364.13	  484.84
     62.9700	 1715.00	 1748.29	-2324.79	  484.80
     63.0700	 1569.00	 1564.35	-2286.85	  484.75
     63.1700	 1283.00	 1371.87	-2380.37	  484.70
     63.2700	 1166.00	 1195.57	-2321.07	  484.65
     63.3700	 1062.00	 1049.34	-2278.84	  484.60
     63.4700	  958.00	  937.82	-2271.32	  484.54
     63.5700	  890.00	  858.98	-2260.48	  484.49
     63.6700	  884.00	  807.16	-2214.66	  484.43
     63.7700	  736.00	  775.48	-2330.98	  484.38
     63.8700	  767.00	  757.99	-2282.49	  484.32
     63.9700	  818.00	  750.45	-2223.95	  484.26
     64.0700	  747.00	  750.57	-2295.07	  484.19
     64.1700	  760.00	  757.52	-2289.02	  484.13
     64.2700	  807.00	  773.50	-2258.00	  484.07
     64.3700	  785.00	  800.63	-2307.13	  484.00
     64.4700	  835.00	  842.53	-2299.03	  483.93
     64.5700	  929.00	  903.23	-2265.73	  483.86
     64.6700	 1032.00	  986.23	-2245.73	  483.79
     64.7700	 1166.00	 1093.13	-2218.63	  483.72
     64.8700	 1287.00	 1222.05	-2226.55	  483.65
     64.9700	 1367.00	 1365.88	-2290.38	  483.58
     65.0700	 1497.00	 1511.15	-2305.65	  483.50
     65.1700	 1688.00	 1638.42	-2241.92	  483.42
     65.2700	 1698.00	 1725.86	-2319.36	  483.34
     65.3700	 1624.00	 1755.39	-2422.89	  483.26
     65.4700	 1678.00	 1719.94	-2333.44	  483.18
     65.5700	 1554.00	 1627.60	-2365.10	  483.10
     65.6700	 1539.00	 1499.44	-2251.94	  483.02
     65.7700	 1218.00	 1358.20	-2431.70	  482.93
     65.8700	 1198.00	 1222.18	-2315.68	  482.84
     65.9700	 1059.00	 1102.19	-2334.69	  482.76
     66.0700	  924.00	 1002.97	-2370.47	  482.67
     66.1700	  932.00	  924.79	-2284.29	  482.58
     66.2700	  832.00	  865.50	-2325.00	  482.49
     66.3700	  793.00	  821.96	-2320.46	  482.39
     66.4700	  816.00	  790.68	-2266.18	  482.30
     66.5700	  712.00	  768.62	-2348.12	  482.20
     66.6700	  741.00	  753.28	-2303.78	  482.10
     66.7700	  655.00	  742.88	-2379.38	  482.01
     66.8700	  710.00	  736.29	-2317.79	  481.91
     66.9700	  664.00	  732.79	-2360.29	  481.80
     67.0700	  696.00	  732.09	-2327.59	  481.70
     67.1700	  671.00	  734.17	-2354.67	  481.60
     67.2700	  707.00	  739.53	-2324.03	  481.49
     67.3700	  742.00	  748.99	-2298.49	  481.39
     67.4700	  729.00	  764.45	-2326.95	  481.28
     67.5700	  742.00	  789.03	-2338.53	  481.17
     67.6700	  837.00	  826.94	-2281.44	  481.06
     67.7700	  871.00	  884.23	-2304.73	  480.95
     67.8700	 1004.00	  967.96	-2255.46	  480.84
     67.9700	 1037.00	 1085.32	-2339.82	  480.72
     68.0700	 1283.00	 1241.83	-2250.33	  480.61
     68.1700	 1458.00	 1439.33	-2272.83	  480.49
     68.2700	 1725.00	 1673.56	-2240.06	  480.37
     68.3700	 1973.00	 1931.91	-2250.41	  480.25
     68.4700	 2178.00	 2191.88	-2305.38	  480.13
     68.5700	 2464.00	 2420.36	-2247.86	  480.01
     68.6700	 2605.00	 2576.85	-2263.35	  479.89
     68.7700	 2610.00	 2625.24	-2306.74	  479.76
     68.8700	 2515.00	 2552.62	-2329.12	  479.64
     68.9700	 2369.00	 2377.75	-2300.25	  479.51
     69.0700	 2114.00	 2139.17	-2316.67	  479.39
     69.1700	 1964.00	 1876.57	-2204.07	  479.26
     69.2700	 1636.00	 1620.95	-2276.45	  479.13
     69.3700	 1333.00	 1392.73	-2351.23	  479.00
     69.4700	 1169.00	 1202.68	-2325.18	  478.86
     69.5700	 1102.00	 1053.65	-2243.15	  478.73
     69.6700	 1008.00	  942.86	-2226.36	  478.59
     69.7700	  908.00	  864.20	-2247.70	  478.46
     69.8700	  924.00	  810.37	-2177.87	  478.32
     69.9700	  806.00	  774.45	-2259.95	  478.18
     70.0700	  749.00	  750.72	-2293.22	  478.04
     70.1700	  836.00	  734.96	-2190.46	  477.90
     70.2700	  784.00	  724.29	-2231.79	  477.76
     70.3700	  757.00	  716.91	-2251.41	  477.62
     70.4700	  720.00	  711.73	-2283.23	  477.48
     70.5700	  762.00	  708.15	-2237.65	  477.33
     70.6700	  775.00	  705.86	-2222.36	  477.18
     70.7700	  731.00	  704.68	-2265.18	  477.04
     70.8700	  676.00	  704.62	-2320.12	  476.89
     70.9700	  713.00	  705.76	-2284.26	  476.74
     71.0700	  710.00	  708.34	-2289.84	  476.59
     71.1700	  685.00	  712.85	-2319.35	  476.44
     71.2700	  721.00	  719.90	-2290.40	  476.28
     71.3700	  732.00	  731.19	-2290.69	  476.13
     71.4700	  761.00	  748.48	-2278.98	  475.97
     71.5700	  782.00	  774.50	-2284.00	  475.82
     71.6700	  846.00	  812.82	-2258.32	  475.66
     71.7700	  854.00	  867.59	-2305.09	  475.50
     71.8700	  896.00	  943.02	-2338.52	  475.34
     71.9700	 1036.00	 1042.70	-2298.20	  475.18
     72.0700	 1203.00	 1168.33	-2256.83	  475.02
     72.1700	 1363.00	 1318.70	-2247.20	  474.86
     72.2700	 1515.00	 1488.52	-2265.02	  474.70
     72.3700	 1649.00	 1667.40	-2309.90	  474.53
     72.4700	 1774.00	 1839.28	-2356.78	  474.37
     72.5700	 1884.00	 1982.53	-2390.03	  474.20
     72.6700	 1976.00	 2073.00	-2388.50	  474.04
     72.7700	 2047.00	 2091.59	-2336.09	  473.87
     72.8700	 1985.00	 2033.92	-2340.42	  473.70
     72.9700	 1928.00	 1912.89	-2276.39	  473.53
     73.0700	 1691.00	 1751.52	-2352.02	  473.36
     73.1700	 1600.00	 1573.29	-2264.79	  473.19
     73.2700	 1386.00	 1397.68	-2303.18	  473.01
     73.3700	 1277.00	 1236.32	-2250.82	  472.84
     73.4700	 1069.00	 1097.50	-2320.00	  472.66
     73.5700	 1003.00	  984.25	-2272.75	  472.49
     73.6700	  903.00	  896.04	-2284.54	  472.31
     73.7700	  857.00	  830.08	-2264.58	  472.13
     73.8700	  793.00	  782.44	-2280.94	  471.96
     73.9700	  768.00	  748.93	-2272.43	  471.78
     74.0700	  719.00	  725.80	-2298.30	  471.60
     74.1700	  757.00	  709.48	-2243.98	  471.42
     74.2700	  694.00	  698.76	-2296.26	  471.23
     74.3700	  713.00	  691.60	-2270.10	  471.05
     74.4700	  743.00	  687.04	-2235.54	  470.87
     74.5700	  691.00	  684.47	-2284.97	  470.68
     74.6700	  649.00	  683.52	-2326.02	  470.50
     74.7700	  711.00	  683.90	-2264.40	  470.31
     74.8700	  697.00	  685.35	-2279.85	  470.12
     74.9700	  695.00	  687.51	-2284.01	  469.94
     75.0700	  700.00	  690.10	-2281.60	  469.75
     75.1700	  746.00	  692.58	-2238.08	  469.56
     75.2700	  701.00	  694.41	-2284.91	  469.37
     75.3700	  748.00	  695.10	-2238.60	  469.18
     75.4700	  761.00	  694.42	-2224.92	  468.99
     75.5700	  768.00	  692.57	-2216.07	  468.79
     75.6700	  693.00	  690.13	-2288.63	  468.60
     75.7700	  701.00	  687.81	-2278.31	  468.41
     75.8700	  734.00	  686.65	-2244.15	  468.21
     75.9700	  704.00	  687.49	-2274.99	  468.02
     76.0700	  714.00	  691.35	-2268.85	  467.82
     76.1700	  707.00	  699.32	-2283.82	  467.62
     76.2700	  729.00	  712.55	-2275.05	  467.43
     76.3700	  753.00	  732.17	-2270.67	  467.23
     76.4700	  792.00	  759.12	-2258.62	  467.03
     76.5700	  828.00	  793.91	-2257.41	  466.83
     76.6700	  845.00	  836.46	-2282.96	  466.63
     76.7700	  934.00	  885.77	-2243.27	  466.43
     76.8700	  931.00	  939.71	-2300.21	  466.23
     76.9700	  918.00	  994.89	-2368.39	  466.03
     77.0700	 1040.00	 1046.51	-2298.01	  465.82
     77.1700	 1084.00	 1088.53	-2296.03	  465.62
     77.2700	 1077.00	 1114.56	-2329.06	  465.42
     77.3700	 1098.00	 1119.75	-2313.25	  465.21
     77.4700	 1131.00	 1102.95	-2263.45	  465.01
     77.5700	 1022.00	 1067.32	-2336.82	  464.80
     77.6700	  986.00	 1018.58	-2324.08	  464.60
     77.7700	  949.00	  963.43	-2305.93	  464.39
     77.8700	  943.00	  907.16	-2255.66	  464.18
     77.9700	  819.00	  853.80	-2326.30	  463.98
     78.0700	  749.00	  806.06	-2348.56	  463.77
     78.1700	  732.00	  765.37	-2324.87	  463.56
     78.2700	  734.00	  732.18	-2289.68	  463.35
     78.3700	  695.00	  706.15	-2302.65	  463.14
     78.4700	  687.00	  686.45	-2290.95	  462.93
     78.5700	  627.00	  671.99	-2336.49	  462.72
     78.6700	  704.00	  661.63	-2249.13	  462.51
     78.7700	  701.00	  654.33	-2244.83	  462.29
     78.8700	  654.00	  649.24	-2286.74	  462.08
     78.9700	  582.00	  645.70	-2355.20	  461.87
     79.0700	  650.00	  643.25	-2284.75	  461.66
     79.1700	  676.00	  641.50	-2257.00	  461.44
     79.2700	  610.00	  640.38	-2321.88	  461.23
     79.3700	  641.00	  639.70	-2290.20	  461.02
     79.4700	  634.00	  639.42	-2296.92	  460.80
     79.5700	  633.00	  639.51	-2298.01	  460.59
     79.6700	  608.00	  640.00	-2323.50	  460.37
     79.7700	  617.00	  640.93	-2315.43	  460.15
     79.8700	  635.00	  642.41	-2298.91	  459.94
     79.9700	  663.00	  644.56	-2273.06	  459.72
     80.0700	  675.00	  647.61	-2264.11	  459.50
     80.1700	  682.00	  651.93	-2261.43	  459.29
     80.2700	  661.00	  658.04	-2288.54	  459.07
     80.3700	  660.00	  666.75	-2298.25	  458.85
     80.4700	  732.00	  678.95	-2238.45	  458.63
     80.5700	  713.00	  696.65	-2275.15	  458.42
     80.6700	  752.00	  721.46	-2260.96	  458.20
     80.7700	  807.00	  755.50	-2240.00	  457.98
     80.8700	  809.00	  800.90	-2283.40	  457.76
     80.9700	  972.00	  859.50	-2179.00	  457.54
     81.0700	  964.00	  932.37	-2259.87	  457.32
     81.1700	 1069.00	 1019.35	-2241.85	  457.10
     81.2700	 1168.00	 1118.51	-2242.01	  456.88
     81.3700	 1260.00	 1225.78	-2257.28	  456.66
     81.4700	 1389.00	 1334.78	-2237.28	  456.44
     81.5700	 1495.00	 1437.09	-2233.59	  456.22
     81.6700	 1593.00	 1523.19	-2221.69	  456.00
     81.7700	 1567.00	 1584.39	-2308.89	  455.78
     81.8700	 1554.00	 1614.93	-2352.43	  455.56
     81.9700	 1549.00	 1613.13	-2355.63	  455.33
     82.0700	 1558.00	 1580.91	-2314.41	  455.11
     82.1700	 1432.00	 1522.94	-2382.44	  454.89
     82.2700	 1398.00	 1446.00	-2339.50	  454.67
     82.3700	 1327.00	 1357.88	-2322.38	  454.45
     82.4700	 1279.00	 1265.87	-2278.37	  454.23
     82.5700	 1176.00	 1175.78	-2291.28	  454.00
     82.6700	 1075.00	 1091.78	-2308.28	  453.78
     82.7700	 1037.00	 1016.48	-2270.98	  453.56
     82.8700	  926.00	  951.13	-2316.63	  453.34
     82.9700	  892.00	  895.72	-2295.22	  453.12
     83.0700	  816.00	  849.31	-2324.81	  452.89
     83.1700	  785.00	  810.48	-2316.98	  452.67
     83.2700	  748.00	  777.90	-2321.40	  452.45
     83.3700	  778.00	  750.56	-2264.06	  452.23
     83.4700	  725.00	  727.83	-2294.33	  452.00
     83.5700	  716.00	  709.32	-2284.82	  451.78
     83.6700	  704.00	  694.82	-2282.32	  451.56
     83.7700	  677.00	  684.18	-2298.68	  451.34
     83.8700	  638.00	  677.29	-2330.79	  451.12
     83.9700	  621.00	  673.95	-2344.45	  450.89
     84.0700	  671.00	  673.89	-2294.39	  450.67
     84.1700	  683.00	  676.71	-2285.21	  450.45
     84.2700	  680.00	  681.67	-2293.17	  450.23
     84.3700	  703.00	  688.35	-2276.85	  450.01
     84.4700	  673.00	  695.70	-2314.20	  449.79
     84.5700	  718.00	  702.69	-2276.19	  449.57
     84.6700	  668.00	  708.23	-2331.73	  449.34
     84.7700	  718.00	  711.21	-2284.71	  449.12
     84.8700	  695.00	  711.05	-2307.55	  448.90
     84.9700	  667.00	  707.48	-2331.98	  448.68
     85.0700	  671.00	  700.87	-2321.37	  448.46
     85.1700	  691.00	  692.01	-2292.51	  448.24
     85.2700	  688.00	  681.84	-2285.34	  448.02
     85.3700	  682.00	  671.28	-2280.78	  447.80
     85.4700	  634.00	  661.08	-2318.58	  447.58
     85.5700	  671.00	  651.86	-2272.36	  447.36
     85.6700	  624.00	  644.03	-2311.53	  447.14
     85.7700	  641.00	  637.89	-2288.39	  446.92
     85.8700	  598.00	  633.58	-2327.08	  446.71
     85.9700	  621.00	  631.18	-2301.68	  446.49
     86.0700	  630.00	  630.70	-2292.20	  446.27
     86.1700	  656.00	  632.11	-2267.61	  446.05
     86.2700	  606.00	  635.37	-2320.87	  445.84
     86.3700	  625.00	  640.42	-2306.92	  445.62
     86.4700	  632.00	  647.15	-2306.65	  445.40
     86.5700	  635.00	  655.39	-2311.89	  445.19
     86.6700	  707.00	  664.93	-2249.43	  444.97
     86.7700	  683.00	  675.44	-2283.94	  444.75
     86.8700	  651.00	  686.49	-2326.99	  444.54
     86.9700	  658.00	  697.58	-2331.08	  444.33
     87.0700	  686.00	  708.13	-2313.63	  444.11
     87.1700	  749.00	  717.60	-2260.10	  443.90
     87.2700	  657.00	  725.63	-2360.13	  443.68
     87.3700	  722.00	  732.16	-2301.66	  443.47
     87.4700	  716.00	  737.57	-2313.07	  443.26
     87.5700	  687.00	  742.36	-2346.86	  443.05
     87.6700	  738.00	  747.10	-2300.60	  442.84
     87.7700	  735.00	  752.15	-2308.65	  442.62
     87.8700	  766.00	  757.62	-2283.12	  442.41
     87.9700	  747.00	  763.29	-2307.79	  442.20
     88.0700	  798.00	  768.64	-2262.14	  441.99
     88.1700	  779.00	  772.86	-2285.36	  441.79
     88.2700	  791.00	  774.99	-2275.49	  441.58
     88.3700	  755.00	  774.15	-2310.65	  441.37
     88.4700	  783.00	  769.82	-2278.32	  441.16
     88.5700	  779.00	  762.03	-2274.53	  440.96
     88.6700	  723.00	  751.34	-2319.84	  440.75
     88.7700	  762.00	  738.62	-2268.12	  440.54
     88.8700	  753.00	  724.84	-2263.34	  440.34
     88.9700	  703.00	  710.48	-2298.98	  440.13
     89.0700	  703.00	  697.22	-2285.72	  439.93
     89.1700	  701.00	  685.26	-2275.76	  439.73
     89.2700	  656.00	  675.11	-2310.61	  439.53
     89.3700	  653.00	  667.06	-2305.56	  439.32
     89.4700	  609.00	  661.26	-2343.76	  439.12
     89.5700	  684.00	  657.65	-2265.15	  438.92
     89.6700	  639.00	  656.03	-2308.53	  438.72
     89.7700	  684.00	  656.05	-2263.55	  438.52
     89.8700	  724.00	  657.29	-2224.79	  438.33
     89.9700	  674.00	  659.19	-2276.69	  438.13
     90.0700	  737.00	  661.19	-2215.69	  437.93
     90.1700	  770.00	  662.70	-2184.20	  437.74
     90.2700	  707.00	  663.19	-2247.69	  437.54
     90.3700	  673.00	  662.30	-2280.80	  437.35
     90.4700	  687.00	  659.92	-2264.42	  437.15
     90.5700	  670.00	  656.16	-2277.66	  436.96
     90.6700	  714.00	  651.34	-2228.84	  436.77
     90.7700	  705.00	  645.84	-2232.34	  436.58
     90.8700	  663.00	  640.05	-2268.55	  436.39
     90.9700	  638.00	  634.29	-2287.79	  436.20
     91.0700	  660.00	  628.84	-2260.34	  436.01
     91.1700	  560.00	  623.90	-2355.40	  435.82
     91.2700	  672.00	  619.59	-2239.09	  435.64
     91.3700	  629.00	  615.99	-2278.49	  435.45
     91.4700	  629.00	  613.11	-2275.61	  435.27
     91.5700	  591.00	  610.92	-2311.42	  435.08
     91.6700	  599.00	  609.38	-2301.88	  434.90
     91.7700	  590.00	  608.42	-2309.92	  434.72
     91.8700	  648.00	  607.99	-2251.49	  434.54
     91.9700	  642.00	  608.07	-2257.57	  434.36
     92.0700	  616.00	  608.64	-2284.14	  434.18
     92.1700	  638.00	  609.73	-2263.23	  434.00
     92.2700	  596.00	  611.41	-2306.91	  433.82
     92.3700	  614.00	  613.78	-2291.28	  433.65
     92.4700	  664.00	  617.00	-2244.50	  433.47
     92.5700	  621.00	  621.25	-2291.75	  433.30
     92.6700	  626.00	  626.76	-2292.26	  433.12
     92.7700	  623.00	  633.74	-2302.24	  432.95
     92.8700	  673.00	  642.43	-2260.93	  432.78
     92.9700	  604.00	  653.03	-2340.53	  432.61
     93.0700	  645.00	  665.68	-2312.18	  432.44
     93.1700	  636.00	  680.45	-2335.95	  432.27
     93.2700	  667.00	  697.30	-2321.80	  432.11
     93.3700	  713.00	  716.07	-2294.57	  431.94
     93.4700	  697.00	  736.44	-2330.94	  431.78
     93.5700	  711.00	  757.97	-2338.47	  431.62
     93.6700	  779.00	  780.03	-2292.53	  431.45
     93.7700	  794.00	  801.88	-2299.38	  431.29
     93.8700	  757.00	  822.70	-2357.20	  431.13
     93.9700	  819.00	  841.72	-2314.22	  430.97
     94.0700	  851.00	  858.43	-2298.93	  430.82
     94.1700	  783.00	  872.78	-2381.28	  430.66
     94.2700	  856.00	  885.15	-2320.65	  430.51
     94.3700	  886.00	  896.34	-2301.84	  430.35
     94.4700	  911.00	  907.24	-2287.74	  430.20
     94.5700	  912.00	  918.35	-2297.85	  430.05
     94.6700	  926.00	  930.89	-2296.39	  429.90
     94.7700	  888.00	  944.89	-2348.39	  429.75
     94.8700	  937.00	  960.51	-2315.01	  429.60
     94.9700	  965.00	  977.74	-2304.24	  429.46
     95.0700	  974.00	  996.52	-2314.02	  429.31
     95.1700	 1008.00	 1016.61	-2300.11	  429.17
     95.2700	 1015.00	 1037.50	-2314.00	  429.03
     95.3700	 1054.00	 1058.25	-2295.75	  428.89
     95.4700	 1087.00	 1077.45	-2281.95	  428.75
     95.5700	 1104.00	 1093.32	-2280.82	  428.61
     95.6700	 1162.00	 1103.82	-2233.32	  428.47
     95.7700	 1118.00	 1107.03	-2280.53	  428.34
     95.8700	 1036.00	 1101.57	-2357.07	  428.20
     95.9700	 1003.00	 1087.00	-2375.50	  428.07
     96.0700	 1002.00	 1063.96	-2353.46	  427.94
     96.1700	 1009.00	 1034.07	-2316.57	  427.81
     96.2700	  969.00	  999.54	-2322.04	  427.68
     96.3700	  940.00	  962.84	-2314.34	  427.56
     96.4700	  947.00	  926.43	-2270.93	  427.43
     96.5700	  907.00	  892.60	-2277.10	  427.31
     96.6700	  868.00	  863.41	-2286.91	  427.18
     96.7700	  859.00	  840.60	-2273.10	  427.06
     96.8700	  889.00	  825.62	-2228.12	  426.94
     96.9700	  882.00	  819.61	-2229.11	  426.83
     97.0700	  816.00	  823.43	-2298.93	  426.71
     97.1700	  857.00	  837.71	-2272.21	  426.60
     97.2700	  910.00	  862.81	-2244.31	  426.48
     97.3700	  928.00	  898.86	-2262.36	  426.37
     97.4700	 1010.00	  945.70	-2227.20	  426.26
     97.5700	 1015.00	 1002.85	-2279.35	  426.15
     97.6700	 1063.00	 1069.39	-2297.89	  426.05
     97.7700	 1160.00	 1143.92	-2275.42	  425.94
     97.8700	 1295.00	 1224.49	-2220.99	  425.84
     97.9700	 1301.00	 1308.50	-2299.00	  425.74
     98.0700	 1359.00	 1392.76	-2325.26	  425.63
     98.1700	 1367.00	 1473.40	-2397.90	  425.54
     98.2700	 1582.00	 1546.04	-2255.54	  425.44
     98.3700	 1552.00	 1606.07	-2345.57	  425.34
     98.4700	 1629.00	 1649.12	-2311.62	  425.25
     98.5700	 1648.00	 1671.81	-2315.31	  425.16
     98.6700	 1621.00	 1672.49	-2342.99	  425.07
     98.7700	 1638.00	 1651.60	-2305.10	  424.98
     98.8700	 1573.00	 1611.55	-2330.05	  424.89
     98.9700	 1514.00	 1556.08	-2333.58	  424.81
     99.0700	 1460.00	 1489.60	-2321.10	  424.72
     99.1700	 1378.00	 1416.60	-2330.10	  424.64
     99.2700	 1306.00	 1341.32	-2326.82	  424.56
     99.3700	 1274.00	 1267.51	-2285.01	  424.48
     99.4700	 1176.00	 1198.45	-2313.95	  424.41
     99.5700	 1163.00	 1136.79	-2265.29	  424.33
     99.6700	 1114.00	 1084.73	-2262.23	  424.26
     99.7700	 1093.00	 1044.00	-2242.50	  424.19
     99.8700	 1028.00	 1015.88	-2279.38	  424.12
     99.9700	 1070.00	 1001.36	-2222.86	  424.05
    100.0700	  978.00	 1001.05	-2314.55	  423.98
    100.1700	 1062.00	 1015.27	-2244.77	  423.92
    100.2700	 1128.00	 1044.05	-2207.55	  423.86
    100.3700	 1145.00	 1087.10	-2233.60	  423.80
    100.4700	 1165.00	 1143.76	-2270.26	  423.74
    100.5700	 1253.00	 1213.06	-2251.56	  423.68
    100.6700	 1337.00	 1293.57	-2248.07	  423.63
    100.7700	 1375.00	 1383.42	-2299.92	  423.57
    100.8700	 1497.00	 1480.26	-2274.76	  423.52
    100.9700	 1645.00	 1581.19	-2227.69	  423.47
    101.0700	 1670.00	 1682.75	-2304.25	  423.43
    101.1700	 1770.00	 1781.45	-2302.95	  423.38
    101.2700	 1868.00	 1873.44	-2296.94	  423.34
    101.3700	 1868.00	 1955.27	-2378.77	  423.30
    101.4700	 1989.00	 2024.28	-2326.78	  423.26
    101.5700	 2030.00	 2078.72	-2340.22	  423.22
    101.6700	 2107.00	 2117.77	-2302.27	  423.19
    101.7700	 2138.00	 2141.15	-2294.65	  423.15
    101.8700	 2182.00	 2148.72	-2258.22	  423.12
    101.9700	 2216.00	 2140.43	-2215.93	  423.09
    102.0700	 2111.00	 2116.36	-2296.86	  423.07
    102.1700	 2060.00	 2077.18	-2308.68	  423.04
    102.2700	 2103.00	 2024.47	-2212.97	  423.02
    102.3700	 2074.00	 1960.80	-2178.30	  423.00
    102.4700	 1966.00	 1889.64	-2215.14	  422.98
    102.5700	 1887.00	 1814.79	-2219.29	  422.96
    102.6700	 1864.00	 1739.91	-2167.41	  422.95
    102.7700	 1734.00	 1668.13	-2225.63	  422.93
    102.8700	 1697.00	 1601.83	-2196.33	  422.92
    102.9700	 1582.00	 1542.55	-2252.05	  422.91
    103.0700	 1538.00	 1491.05	-2244.55	  422.91
    103.1700	 1464.00	 1447.29	-2274.79	  422.90
    103.2700	 1392.00	 1410.62	-2310.12	  422.90
    103.3700	 1365.00	 1379.79	-2306.29	  422.90
    103.4700	 1314.00	 1353.07	-2330.57	  422.90
    103.5700	 1253.00	 1328.44	-2366.94	  422.90
    103.6700	 1229.00	 1303.78	-2366.28	  422.91
    103.7700	 1296.00	 1277.19	-2272.69	  422.92
    103.8700	 1227.00	 1247.29	-2311.79	  422.93
    103.9700	 1289.00	 1213.37	-2215.87	  422.94
    104.0700	 1188.00	 1175.47	-2278.97	  422.96
    104.1700	 1143.00	 1134.18	-2282.68	  422.97
    104.2700	 1069.00	 1090.48	-2312.98	  422.99
    104.3700	 1052.00	 1045.48	-2284.98	  423.02
    104.4700	  918.00	 1000.32	-2373.82	  423.04
    104.5700	  916.00	  956.03	-2331.53	  423.07
    104.6700	  976.00	  913.53	-2229.03	  423.09
    104.7700	  878.00	  873.53	-2287.03	  423.12
    104.8700	  871.00	  836.52	-2257.02	  423.16
    104.9700	  789.00	  803.04	-2305.54	  423.19
    105.0700	  810.00	  773.23	-2254.73	  423.23
    105.1700	  768.00	  747.17	-2270.67	  423.27
    105.2700	  813.00	  724.76	-2203.26	  423.31
    105.3700	  764.00	  705.81	-2233.31	  423.35
    105.4700	  707.00	  690.07	-2274.57	  423.40
    105.5700	  662.00	  677.23	-2306.73	  423.45
    105.6700	  750.00	  666.89	-2208.39	  423.50
    105.7700	  697.00	  658.83	-2253.33	  423.55
    105.8700	  667.00	  652.69	-2277.19	  423.61
    105.9700	  640.00	  648.19	-2299.69	  423.67
    106.0700	  692.00	  645.11	-2244.61	  423.73
    106.1700	  642.00	  643.27	-2292.77	  423.79
    106.2700	  629.00	  642.53	-2305.03	  423.86
    106.3700	  633.00	  642.80	-2301.30	  423.92
    106.4700	  635.00	  644.06	-2300.56	  423.99
    106.5700	  664.00	  646.28	-2273.78	  424.07
    106.6700	  628.00	  649.50	-2313.00	  424.14
    106.7700	  695.00	  653.75	-2250.25	  424.22
    106.8700	  677.00	  659.08	-2273.58	  424.30
    106.9700	  651.00	  665.57	-2306.07	  424.38
    107.0700	  684.00	  673.26	-2280.76	  424.46
    107.1700	  692.00	  682.19	-2281.69	  424.55
    107.2700	  707.00	  692.35	-2276.85	  424.64
    107.3700	  710.00	  703.71	-2285.21	  424.73
    107.4700	  694.00	  716.16	-2313.66	  424.82
    107.5700	  742.00	  729.55	-2279.05	  424.92
    107.6700	  756.00	  743.65	-2279.15	  425.02
    107.7700	  721.00	  758.15	-2328.65	  425.12
    107.8700	  756.00	  772.71	-2308.21	  425.22
    107.9700	  732.00	  786.91	-2346.41	  425.33
    108.0700	  772.00	  800.29	-2319.79	  425.44
    108.1700	  754.00	  812.36	-2349.86	  425.55
    108.2700	  800.00	  822.67	-2314.17	  425.66
    108.3700	  798.00	  830.84	-2324.34	  425.78
    108.4700	  771.00	  836.61	-2357.11	  425.90
    108.5700	  804.00	  839.89	-2327.39	  426.02
    108.6700	  768.00	  840.89	-2364.39	  426.15
    108.7700	  770.00	  839.93	-2361.43	  426.27
    108.8700	  751.00	  837.47	-2377.97	  426.40
    108.9700	  781.00	  834.04	-2344.54	  426.53
    109.0700	  797.00	  830.19	-2324.69	  426.67
    109.1700	  764.00	  826.41	-2353.91	  426.80
    109.2700	  785.00	  823.09	-2329.59	  426.94
    109.3700	  750.00	  820.52	-2362.02	  427.08
    109.4700	  762.00	  818.88	-2348.38	  427.23
    109.5700	  821.00	  818.24	-2288.74	  427.37
    109.6700	  783.00	  818.55	-2327.05	  427.52
    109.7700	  808.00	  819.61	-2303.11	  427.68
    109.8700	  767.00	  821.14	-2345.64	  427.83
    109.9700	  751.00	  822.76	-2363.26	  427.99
    110.0700	  757.00	  824.04	-2358.54	  428.15
    110.1700	  821.00	  824.48	-2294.98	  428.31
    110.2700	  765.00	  823.68	-2350.19	  428.48
    110.3700	  787.00	  821.30	-2325.80	  428.64
    110.4700	  782.00	  817.12	-2326.62	  428.81
    110.5700	  808.00	  811.09	-2294.59	  428.99
    110.6700	  854.00	  803.34	-2240.84	  429.16
    110.7700	  775.00	  794.09	-2310.59	  429.34
    110.8700	  793.00	  783.66	-2282.16	  429.52
    110.9700	  743.00	  772.41	-2320.91	  429.70
    111.0700	  747.00	  760.68	-2305.18	  429.89
    111.1700	  731.00	  748.81	-2309.31	  430.08
    111.2700	  785.00	  737.09	-2243.59	  430.27
    111.3700	  683.00	  725.79	-2334.29	  430.47
    111.4700	  685.00	  715.11	-2321.61	  430.66
    111.5700	  692.00	  705.24	-2304.74	  430.86
    111.6700	  661.00	  696.30	-2326.80	  431.06
    111.7700	  649.00	  688.37	-2330.87	  431.27
    111.8700	  665.00	  681.51	-2308.01	  431.48
    111.9700	  683.00	  675.72	-2284.22	  431.69
    112.0700	  678.00	  670.99	-2284.49	  431.90
    112.1700	  633.00	  667.26	-2325.76	  432.12
    112.2700	  627.00	  664.47	-2328.97	  432.33
    112.3700	  642.00	  662.54	-2312.04	  432.55
    112.4700	  659.00	  661.37	-2293.87	  432.78
    112.5700	  589.00	  660.87	-2363.37	  433.01
    112.6700	  612.00	  660.93	-2340.43	  433.23
    112.7700	  628.00	  661.47	-2324.97	  433.47
    112.8700	  680.00	  662.38	-2273.88	  433.70
    112.9700	  619.00	  663.58	-2336.08	  433.94
    113.0700	  651.00	  665.01	-2305.51	  434.18
    113.1700	  632.00	  666.60	-2326.10	  434.42
    113.2700	  618.00	  668.31	-2341.81	  434.67
    113.3700	  676.00	  670.12	-2285.62	  434.92
    113.4700	  599.00	  672.03	-2364.53	  435.17
    113.5700	  640.00	  674.04	-2325.54	  435.42
    113.6700	  648.00	  676.19	-2319.69	  435.68
    113.7700	  659.00	  678.52	-2311.02	  435.94
    113.8700	  667.00	  681.06	-2305.56	  436.20
    113.9700	  677.00	  683.92	-2298.42	  436.46
    114.0700	  662.00	  687.15	-2316.65	  436.73
    114.1700	  643.00	  690.87	-2339.37	  437.00
    114.2700	  733.00	  695.19	-2253.69	  437.28
    114.3700	  746.00	  700.28	-2245.78	  437.55
    114.4700	  702.00	  706.34	-2295.84	  437.83
    114.5700	  685.00	  713.64	-2320.14	  438.11
    114.6700	  726.00	  722.52	-2288.02	  438.40
    114.7700	  704.00	  733.42	-2320.92	  438.68
    114.8700	  751.00	  746.90	-2287.40	  438.97
    114.9700	  820.00	  763.66	-2235.16	  439.27
    115.0700	  820.00	  784.60	-2256.10	  439.56
    115.1700	  801.00	  810.81	-2301.31	  439.86
    115.2700	  931.00	  843.60	-2204.10	  440.16
    115.3700	  931.00	  884.55	-2245.05	  440.47
    115.4700	 1006.00	  935.51	-2221.01	  440.77
    115.5700	 1104.00	  998.58	-2186.08	  441.08
    115.6700	 1157.00	 1076.15	-2210.65	  441.40
    115.7700	 1314.00	 1170.82	-2148.32	  441.71
    115.8700	 1465.00	 1285.37	-2111.87	  442.03
    115.9700	 1675.00	 1422.64	-2039.14	  442.35
    116.0700	 1817.00	 1585.44	-2059.94	  442.67
    116.1700	 2126.00	 1776.44	-1941.94	  443.00
    116.2700	 2306.00	 1998.02	-1983.52	  443.33
    116.3700	 2538.00	 2251.94	-2005.44	  443.66
    116.4700	 2821.00	 2539.31	-2009.81	  444.00
    116.5700	 3029.00	 2860.24	-2122.74	  444.33
    116.6700	 3505.00	 3213.85	-2000.35	  444.67
    116.7700	 3747.00	 3597.99	-2142.49	  445.02
    116.8700	 4121.00	 4009.02	-2179.52	  445.36
    116.9700	 4466.00	 4441.89	-2267.39	  445.71
    117.0700	 4887.00	 4889.99	-2294.49	  446.07
    117.1700	 5253.00	 5345.35	-2383.85	  446.42
    117.2700	 5788.00	 5798.76	-2302.26	  446.78
    117.3700	 6153.00	 6239.61	-2378.11	  447.14
    117.4700	 6473.00	 6656.43	-2474.93	  447.50
    117.5700	 6839.00	 7037.13	-2489.63	  447.87
    117.6700	 7212.00	 7369.62	-2449.12	  448.24
    117.7700	 7194.00	 7642.31	-2739.81	  448.61
    117.8700	 7439.00	 7844.81	-2697.31	  448.98
    117.9700	 7732.00	 7969.02	-2528.52	  449.36
    118.0700	 7562.00	 8009.87	-2739.37	  449.74
    118.1700	 7742.00	 7965.95	-2515.45	  450.12
    118.2700	 7427.00	 7839.63	-2704.13	  450.51
    118.3700	 7318.00	 7636.79	-2610.29	  450.90
    118.4700	 7156.00	 7366.16	-2501.66	  451.29
    118.5700	 6741.00	 7038.45	-2588.95	  451.68
    118.6700	 6548.00	 6665.35	-2408.85	  452.08
    118.7700	 6014.00	 6258.87	-2536.37	  452.48
    118.8700	 5682.00	 5830.82	-2440.32	  452.88
    118.9700	 5376.00	 5392.29	-2307.79	  453.29
    119.0700	 5197.00	 4953.36	-2047.86	  453.70
    119.1700	 4768.00	 4522.76	-2046.26	  454.11
    119.2700	 4429.00	 4107.81	-1970.31	  454.52
    119.3700	 4114.00	 3714.50	-1892.00	  454.94
    119.4700	 3581.00	 3347.28	-2057.78	  455.36
    119.5700	 3287.00	 3009.19	-2013.69	  455.78
    119.6700	 3079.00	 2701.87	-1914.37	  456.21
    119.7700	 2744.00	 2425.81	-1973.31	  456.63
    119.8700	 2525.00	 2180.62	-1947.12	  457.06
    119.9700	 2218.00	 1965.05	-2038.55	  457.50
    120.0700	 1977.00	 1777.34	-2091.84	  457.93
    120.1700	 1836.00	 1615.24	-2070.74	  458.37
    120.2700	 1677.00	 1476.29	-2090.79	  458.82
    120.3700	 1577.00	 1357.97	-2072.47	  459.26
    120.4700	 1450.00	 1257.74	-2099.24	  459.71
    120.5700	 1294.00	 1173.20	-2170.70	  460.16
    120.6700	 1297.00	 1102.07	-2096.57	  460.61
    120.7700	 1198.00	 1042.31	-2135.81	  461.07
    120.8700	 1128.00	  992.11	-2155.61	  461.53
    120.9700	 1037.00	  949.91	-2204.41	  461.99
    121.0700	  977.00	  914.38	-2228.88	  462.45
    121.1700	  915.00	  884.40	-2260.90	  462.92
    121.2700	  923.00	  859.06	-2227.56	  463.39
    121.3700	  832.00	  837.60	-2297.10	  463.86
    121.4700	  858.00	  819.44	-2252.94	  464.34
    121.5700	  863.00	  804.09	-2232.59	  464.82
    121.6700	  748.00	  791.18	-2334.68	  465.30
    121.7700	  746.00	  780.40	-2325.90	  465.78
    121.8700	  785.00	  771.52	-2278.02	  466.27
    121.9700	  754.00	  764.35	-2301.85	  466.76
    122.0700	  717.00	  758.74	-2333.24	  467.25
    122.1700	  762.00	  754.57	-2284.07	  467.74
    122.2700	  724.00	  751.74	-2319.24	  468.24
    122.3700	  751.00	  750.16	-2290.66	  468.74
    122.4700	  668.00	  749.77	-2373.27	  469.25
    122.5700	  695.00	  750.51	-2347.01	  469.75
    122.6700	  762.00	  752.32	-2281.82	  470.26
    122.7700	  674.00	  755.14	-2372.64	  470.77
    122.8700	  693.00	  758.92	-2357.42	  471.29
    122.9700	  755.00	  763.60	-2300.10	  471.80
    123.0700	  732.00	  769.12	-2328.62	  472.32
    123.1700	  695.00	  775.41	-2371.91	  472.84
    123.2700	  736.00	  782.39	-2337.89	  473.37
    123.3700	  749.00	  789.97	-2332.47	  473.90
    123.4700	  791.00	  798.06	-2298.56	  474.43
    123.5700	  791.00	  806.54	-2307.04	  474.96
    123.6700	  799.00	  815.30	-2307.80	  475.49
    123.7700	  771.00	  824.22	-2344.72	  476.03
    123.8700	  812.00	  833.17	-2312.67	  476.57
    123.9700	  853.00	  842.00	-2280.50	  477.12
    124.0700	  792.00	  850.58	-2350.08	  477.66
    124.1700	  837.00	  858.80	-2313.30	  478.21
    124.2700	  829.00	  866.52	-2329.02	  478.76
    124.3700	  804.00	  873.66	-2361.16	  479.32
    124.4700	  817.00	  880.15	-2354.65	  479.87
    124.5700	  787.00	  885.92	-2390.42	  480.43
    124.6700	  862.00	  891.04	-2320.54	  481.00
    124.7700	  875.00	  895.49	-2311.99	  481.56
    124.8700	  833.00	  899.33	-2357.83	  482.13
    124.9700	  844.00	  623.66	-2071.16	  482.70
    125.0700	  899.00	  624.24	-2291.50	  483.27
    125.1700	  849.00	  624.81	-2291.50	  483.85
    125.2700	  844.00	  625.39	-2291.50	  484.42
    125.3700	  879.00	  625.97	-2291.50	  485.00
    125.4700	  888.00	  626.55	-2291.50	  485.59
    125.5700	  856.00	  627.14	-2291.50	  486.17
    125.6700	  819.00	  627.73	-2291.50	  486.76
    125.7700	  792.00	  628.32	-2291.50	  487.35
    125.8700	  869.00	  628.91	-2291.50	  487.94
    125.9700	  872.00	  629.51	-2291.50	  488.54
    126.0700	  848.00	  630.10	-2291.50	  489.14
    126.1700	  877.00	  630.70	-2291.50	  489.74
    126.2700	  839.00	  631.31	-2291.50	  490.34
    126.3700	  817.00	  631.91	-2291.50	  490.95
    126.4700	  808.00	  632.52	-2291.50	  491.56
    126.5700	  812.00	  633.13	-2291.50	  492.17
    126.6700	  747.00	  633.75	-2291.50	  492.78
    126.7700	  793.00	  634.36	-2291.50	  493.39
    126.8700	  849.00	  634.98	-2291.50	  494.01
    126.9700	  779.00	  635.60	-2291.50	  494.63
    127.0700	  758.00	  636.22	-2291.50	  495.26
    127.1700	  798.00	  636.85	-2291.50	  495.88
    127.2700	  769.00	  637.48	-2291.50	  496.51
    127.3700	  684.00	  638.11	-2291.50	  497.14
    127.4700	  703.00	  638.74	-2291.50	  497.77
    127.5700	  714.00	  639.37	-2291.50	  498.41
    127.6700	  700.00	  640.01	-2291.50	  499.05
    127.7700	  678.00	  640.65	-2291.50	  499.69
    127.8700	  719.00	  641.29	-2291.50	  500.33
    127.9700	  667.00	  641.94	-2291.50	  500.97
    128.0700	  682.00	  642.59	-2291.50	  501.62
    128.1700	  670.00	  643.23	-2291.50	  502.27
    128.2700	  639.00	  643.89	-2291.50	  502.92
    128.3700	  696.00	  644.54	-2291.50	  503.57
    128.4700	  666.00	  645.20	-2291.50	  504.23
    128.5700	    0.00	  645.86	-2291.50	  504.89
    128.6700	    1.00	  646.52	-2291.50	  505.55
     12.4571	        	        	        	        	       0	(  0  0  2)	  0  1
     12.4571	        	        	        	        	    -572	(  0  0  2)	  0  1
     25.1511	        	        	        	        	       0	(  0  0  4)	  0  1
     25.1511	        	        	        	        	    -572	(  0  0  4)	  0  1
     28.5856	        	        	        	        	       0	(  1  0  0)	  0  1
     28.5856	        	        	        	        	    -572	(  1  0  0)	  0  1
     29.2900	        	        	        	        	       0	(  1  0  1)	  0  1
     29.2900	        	        	        	        	    -572	(  1  0  1)	  0  1
     31.3169	        	        	        	        	       0	(  1  0  2)	  0  1
     31.3169	        	        	        	        	    -572	(  1  0  2)	  0  1
     34.4570	        	        	        	        	       0	(  1  0  3)	  0  1
     34.4570	        	        	        	        	    -572	(  1  0  3)	  0  1
     38.1696	        	        	        	        	       0	(  0  0  6)	  0  1
     38.1696	        	        	        	        	    -572	(  0  0  6)	  0  1
     38.4747	        	        	        	        	       0	(  1  0  4)	  0  1
     38.4747	        	        	        	        	    -572	(  1  0  4)	  0  1
     43.1727	        	        	        	        	       0	(  1  0  5)	  0  1
     43.1727	        	        	        	        	    -572	(  1  0  5)	  0  1
     48.4112	        	        	        	        	       0	(  1  0  6)	  0  1
     48.4112	        	        	        	        	    -572	(  1  0  6)	  0  1
     50.7027	        	        	        	        	       0	(  1  1  0)	  0  1
     50.7027	        	        	        	        	    -572	(  1  1  0)	  0  1
     51.7257	        	        	        	        	       0	(  0  0  8)	  0  1
     51.7257	        	        	        	        	    -572	(  0  0  8)	  0  1
     52.4455	        	        	        	        	       0	(  1  1  2)	  0  1
     52.4455	        	        	        	        	    -572	(  1  1  2)	  0  1
     54.1027	        	        	        	        	       0	(  1  0  7)	  0  1
     54.1027	        	        	        	        	    -572	(  1  0  7)	  0  1
     57.4513	        	        	        	        	       0	(  1  1  4)	  0  1
     57.4513	        	        	        	        	    -572	(  1  1  4)	  0  1
     59.2778	        	        	        	        	       0	(  2  0  0)	  0  1
     59.2778	        	        	        	        	    -572	(  2  0  0)	  0  1
     59.6742	        	        	        	        	       0	(  2  0  1)	  0  1
     59.6742	        	        	        	        	    -572	(  2  0  1)	  0  1
     60.2013	        	        	        	        	       0	(  1  0  8)	  0  1
     60.2013	        	        	        	        	    -572	(  1  0  8)	  0  1
     60.8539	        	        	        	        	       0	(  2  0  2)	  0  1
     60.8539	        	        	        	        	    -572	(  2  0  2)	  0  1
     62.7909	        	        	        	        	       0	(  2  0  3)	  0  1
     62.7909	        	        	        	        	    -572	(  2  0  3)	  0  1
     65.2396	        	        	        	        	       0	(  1  1  6)	  0  1
     65.2396	        	        	        	        	    -572	(  1  1  6)	  0  1
     65.4480	        	        	        	        	       0	(  2  0  4)	  0  1
     65.4480	        	        	        	        	    -572	(  2  0  4)	  0  1
     66.1151	        	        	        	        	       0	(  0  0 10)	  0  1
     66.1151	        	        	        	        	    -572	(  0  0 10)	  0  1
     66.6945	        	        	        	        	       0	(  1  0  9)	  0  1
     66.6945	        	        	        	        	    -572	(  1  0  9)	  0  1
     68.7847	        	        	        	        	       0	(  2  0  5)	  0  1
     68.7847	        	        	        	        	    -572	(  2  0  5)	  0  1
     72.7645	        	        	        	        	       0	(  2  0  6)	  0  1
     72.7645	        	        	        	        	    -572	(  2  0  6)	  0  1
     73.5982	        	        	        	        	       0	(  1  0 10)	  0  1
     73.5982	        	        	        	        	    -572	(  1  0 10)	  0  1
     75.4094	        	        	        	        	       0	(  1  1  8)	  0  1
     75.4094	        	        	        	        	    -572	(  1  1  8)	  0  1
     77.3618	        	        	        	        	       0	(  2  0  7)	  0  1
     77.3618	        	        	        	        	    -572	(  2  0  7)	  0  1
     80.9578	        	        	        	        	       0	(  1  0 11)	  0  1
     80.9578	        	        	        	        	    -572	(  1  0 11)	  0  1
     81.7622	        	        	        	        	       0	(  2  1  0)	  0  1
     81.7622	        	        	        	        	    -572	(  2  1  0)	  0  1
     81.8028	        	        	        	        	       0	(  0  0 12)	  0  1
     81.8028	        	        	        	        	    -572	(  0  0 12)	  0  1
     82.1072	        	        	        	        	       0	(  2  1  1)	  0  1
     82.1072	        	        	        	        	    -572	(  2  1  1)	  0  1
     82.5679	        	        	        	        	       0	(  2  0  8)	  0  1
     82.5679	        	        	        	        	    -572	(  2  0  8)	  0  1
     83.1408	        	        	        	        	       0	(  2  1  2)	  0  1
     83.1408	        	        	        	        	    -572	(  2  1  2)	  0  1
     84.8587	        	        	        	        	       0	(  2  1  3)	  0  1
     84.8587	        	        	        	        	    -572	(  2  1  3)	  0  1
     87.2564	        	        	        	        	       0	(  2  1  4)	  0  1
     87.2564	        	        	        	        	    -572	(  2  1  4)	  0  1
     87.8657	        	        	        	        	       0	(  1  1 10)	  0  1
     87.8657	        	        	        	        	    -572	(  1  1 10)	  0  1
     88.3972	        	        	        	        	       0	(  2  0  9)	  0  1
     88.3972	        	        	        	        	    -572	(  2  0  9)	  0  1
     88.8539	        	        	        	        	       0	(  1  0 12)	  0  1
     88.8539	        	        	        	        	    -572	(  1  0 12)	  0  1
     90.3329	        	        	        	        	       0	(  2  1  5)	  0  1
     90.3329	        	        	        	        	    -572	(  2  1  5)	  0  1
     94.0956	        	        	        	        	       0	(  2  1  6)	  0  1
     94.0956	        	        	        	        	    -572	(  2  1  6)	  0  1
     94.8965	        	        	        	        	       0	(  2  0 10)	  0  1
     94.8965	        	        	        	        	    -572	(  2  0 10)	  0  1
     95.8485	        	        	        	        	       0	(  3  0  0)	  0  1
     95.8485	        	        	        	        	    -572	(  3  0  0)	  0  1
     96.1922	        	        	        	        	       0	(  3  0  1)	  0  1
     96.1922	        	        	        	        	    -572	(  3  0  1)	  0  1
     97.2246	        	        	        	        	       0	(  3  0  2)	  0  1
     97.2246	        	        	        	        	    -572	(  3  0  2)	  0  1
     97.4186	        	        	        	        	       0	(  1  0 13)	  0  1
     97.4186	        	        	        	        	    -572	(  1  0 13)	  0  1
     98.5672	        	        	        	        	       0	(  2  1  7)	  0  1
     98.5672	        	        	        	        	    -572	(  2  1  7)	  0  1
     98.9508	        	        	        	        	       0	(  3  0  3)	  0  1
     98.9508	        	        	        	        	    -572	(  3  0  3)	  0  1
     99.6465	        	        	        	        	       0	(  0  0 14)	  0  1
     99.6465	        	        	        	        	    -572	(  0  0 14)	  0  1
    101.3819	        	        	        	        	       0	(  3  0  4)	  0  1
    101.3819	        	        	        	        	    -572	(  3  0  4)	  0  1
    102.1595	        	        	        	        	       0	(  2  0 11)	  0  1
    102.1595	        	        	        	        	    -572	(  2  0 11)	  0  1
    103.0160	        	        	        	        	       0	(  1  1 12)	  0  1
    103.0160	        	        	        	        	    -572	(  1  1 12)	  0  1
    103.7957	        	        	        	        	       0	(  2  1  8)	  0  1
    103.7957	        	        	        	        	    -572	(  2  1  8)	  0  1
    104.5394	        	        	        	        	       0	(  3  0  5)	  0  1
    104.5394	        	        	        	        	    -572	(  3  0  5)	  0  1
    106.8702	        	        	        	        	       0	(  1  0 14)	  0  1
    106.8702	        	        	        	        	    -572	(  1  0 14)	  0  1
    108.4623	        	        	        	        	       0	(  3  0  6)	  0  1
    108.4623	        	        	        	        	    -572	(  3  0  6)	  0  1
    109.8707	        	        	        	        	       0	(  2  1  9)	  0  1
    109.8707	        	        	        	        	    -572	(  2  1  9)	  0  1
    110.3572	        	        	        	        	       0	(  2  0 12)	  0  1
    110.3572	        	        	        	        	    -572	(  2  0 12)	  0  1
    113.2198	        	        	        	        	       0	(  3  0  7)	  0  1
    113.2198	        	        	        	        	    -572	(  3  0  7)	  0  1
    116.9550	        	        	        	        	       0	(  2  1 10)	  0  1
    116.9550	        	        	        	        	    -572	(  2  1 10)	  0  1
    117.5985	        	        	        	        	       0	(  1  0 15)	  0  1
    117.5985	        	        	        	        	    -572	(  1  0 15)	  0  1
    118.0241	        	        	        	        	       0	(  2  2  0)	  0  1
    118.0241	        	        	        	        	    -572	(  2  2  0)	  0  1
    118.9331	        	        	        	        	       0	(  3  0  8)	  0  1
    118.9331	        	        	        	        	    -572	(  3  0  8)	  0  1
    119.5854	        	        	        	        	       0	(  2  2  2)	  0  1
    119.5854	        	        	        	        	    -572	(  2  2  2)	  0  1
    119.8071	        	        	        	        	       0	(  2  0 13)	  0  1
    119.8071	        	        	        	        	    -572	(  2  0 13)	  0  1
    121.7103	        	        	        	        	       0	(  0  0 16)	  0  1
    121.7103	        	        	        	        	    -572	(  0  0 16)	  0  1
    122.3817	        	        	        	        	       0	(  1  1 14)	  0  1
    122.3817	        	        	        	        	    -572	(  1  1 14)	  0  1
    124.4270	        	        	        	        	       0	(  2  2  4)	  0  1
    124.4270	        	        	        	        	    -572	(  2  2  4)	  0  1
    125.3558	        	        	        	        	       0	(  2  1 11)	  0  1
    125.3558	        	        	        	        	    -572	(  2  1 11)	  0  1
    125.8224	        	        	        	        	       0	(  3  0  9)	  0  1
    125.8224	        	        	        	        	    -572	(  3  0  9)	  0  1
    126.3381	        	        	        	        	       0	(  3  1  0)	  0  1
    126.3381	        	        	        	        	    -572	(  3  1  0)	  0  1
    126.7640	        	        	        	        	       0	(  3  1  1)	  0  1
    126.7640	        	        	        	        	    -572	(  3  1  1)	  0  1
    128.0561	        	        	        	        	       0	(  3  1  2)	  0  1
    128.0561	        	        	        	        	    -572	(  3  1  2)	  0  1
    130.2625	        	        	        	        	       0	(  3  1  3)	  0  1
    130.2625	        	        	        	        	    -572	(  3  1  3)	  0  1
    130.4172	        	        	        	        	       0	(  1  0 16)	  0  1
    130.4172	        	        	        	        	    -572	(  1  0 16)	  0  1
    131.1691	        	        	        	        	       0	(  2  0 14)	  0  1
    131.1691	        	        	        	        	    -572	(  2  0 14)	  0  1
    133.2185	        	        	        	        	       0	(  2  2  6)	  0  1
    133.2185	        	        	        	        	    -572	(  2  2  6)	  0  1
    133.4795	        	        	        	        	       0	(  3  1  4)	  0  1
    133.4795	        	        	        	        	    -572	(  3  1  4)	  0  1
    134.3256	        	        	        	        	       0	(  3  0 10)	  0  1
    134.3256	        	        	        	        	    -572	(  3  0 10)	  0  1
    135.7254	        	        	        	        	       0	(  2  1 12)	  0  1
    135.7254	        	        	        	        	    -572	(  2  1 12)	  0  1
    137.8896	        	        	        	        	       0	(  3  1  5)	  0  1
    137.8896	        	        	        	        	    -572	(  3  1  5)	  0  1
    143.8600	        	        	        	        	       0	(  3  1  6)	  0  1
    143.8600	        	        	        	        	    -572	(  3  1  6)	  0  1
    145.5078	        	        	        	        	       0	(  3  0 11)	  0  1
    145.5078	        	        	        	        	    -572	(  3  0 11)	  0  1
    146.2569	        	        	        	        	       0	(  2  0 15)	  0  1
    146.2569	        	        	        	        	    -572	(  2  0 15)	  0  1
    147.7257	        	        	        	        	       0	(  1  0 17)	  0  1
    147.7257	        	        	        	        	    -572	(  1  0 17)	  0  1
    148.4388	        	        	        	        	       0	(  2  2  8)	  0  1
    148.4388	        	        	        	        	    -572	(  2  2  8)	  0  1
    149.9280	        	        	        	        	       0	(  2  1 13)	  0  1
    149.9280	        	        	        	        	    -572	(  2  1 13)	  0  1
    152.2880	        	        	        	        	       0	(  3  1  7)	  0  1
    152.2880	        	        	        	        	    -572	(  3  1  7)	  0  1
    153.3792	        	        	        	        	       0	(  1  1 16)	  0  1
    153.3792	        	        	        	        	    -572	(  1  1 16)	  0  1
    158.7341	        	        	        	        	       0	(  0  0 18)	  0  1
    158.7341	        	        	        	        	    -572	(  0  0 18)	  0  1
    163.9668	        	        	        	        	       0	(  4  0  0)	  0  1
    163.9668	        	        	        	        	    -572	(  4  0  0)	  0  1
    164.1139	        	        	        	        	       0	(  3  0 12)	  0  1
    164.1139	        	        	        	        	    -572	(  3  0 12)	  0  1
    165.2617	        	        	        	        	       0	(  4  0  1)	  0  1
    165.2617	        	        	        	        	    -572	(  4  0  1)	  0  1
    167.1911	        	        	        	        	       0	(  3  1  8)	  0  1
    167.1911	        	        	        	        	    -572	(  3  1  8)	  0  1
