MSG Master    CELL:    5.88009   5.88009  23.09787   90.0000   90.0000  120.0000   SPGR: P 63/m m c             TEMP:    516.65
  2   1280     2.52000     0.00000    -0.08485     0.00000     0.00000    0
    95    95     0     0     2
       0.00000      10.00000
     125.00000     130.00000
 2Theta	Yobs	Ycal	Yobs-Ycal	Backg	Posr	(hkl)	K
      0.7700	    1.00	  940.91	-2057.25	  804.89
      0.8700	    0.00	  937.79	-2057.25	  801.77
      0.9700	   44.00	  934.69	-2057.25	  798.67
      1.0700	   46.00	  931.61	-2057.25	  795.59
      1.1700	   50.00	  928.55	-2057.25	  792.53
      1.2700	   42.00	  925.51	-2057.25	  789.49
      1.3700	   53.00	  922.49	-2057.25	  786.47
      1.4700	   97.00	  919.48	-2057.25	  783.46
      1.5700	  309.00	  916.50	-2057.25	  780.48
      1.6700	  444.00	  913.53	-2057.25	  777.51
      1.7700	  597.00	  910.59	-2057.25	  774.57
      1.8700	  614.00	  907.66	-2057.25	  771.64
      1.9700	  740.00	  904.75	-2057.25	  768.73
      2.0700	  835.00	  901.87	-2057.25	  765.85
      2.1700	  805.00	  899.00	-2057.25	  762.98
      2.2700	  817.00	  896.14	-2057.25	  760.12
      2.3700	  688.00	  893.31	-2057.25	  757.29
      2.4700	  739.00	  890.50	-2057.25	  754.48
      2.5700	  721.00	  887.70	-2057.25	  751.68
      2.6700	  680.00	  884.92	-2057.25	  748.90
      2.7700	  634.00	  882.16	-2057.25	  746.14
      2.8700	  657.00	  879.42	-2057.25	  743.40
      2.9700	  630.00	  876.70	-2057.25	  740.68
      3.0700	  633.00	  874.00	-2057.25	  737.98
      3.1700	  616.00	  871.31	-2057.25	  735.29
      3.2700	  722.00	  868.64	-2057.25	  732.62
      3.3700	  889.00	  865.99	-2057.25	  729.97
      3.4700	 1030.00	  863.35	-2057.25	  727.33
      3.5700	 1209.00	  860.74	-2057.25	  724.72
      3.6700	 1348.00	  858.14	-2057.25	  722.12
      3.7700	 1403.00	  855.56	-2057.25	  719.54
      3.8700	 1474.00	  852.99	-2057.25	  716.97
      3.9700	 1568.00	  850.45	-2057.25	  714.43
      4.0700	 1679.00	  847.92	-2057.25	  711.90
      4.1700	 1684.00	  845.41	-2057.25	  709.39
      4.2700	 1673.00	  842.91	-2057.25	  706.89
      4.3700	 1615.00	  840.43	-2057.25	  704.41
      4.4700	 1614.00	  837.97	-2057.25	  701.95
      4.5700	 1526.00	  835.53	-2057.25	  699.51
      4.6700	 1510.00	  833.10	-2057.25	  697.08
      4.7700	 1477.00	  830.69	-2057.25	  694.67
      4.8700	 1404.00	  828.30	-2057.25	  692.28
      4.9700	 1396.00	  825.92	-2057.25	  689.90
      5.0700	 1322.00	  823.56	-2057.25	  687.54
      5.1700	 1342.00	  821.21	-2057.25	  685.19
      5.2700	 1326.00	  818.88	-2057.25	  682.86
      5.3700	 1258.00	  816.57	-2057.25	  680.55
      5.4700	 1225.00	  814.28	-2057.25	  678.26
      5.5700	 1173.00	  812.00	-2057.25	  675.98
      5.6700	 1132.00	  809.73	-2057.25	  673.71
      5.7700	 1095.00	  807.48	-2057.25	  671.46
      5.8700	 1140.00	  805.25	-2057.25	  669.23
      5.9700	 1147.00	  803.04	-2057.25	  667.02
      6.0700	 1107.00	  800.84	-2057.25	  664.82
      6.1700	 1051.00	  798.65	-2057.25	  662.63
      6.2700	  976.00	  796.48	-2057.25	  660.46
      6.3700	 1096.00	  794.33	-2057.25	  658.31
      6.4700	  986.00	  792.19	-2057.25	  656.17
      6.5700	 1011.00	  790.07	-2057.25	  654.05
      6.6700	  995.00	  787.96	-2057.25	  651.94
      6.7700	  947.00	  785.87	-2057.25	  649.85
      6.8700	  909.00	  783.79	-2057.25	  647.77
      6.9700	  927.00	  781.73	-2057.25	  645.71
      7.0700	  955.00	  779.68	-2057.25	  643.66
      7.1700	  900.00	  777.65	-2057.25	  641.63
      7.2700	  884.00	  775.63	-2057.25	  639.61
      7.3700	  894.00	  773.63	-2057.25	  637.61
      7.4700	  892.00	  771.64	-2057.25	  635.62
      7.5700	  882.00	  769.67	-2057.25	  633.65
      7.6700	  832.00	  767.71	-2057.25	  631.69
      7.7700	  793.00	  765.76	-2057.25	  629.74
      7.8700	  770.00	  763.83	-2057.25	  627.81
      7.9700	  805.00	  761.92	-2057.25	  625.90
      8.0700	  755.00	  760.02	-2057.25	  624.00
      8.1700	  828.00	  758.13	-2057.25	  622.11
      8.2700	  800.00	  756.26	-2057.25	  620.24
      8.3700	  832.00	  754.40	-2057.25	  618.38
      8.4700	  781.00	  752.56	-2057.25	  616.54
      8.5700	  797.00	  750.73	-2057.25	  614.71
      8.6700	  764.00	  748.91	-2057.25	  612.89
      8.7700	  798.00	  747.11	-2057.25	  611.09
      8.8700	  782.00	  745.32	-2057.25	  609.30
      8.9700	  782.00	  743.54	-2057.25	  607.52
      9.0700	  723.00	  741.78	-2057.25	  605.76
      9.1700	  766.00	  740.03	-2057.25	  604.01
      9.2700	  775.00	  738.30	-2057.25	  602.28
      9.3700	  749.00	  736.58	-2057.25	  600.56
      9.4700	  769.00	  734.87	-2057.25	  598.85
      9.5700	  779.00	  733.18	-2057.25	  597.16
      9.6700	  776.00	  731.49	-2057.25	  595.47
      9.7700	  720.00	  729.83	-2057.25	  593.81
      9.8700	  782.00	  728.17	-2057.25	  592.15
      9.9700	  745.00	  726.53	-2057.25	  590.51
     10.0700	  723.00	  726.96	-2061.21	  588.88
     10.1700	  715.00	  725.57	-2067.82	  587.26
     10.2700	  714.00	  724.24	-2067.49	  585.66
     10.3700	  730.00	  722.98	-2050.23	  584.07
     10.4700	  767.00	  721.81	-2012.06	  582.49
     10.5700	  727.00	  720.79	-2051.04	  580.93
     10.6700	  686.00	  719.95	-2091.20	  579.37
     10.7700	  746.00	  719.40	-2030.65	  577.83
     10.8700	  776.00	  719.21	-2000.46	  576.31
     10.9700	  699.00	  719.49	-2077.74	  574.79
     11.0700	  706.00	  720.28	-2071.53	  573.29
     11.1700	  692.00	  721.60	-2086.85	  571.80
     11.2700	  728.00	  723.48	-2052.73	  570.32
     11.3700	  719.00	  725.96	-2064.21	  568.85
     11.4700	  717.00	  729.12	-2069.37	  567.40
     11.5700	  781.00	  733.12	-2009.37	  565.96
     11.6700	  718.00	  738.17	-2077.42	  564.53
     11.7700	  717.00	  744.58	-2084.83	  563.11
     11.8700	  750.00	  752.62	-2059.87	  561.70
     11.9700	  783.00	  762.40	-2036.65	  560.31
     12.0700	  887.00	  773.38	-1943.63	  558.92
     12.1700	  872.00	  783.93	-1969.18	  557.55
     12.2700	  836.00	  790.67	-2011.92	  556.19
     12.3700	  846.00	  788.79	-2000.04	  554.84
     12.4700	  791.00	  775.43	-2041.68	  553.51
     12.5700	  786.00	  754.86	-2026.11	  552.18
     12.6700	  715.00	  734.55	-2076.80	  550.87
     12.7700	  753.00	  718.43	-2022.68	  549.56
     12.8700	  693.00	  706.88	-2071.13	  548.27
     12.9700	  676.00	  699.00	-2080.25	  546.99
     13.0700	  650.00	  693.61	-2100.86	  545.72
     13.1700	  657.00	  689.73	-2089.98	  544.46
     13.2700	  685.00	  686.73	-2058.98	  543.22
     13.3700	  648.00	  684.23	-2093.48	  541.98
     13.4700	  626.00	  682.06	-2113.31	  540.75
     13.5700	  636.00	  680.10	-2101.35	  539.54
     13.6700	  675.00	  678.30	-2060.55	  538.33
     13.7700	  683.00	  676.63	-2050.88	  537.14
     13.8700	  695.00	  675.05	-2037.30	  535.96
     13.9700	  700.00	  673.55	-2030.80	  534.79
     14.0700	  691.00	  672.11	-2038.36	  533.62
     14.1700	  649.00	  670.72	-2078.97	  532.47
     14.2700	  662.00	  669.38	-2064.63	  531.33
     14.3700	  676.00	  668.08	-2049.33	  530.20
     14.4700	  654.00	  666.80	-2070.05	  529.08
     14.5700	  668.00	  665.56	-2054.81	  527.97
     14.6700	  621.00	  664.35	-2100.60	  526.87
     14.7700	  647.00	  663.15	-2073.40	  525.78
     14.8700	  689.00	  661.98	-2030.23	  524.70
     14.9700	  619.00	  660.83	-2099.08	  523.63
     15.0700	  654.00	  659.70	-2062.95	  522.57
     15.1700	  675.00	  658.58	-2040.83	  521.52
     15.2700	  639.00	  657.48	-2075.73	  520.48
     15.3700	  648.00	  656.40	-2065.65	  519.45
     15.4700	  668.00	  655.33	-2044.58	  518.43
     15.5700	  653.00	  654.28	-2058.52	  517.42
     15.6700	  624.00	  653.23	-2086.48	  516.41
     15.7700	  636.00	  652.20	-2073.45	  515.42
     15.8700	  623.00	  651.19	-2085.44	  514.44
     15.9700	  671.00	  650.18	-2036.43	  513.47
     16.0700	  649.00	  649.19	-2057.44	  512.50
     16.1700	  630.00	  648.21	-2075.46	  511.55
     16.2700	  574.00	  647.24	-2130.49	  510.60
     16.3700	  669.00	  646.29	-2034.54	  509.67
     16.4700	  650.00	  645.34	-2052.59	  508.74
     16.5700	  656.00	  644.40	-2045.65	  507.82
     16.6700	  607.00	  643.48	-2093.73	  506.91
     16.7700	  605.00	  642.56	-2094.81	  506.01
     16.8700	  664.00	  641.65	-2034.90	  505.12
     16.9700	  634.00	  640.76	-2064.01	  504.24
     17.0700	  683.00	  639.87	-2014.12	  503.37
     17.1700	  654.00	  639.00	-2042.25	  502.50
     17.2700	  681.00	  638.13	-2014.38	  501.65
     17.3700	  628.00	  637.27	-2066.52	  500.80
     17.4700	  655.00	  636.42	-2038.67	  499.96
     17.5700	  616.00	  635.59	-2076.84	  499.13
     17.6700	  589.00	  634.76	-2103.01	  498.31
     17.7700	  652.00	  633.94	-2039.19	  497.50
     17.8700	  637.00	  633.13	-2053.38	  496.70
     17.9700	  637.00	  632.32	-2052.57	  495.90
     18.0700	  634.00	  631.53	-2054.78	  495.11
     18.1700	  646.00	  630.75	-2042.00	  494.33
     18.2700	  597.00	  629.97	-2090.22	  493.56
     18.3700	  653.00	  629.20	-2033.45	  492.80
     18.4700	  625.00	  628.45	-2060.70	  492.05
     18.5700	  650.00	  627.70	-2034.95	  491.30
     18.6700	  669.00	  626.95	-2015.20	  490.56
     18.7700	  611.00	  626.22	-2072.47	  489.83
     18.8700	  599.00	  625.50	-2083.75	  489.11
     18.9700	  633.00	  624.78	-2049.03	  488.39
     19.0700	  650.00	  627.14	-2034.39	  487.68
     19.1700	  672.00	  626.50	-2011.75	  486.99
     19.2700	  644.00	  625.88	-2039.13	  486.29
     19.3700	  620.00	  625.26	-2062.51	  485.61
     19.4700	  632.00	  624.66	-2049.91	  484.93
     19.5700	  657.00	  624.07	-2024.32	  484.26
     19.6700	  590.00	  623.48	-2090.73	  483.60
     19.7700	  680.00	  622.91	-2000.16	  482.95
     19.8700	  610.00	  622.35	-2069.60	  482.30
     19.9700	  601.00	  621.79	-2078.04	  481.66
     20.0700	  618.00	  621.25	-2060.50	  481.03
     20.1700	  630.00	  620.72	-2047.97	  480.41
     20.2700	  636.00	  620.26	-2041.51	  479.79
     20.3700	  581.00	  619.75	-2096.00	  479.18
     20.4700	  622.00	  619.26	-2054.51	  478.58
     20.5700	  607.00	  618.77	-2069.02	  477.98
     20.6700	  626.00	  618.30	-2049.55	  477.40
     20.7700	  579.00	  617.84	-2096.09	  476.81
     20.8700	  596.00	  617.39	-2078.64	  476.24
     20.9700	  594.00	  616.96	-2080.21	  475.67
     21.0700	  588.00	  616.54	-2085.79	  475.11
     21.1700	  604.00	  616.13	-2069.38	  474.56
     21.2700	  590.00	  615.73	-2082.98	  474.01
     21.3700	  627.00	  615.35	-2045.60	  473.47
     21.4700	  612.00	  614.98	-2060.23	  472.93
     21.5700	  633.00	  614.63	-2038.88	  472.41
     21.6700	  587.00	  614.29	-2084.54	  471.89
     21.7700	  648.00	  613.97	-2023.22	  471.37
     21.8700	  622.00	  613.66	-2048.91	  470.87
     21.9700	  663.00	  613.37	-2007.62	  470.36
     22.0700	  620.00	  613.10	-2050.35	  469.87
     22.1700	  597.00	  612.85	-2073.10	  469.38
     22.2700	  629.00	  612.62	-2040.87	  468.90
     22.3700	  647.00	  612.40	-2022.65	  468.42
     22.4700	  617.00	  612.42	-2052.67	  467.95
     22.5700	  627.00	  612.26	-2042.51	  467.49
     22.6700	  623.00	  612.12	-2046.37	  467.03
     22.7700	  599.00	  612.01	-2070.26	  466.58
     22.8700	  635.00	  611.94	-2034.19	  466.14
     22.9700	  664.00	  611.89	-2005.14	  465.70
     23.0700	  634.00	  611.89	-2035.14	  465.27
     23.1700	  570.00	  611.92	-2099.17	  464.84
     23.2700	  629.00	  612.01	-2040.26	  464.42
     23.3700	  602.00	  612.14	-2067.39	  464.00
     23.4700	  602.00	  612.35	-2067.60	  463.59
     23.5700	  545.00	  612.62	-2124.87	  463.19
     23.6700	  632.00	  612.99	-2038.24	  462.79
     23.7700	  611.00	  613.48	-2059.73	  462.40
     23.8700	  649.00	  614.12	-2022.37	  462.01
     23.9700	  601.00	  614.99	-2071.24	  461.63
     24.0700	  595.00	  616.20	-2078.45	  461.26
     24.1700	  671.00	  617.92	-2004.17	  460.89
     24.2700	  643.00	  620.43	-2034.68	  460.52
     24.3700	  653.00	  624.05	-2028.30	  460.16
     24.4700	  672.00	  629.31	-2014.56	  459.81
     24.5700	  670.00	  636.49	-2023.74	  459.46
     24.6700	  663.00	  645.61	-2039.86	  459.12
     24.7700	  684.00	  656.13	-2029.38	  458.78
     24.8700	  672.00	  666.63	-2051.88	  458.45
     24.9700	  796.00	  674.46	-1935.71	  458.12
     25.0700	  688.00	  676.16	-2045.41	  457.80
     25.1700	  667.00	  670.19	-2060.44	  457.48
     25.2700	  712.00	  659.67	-2004.92	  457.17
     25.3700	  656.00	  649.26	-2050.51	  456.86
     25.4700	  650.00	  641.43	-2048.68	  456.56
     25.5700	  646.00	  636.44	-2047.69	  456.26
     25.6700	  681.00	  633.91	-2010.16	  455.97
     25.7700	  687.00	  633.19	-2003.44	  455.68
     25.8700	  653.00	  633.70	-2037.95	  455.40
     25.9700	  683.00	  635.07	-2009.32	  455.12
     26.0700	  643.00	  637.11	-2051.36	  454.85
     26.1700	  657.00	  639.74	-2039.99	  454.58
     26.2700	  653.00	  642.96	-2047.21	  454.32
     26.3700	  664.00	  646.82	-2040.07	  454.06
     26.4700	  650.00	  651.40	-2058.65	  453.81
     26.5700	  652.00	  656.81	-2062.06	  453.56
     26.6700	  610.00	  663.21	-2110.46	  453.31
     26.7700	  682.00	  670.82	-2046.07	  453.07
     26.8700	  657.00	  679.91	-2080.16	  452.84
     26.9700	  666.00	  690.86	-2082.11	  452.60
     27.0700	  658.00	  704.19	-2103.44	  452.38
     27.1700	  638.00	  720.61	-2139.86	  452.15
     27.2700	  665.00	  741.17	-2133.42	  451.93
     27.3700	  718.00	  767.54	-2106.79	  451.72
     27.4700	  708.00	  802.82	-2152.07	  451.51
     27.5700	  857.00	  853.57	-2053.82	  451.30
     27.6700	  857.00	  934.26	-2134.51	  451.10
     27.7700	  918.00	 1074.47	-2213.72	  450.90
     27.8700	 1051.00	 1327.44	-2333.69	  450.71
     27.9700	 1386.00	 1774.60	-2445.85	  450.52
     28.0700	 1910.00	 2513.02	-2660.27	  450.34
     28.1700	 3179.00	 3609.87	-2488.12	  450.16
     28.2700	 5221.00	 5012.01	-1848.26	  449.98
     28.3700	 7329.00	 6426.69	-1154.94	  449.80
     28.4700	 8229.00	 7281.37	-1109.62	  449.63
     28.5700	 7560.00	 6997.36	-1494.61	  449.47
     28.6700	 5795.00	 5760.16	-2022.41	  449.31
     28.7700	 4133.00	 4492.24	-2416.49	  449.15
     28.8700	 3489.00	 3804.04	-2372.29	  448.99
     28.9700	 3628.00	 3753.44	-2182.69	  448.84
     29.0700	 4404.00	 4051.53	-1704.78	  448.70
     29.1700	 4504.00	 4259.18	-1812.43	  448.55
     29.2700	 4260.00	 3992.51	-1789.76	  448.41
     29.3700	 3257.00	 3252.31	-2052.56	  448.28
     29.4700	 2272.00	 2407.19	-2192.44	  448.14
     29.5700	 1551.00	 1732.59	-2238.84	  448.01
     29.6700	 1201.00	 1294.10	-2150.35	  447.89
     29.7700	 1055.00	 1045.54	-2047.79	  447.77
     29.8700	  934.00	  912.90	-2036.15	  447.65
     29.9700	  893.00	  839.17	-2003.42	  447.53
     30.0700	  769.00	  793.17	-2081.42	  447.42
     30.1700	  732.00	  761.15	-2086.40	  447.31
     30.2700	  787.00	  737.55	-2007.80	  447.21
     30.3700	  702.00	  720.06	-2075.31	  447.10
     30.4700	  668.00	  707.81	-2097.06	  447.00
     30.5700	  681.00	  700.97	-2077.22	  446.91
     30.6700	  717.00	  700.57	-2040.82	  446.82
     30.7700	  719.00	  708.09	-2046.34	  446.73
     30.8700	  750.00	  724.33	-2031.58	  446.64
     30.9700	  752.00	  747.66	-2052.91	  446.56
     31.0700	  790.00	  772.43	-2039.68	  446.48
     31.1700	  830.00	  788.36	-2015.61	  446.40
     31.2700	  765.00	  783.50	-2075.75	  446.32
     31.3700	  736.00	  755.65	-2076.90	  446.25
     31.4700	  733.00	  717.95	-2042.20	  446.18
     31.5700	  766.00	  683.94	-1975.19	  446.12
     31.6700	  689.00	  658.93	-2027.18	  446.06
     31.7700	  664.00	  642.72	-2035.97	  446.00
     31.8700	  682.00	  632.89	-2008.14	  445.94
     31.9700	  686.00	  626.91	-1998.16	  445.88
     32.0700	  653.00	  623.01	-2027.26	  445.83
     32.1700	  620.00	  620.25	-2057.50	  445.78
     32.2700	  668.00	  618.18	-2007.43	  445.74
     32.3700	  628.00	  616.61	-2045.86	  445.69
     32.4700	  626.00	  615.45	-2046.70	  445.65
     32.5700	  656.00	  614.67	-2015.92	  445.61
     32.6700	  627.00	  614.24	-2044.49	  445.58
     32.7700	  595.00	  614.18	-2076.43	  445.54
     32.8700	  641.00	  614.54	-2030.79	  445.51
     32.9700	  591.00	  615.32	-2081.57	  445.48
     33.0700	  629.00	  616.65	-2044.90	  445.46
     33.1700	  662.00	  618.66	-2013.91	  445.43
     33.2700	  620.00	  621.62	-2058.87	  445.41
     33.3700	  629.00	  626.04	-2054.29	  445.39
     33.4700	  625.00	  632.90	-2065.15	  445.38
     33.5700	  650.00	  644.13	-2051.38	  445.36
     33.6700	  670.00	  663.14	-2050.39	  445.35
     33.7700	  707.00	  695.22	-2045.47	  445.34
     33.8700	  801.00	  746.87	-2003.12	  445.33
     33.9700	  859.00	  823.10	-2021.35	  445.33
     34.0700	  913.00	  922.30	-2066.55	  445.33
     34.1700	 1120.00	 1030.55	-1967.80	  445.32
     34.2700	 1214.00	 1118.92	-1962.17	  445.33
     34.3700	 1279.00	 1148.43	-1926.68	  445.33
     34.4700	 1145.00	 1096.70	-2008.95	  445.33
     34.5700	 1000.00	  989.26	-2046.51	  445.34
     34.6700	  841.00	  873.68	-2089.93	  445.35
     34.7700	  750.00	  778.69	-2085.94	  445.36
     34.8700	  772.00	  711.93	-1997.18	  445.37
     34.9700	  687.00	  669.87	-2040.12	  445.39
     35.0700	  687.00	  645.10	-2015.35	  445.41
     35.1700	  680.00	  630.66	-2007.91	  445.43
     35.2700	  696.00	  621.79	-1983.04	  445.45
     35.3700	  603.00	  615.85	-2070.10	  445.47
     35.4700	  681.00	  611.54	-1987.79	  445.49
     35.5700	  632.00	  608.24	-2033.49	  445.52
     35.6700	  579.00	  605.65	-2083.90	  445.55
     35.7700	  614.00	  603.58	-2046.83	  445.58
     35.8700	  641.00	  601.91	-2018.16	  445.61
     35.9700	  648.00	  600.56	-2009.81	  445.64
     36.0700	  584.00	  599.46	-2072.71	  445.68
     36.1700	  629.00	  598.58	-2026.83	  445.71
     36.2700	  564.00	  597.89	-2091.14	  445.75
     36.3700	  614.00	  597.36	-2040.61	  445.79
     36.4700	  638.00	  596.98	-2016.23	  445.83
     36.5700	  580.00	  596.75	-2074.00	  445.87
     36.6700	  612.00	  596.66	-2041.91	  445.92
     36.7700	  584.00	  596.73	-2069.98	  445.96
     36.8700	  619.00	  597.01	-2035.26	  446.01
     36.9700	  617.00	  597.45	-2037.70	  446.06
     37.0700	  598.00	  598.33	-2057.58	  446.11
     37.1700	  600.00	  599.85	-2057.10	  446.16
     37.2700	  616.00	  601.37	-2042.62	  446.21
     37.3700	  615.00	  603.64	-2045.89	  446.26
     37.4700	  596.00	  607.11	-2068.36	  446.32
     37.5700	  674.00	  612.52	-1995.77	  446.38
     37.6700	  654.00	  621.05	-2024.30	  446.43
     37.7700	  639.00	  634.20	-2052.45	  446.49
     37.8700	  637.00	  653.53	-2073.78	  446.55
     37.9700	  662.00	  679.84	-2075.09	  446.61
     38.0700	  677.00	  710.15	-2090.40	  446.68
     38.1700	  718.00	  743.95	-2083.20	  446.74
     38.2700	  741.00	  771.50	-2087.75	  446.80
     38.3700	  766.00	  782.15	-2073.40	  446.87
     38.4700	  706.00	  768.80	-2120.05	  446.94
     38.5700	  721.00	  736.67	-2072.92	  447.01
     38.6700	  665.00	  698.96	-2091.21	  447.08
     38.7700	  666.00	  665.51	-2056.76	  447.15
     38.8700	  662.00	  640.11	-2035.36	  447.22
     38.9700	  665.00	  622.81	-2015.06	  447.29
     39.0700	  636.00	  611.90	-2033.15	  447.36
     39.1700	  587.00	  605.30	-2075.55	  447.44
     39.2700	  627.00	  601.29	-2031.54	  447.51
     39.3700	  599.00	  598.71	-2056.96	  447.59
     39.4700	  555.00	  595.84	-2098.09	  447.66
     39.5700	  607.00	  594.56	-2044.81	  447.74
     39.6700	  647.00	  593.59	-2003.84	  447.82
     39.7700	  591.00	  592.83	-2059.08	  447.90
     39.8700	  622.00	  592.24	-2027.49	  447.98
     39.9700	  583.00	  591.77	-2066.02	  448.06
     40.0700	  573.00	  591.41	-2075.66	  448.14
     40.1700	  571.00	  591.14	-2077.39	  448.23
     40.2700	  575.00	  590.93	-2073.18	  448.31
     40.3700	  590.00	  590.79	-2058.04	  448.39
     40.4700	  615.00	  590.69	-2032.94	  448.48
     40.5700	  549.00	  590.65	-2098.90	  448.56
     40.6700	  606.00	  590.64	-2041.89	  448.65
     40.7700	  595.00	  591.21	-2053.46	  448.74
     40.8700	  579.00	  591.29	-2069.54	  448.82
     40.9700	  619.00	  591.41	-2029.66	  448.91
     41.0700	  597.00	  591.57	-2051.82	  449.00
     41.1700	  609.00	  591.78	-2040.03	  449.09
     41.2700	  581.00	  592.03	-2068.28	  449.18
     41.3700	  587.00	  592.39	-2062.64	  449.27
     41.4700	  581.00	  592.77	-2069.02	  449.36
     41.5700	  603.00	  593.21	-2047.46	  449.45
     41.6700	  589.00	  593.76	-2062.01	  449.54
     41.7700	  567.00	  594.42	-2084.67	  449.63
     41.8700	  611.00	  595.24	-2041.49	  449.73
     41.9700	  598.00	  596.32	-2055.57	  449.82
     42.0700	  593.00	  597.79	-2062.04	  449.91
     42.1700	  573.00	  599.93	-2084.18	  450.01
     42.2700	  545.00	  603.23	-2115.48	  450.10
     42.3700	  574.00	  608.39	-2091.64	  450.20
     42.4700	  610.00	  616.48	-2063.73	  450.29
     42.5700	  617.00	  628.44	-2068.69	  450.39
     42.6700	  614.00	  644.84	-2088.09	  450.48
     42.7700	  664.00	  665.09	-2058.34	  450.58
     42.8700	  653.00	  686.67	-2090.92	  450.67
     42.9700	  669.00	  704.58	-2092.83	  450.77
     43.0700	  697.00	  712.32	-2072.57	  450.87
     43.1700	  663.00	  705.97	-2100.22	  450.96
     43.2700	  656.00	  688.41	-2089.66	  451.06
     43.3700	  684.00	  666.65	-2039.90	  451.16
     43.4700	  636.00	  646.35	-2067.60	  451.25
     43.5700	  632.00	  630.04	-2055.29	  451.35
     43.6700	  636.00	  618.21	-2039.46	  451.45
     43.7700	  614.00	  610.36	-2053.61	  451.55
     43.8700	  603.00	  605.44	-2059.69	  451.64
     43.9700	  602.00	  602.44	-2057.69	  451.74
     44.0700	  609.00	  600.80	-2049.05	  451.84
     44.1700	  623.00	  599.63	-2033.88	  451.94
     44.2700	  641.00	  598.85	-2015.10	  452.04
     44.3700	  578.00	  598.31	-2077.56	  452.13
     44.4700	  592.00	  597.93	-2063.18	  452.23
     44.5700	  609.00	  597.67	-2045.92	  452.33
     44.6700	  595.00	  597.50	-2059.75	  452.43
     44.7700	  607.00	  597.40	-2047.65	  452.53
     44.8700	  608.00	  597.37	-2046.62	  452.62
     44.9700	  600.00	  597.38	-2054.63	  452.72
     45.0700	  591.00	  597.71	-2063.96	  452.82
     45.1700	  608.00	  597.81	-2047.06	  452.92
     45.2700	  582.00	  597.95	-2073.20	  453.02
     45.3700	  592.00	  598.12	-2063.37	  453.11
     45.4700	  567.00	  598.32	-2088.57	  453.21
     45.5700	  591.00	  598.55	-2064.80	  453.31
     45.6700	  591.00	  598.81	-2065.06	  453.40
     45.7700	  594.00	  599.11	-2062.36	  453.50
     45.8700	  636.00	  599.52	-2020.77	  453.60
     45.9700	  607.00	  599.87	-2050.12	  453.70
     46.0700	  636.00	  600.26	-2021.51	  453.79
     46.1700	  591.00	  600.69	-2066.94	  453.89
     46.2700	  688.00	  601.15	-1970.40	  453.98
     46.3700	  603.00	  601.66	-2055.91	  454.08
     46.4700	  596.00	  602.03	-2063.28	  454.18
     46.5700	  665.00	  602.65	-1994.90	  454.27
     46.6700	  599.00	  603.48	-2061.73	  454.37
     46.7700	  584.00	  604.25	-2077.50	  454.46
     46.8700	  603.00	  605.12	-2059.37	  454.56
     46.9700	  577.00	  606.11	-2086.36	  454.65
     47.0700	  588.00	  607.27	-2076.52	  454.74
     47.1700	  608.00	  608.68	-2057.94	  454.84
     47.2700	  592.00	  610.45	-2075.70	  454.93
     47.3700	  581.00	  612.82	-2089.07	  455.02
     47.4700	  635.00	  616.17	-2038.42	  455.12
     47.5700	  609.00	  621.01	-2069.26	  455.21
     47.6700	  602.00	  628.00	-2083.25	  455.30
     47.7700	  639.00	  637.78	-2056.03	  455.39
     47.8700	  661.00	  650.69	-2046.94	  455.48
     47.9700	  655.00	  666.44	-2068.69	  455.57
     48.0700	  680.00	  683.63	-2060.88	  455.66
     48.1700	  692.00	  699.38	-2064.63	  455.75
     48.2700	  675.00	  709.51	-2091.76	  455.84
     48.3700	  707.00	  710.54	-2060.79	  455.93
     48.4700	  664.00	  702.65	-2095.90	  456.02
     48.5700	  662.00	  689.71	-2084.96	  456.10
     48.6700	  668.00	  676.48	-2065.73	  456.19
     48.7700	  595.00	  664.91	-2127.16	  456.28
     48.8700	  678.00	  656.66	-2035.91	  456.36
     48.9700	  635.00	  652.01	-2074.26	  456.45
     49.0700	  619.00	  650.66	-2088.91	  456.53
     49.1700	  629.00	  652.14	-2080.39	  456.62
     49.2700	  640.00	  656.07	-2073.32	  456.70
     49.3700	  688.00	  662.36	-2031.61	  456.79
     49.4700	  676.00	  671.42	-2052.67	  456.87
     49.5700	  662.00	  684.70	-2079.96	  456.95
     49.6700	  716.00	  705.76	-2047.01	  457.03
     49.7700	  747.00	  742.26	-2052.51	  457.11
     49.8700	  813.00	  808.71	-2052.96	  457.19
     49.9700	  930.00	  928.25	-2055.50	  457.27
     50.0700	 1135.00	 1130.37	-2052.62	  457.35
     50.1700	 1515.00	 1440.68	-1982.93	  457.43
     50.2700	 1998.00	 1862.69	-1921.94	  457.51
     50.3700	 2425.00	 2356.89	-1989.14	  457.59
     50.4700	 2926.00	 2826.90	-1958.15	  457.66
     50.5700	 3109.00	 3129.48	-2077.73	  457.74
     50.6700	 3091.00	 3137.39	-2103.64	  457.81
     50.7700	 2803.00	 2844.15	-2098.40	  457.89
     50.8700	 2268.00	 2375.93	-2165.18	  457.96
     50.9700	 1787.00	 1882.52	-2152.77	  458.03
     51.0700	 1440.00	 1463.32	-2080.57	  458.11
     51.1700	 1083.00	 1158.20	-2132.45	  458.18
     51.2700	  949.00	  963.95	-2072.20	  458.25
     51.3700	  881.00	  853.82	-2030.07	  458.32
     51.4700	  838.00	  796.35	-2015.60	  458.39
     51.5700	  772.00	  765.96	-2051.21	  458.46
     51.6700	  711.00	  746.61	-2092.86	  458.52
     51.7700	  701.00	  730.59	-2086.84	  458.59
     51.8700	  709.00	  716.04	-2064.29	  458.66
     51.9700	  733.00	  703.39	-2027.64	  458.72
     52.0700	  745.00	  693.22	-2005.47	  458.79
     52.1700	  720.00	  685.60	-2022.85	  458.85
     52.2700	  732.00	  680.06	-2005.31	  458.91
     52.3700	  710.00	  675.89	-2023.14	  458.97
     52.4700	  672.00	  672.57	-2057.82	  459.04
     52.5700	  676.00	  670.14	-2051.39	  459.10
     52.6700	  673.00	  669.07	-2053.32	  459.16
     52.7700	  666.00	  669.98	-2061.23	  459.21
     52.8700	  697.00	  673.67	-2033.92	  459.27
     52.9700	  725.00	  681.34	-2013.59	  459.33
     53.0700	  688.00	  694.78	-2064.03	  459.39
     53.1700	  741.00	  716.57	-2032.82	  459.44
     53.2700	  765.00	  749.93	-2042.18	  459.49
     53.3700	  773.00	  798.20	-2082.45	  459.55
     53.4700	  848.00	  863.79	-2073.04	  459.60
     53.5700	  925.00	  946.72	-2078.97	  459.65
     53.6700	 1079.00	 1042.87	-2021.12	  459.70
     53.7700	 1190.00	 1142.06	-2009.31	  459.75
     53.8700	 1267.00	 1226.14	-2016.39	  459.80
     53.9700	 1280.00	 1272.19	-2049.44	  459.85
     54.0700	 1227.00	 1263.60	-2093.85	  459.90
     54.1700	 1259.00	 1203.55	-2001.80	  459.94
     54.2700	 1147.00	 1112.48	-2022.73	  459.99
     54.3700	  964.00	 1013.10	-2106.35	  460.03
     54.4700	  976.00	  921.01	-2002.26	  460.08
     54.5700	  843.00	  844.17	-2058.42	  460.12
     54.6700	  763.00	  785.11	-2079.36	  460.16
     54.7700	  707.00	  742.76	-2093.01	  460.20
     54.8700	  656.00	  714.19	-2115.44	  460.24
     54.9700	  696.00	  695.88	-2057.13	  460.28
     55.0700	  735.00	  684.66	-2006.91	  460.32
     55.1700	  664.00	  678.11	-2071.36	  460.35
     55.2700	  672.00	  674.61	-2059.86	  460.39
     55.3700	  663.00	  673.18	-2067.43	  460.42
     55.4700	  640.00	  673.30	-2090.55	  460.46
     55.5700	  665.00	  674.73	-2066.98	  460.49
     55.6700	  644.00	  677.40	-2090.65	  460.52
     55.7700	  670.00	  681.37	-2068.62	  460.55
     55.8700	  639.00	  686.86	-2105.11	  460.58
     55.9700	  645.00	  694.25	-2106.50	  460.61
     56.0700	  681.00	  704.32	-2080.57	  460.64
     56.1700	  688.00	  718.58	-2087.83	  460.66
     56.2700	  764.00	  739.81	-2033.06	  460.69
     56.3700	  730.00	  772.87	-2100.12	  460.71
     56.4700	  851.00	  825.47	-2031.72	  460.74
     56.5700	  902.00	  908.49	-2063.74	  460.76
     56.6700	  979.00	 1035.05	-2113.30	  460.78
     56.7700	 1279.00	 1217.52	-1995.77	  460.80
     56.8700	 1483.00	 1462.80	-2037.05	  460.82
     56.9700	 1850.00	 1766.08	-1973.33	  460.84
     57.0700	 2162.00	 2104.51	-1999.76	  460.85
     57.1700	 2441.00	 2432.17	-2048.42	  460.87
     57.2700	 2684.00	 2679.38	-2052.63	  460.88
     57.3700	 2732.00	 2771.77	-2097.02	  460.90
     57.4700	 2625.00	 2675.22	-2107.47	  460.91
     57.5700	 2366.00	 2425.08	-2116.33	  460.92
     57.6700	 2048.00	 2097.07	-2106.32	  460.93
     57.7700	 1769.00	 1761.01	-2049.26	  460.94
     57.8700	 1443.00	 1462.11	-2076.36	  460.95
     57.9700	 1163.00	 1222.40	-2116.65	  460.96
     58.0700	  947.00	 1046.43	-2156.68	  460.96
     58.1700	  906.00	  927.52	-2078.77	  460.97
     58.2700	  786.00	  854.28	-2125.53	  460.97
     58.3700	  826.00	  815.57	-2046.82	  460.98
     58.4700	  812.00	  803.52	-2048.77	  460.98
     58.5700	  823.00	  814.11	-2048.36	  460.98
     58.6700	  862.00	  846.13	-2041.38	  460.98
     58.7700	  874.00	  899.49	-2082.74	  460.98
     58.8700	  951.00	  972.56	-2078.81	  460.98
     58.9700	 1052.00	 1060.40	-2065.65	  460.97
     59.0700	 1141.00	 1153.38	-2069.63	  460.97
     59.1700	 1255.00	 1237.98	-2040.23	  460.96
     59.2700	 1312.00	 1302.03	-2047.28	  460.96
     59.3700	 1267.00	 1340.79	-2131.04	  460.95
     59.4700	 1351.00	 1355.08	-2061.33	  460.94
     59.5700	 1291.00	 1345.14	-2111.39	  460.93
     59.6700	 1264.00	 1312.65	-2105.90	  460.92
     59.7700	 1282.00	 1266.65	-2041.90	  460.90
     59.8700	 1300.00	 1221.93	-1979.18	  460.89
     59.9700	 1226.00	 1191.70	-2022.95	  460.88
     60.0700	 1296.00	 1184.33	-1945.58	  460.86
     60.1700	 1287.00	 1204.81	-1975.06	  460.84
     60.2700	 1319.00	 1256.25	-1994.50	  460.83
     60.3700	 1403.00	 1337.98	-1992.23	  460.81
     60.4700	 1487.00	 1441.43	-2011.68	  460.79
     60.5700	 1524.00	 1547.50	-2080.75	  460.76
     60.6700	 1641.00	 1627.33	-2043.58	  460.74
     60.7700	 1527.00	 1649.95	-2180.20	  460.72
     60.8700	 1543.00	 1599.21	-2113.46	  460.69
     60.9700	 1433.00	 1485.95	-2110.20	  460.67
     61.0700	 1284.00	 1338.90	-2112.15	  460.64
     61.1700	 1143.00	 1186.89	-2101.14	  460.61
     61.2700	 1020.00	 1050.51	-2087.76	  460.58
     61.3700	  925.00	  941.09	-2073.34	  460.55
     61.4700	  824.00	  862.47	-2095.72	  460.52
     61.5700	  812.00	  813.63	-2058.88	  460.49
     61.6700	  825.00	  791.68	-2023.93	  460.46
     61.7700	  832.00	  794.52	-2019.77	  460.42
     61.8700	  845.00	  822.31	-2034.56	  460.38
     61.9700	  898.00	  877.54	-2036.79	  460.35
     62.0700	 1011.00	  963.54	-2009.79	  460.31
     62.1700	 1139.00	 1082.16	-2000.41	  460.27
     62.2700	 1262.00	 1230.64	-2025.89	  460.23
     62.3700	 1443.00	 1399.05	-2013.30	  460.19
     62.4700	 1613.00	 1568.21	-2012.46	  460.15
     62.5700	 1740.00	 1709.22	-2026.47	  460.10
     62.6700	 1760.00	 1788.18	-2085.43	  460.06
     62.7700	 1741.00	 1780.73	-2096.98	  460.01
     62.8700	 1639.00	 1688.89	-2107.14	  459.96
     62.9700	 1493.00	 1539.54	-2103.79	  459.92
     63.0700	 1341.00	 1366.72	-2082.97	  459.87
     63.1700	 1222.00	 1197.89	-2033.14	  459.82
     63.2700	 1020.00	 1050.59	-2087.84	  459.76
     63.3700	  863.00	  933.12	-2127.37	  459.71
     63.4700	  807.00	  846.59	-2096.84	  459.66
     63.5700	  792.00	  787.36	-2052.61	  459.60
     63.6700	  776.00	  749.66	-2030.91	  459.55
     63.7700	  759.00	  727.59	-2025.84	  459.49
     63.8700	  709.00	  716.48	-2064.73	  459.43
     63.9700	  751.00	  713.43	-2019.68	  459.37
     64.0700	  759.00	  717.34	-2015.59	  459.31
     64.1700	  725.00	  728.18	-2060.43	  459.25
     64.2700	  766.00	  748.81	-2040.06	  459.19
     64.3700	  749.00	  781.65	-2089.90	  459.12
     64.4700	  892.00	  830.23	-1995.48	  459.06
     64.5700	  915.00	  897.96	-2040.21	  458.99
     64.6700	  978.00	  987.01	-2066.26	  458.92
     64.7700	 1081.00	 1096.92	-2073.17	  458.86
     64.8700	 1226.00	 1223.14	-2054.39	  458.79
     64.9700	 1435.00	 1355.66	-1977.91	  458.72
     65.0700	 1458.00	 1478.77	-2078.02	  458.65
     65.1700	 1565.00	 1573.20	-2065.45	  458.57
     65.2700	 1580.00	 1621.12	-2098.37	  458.50
     65.3700	 1525.00	 1612.16	-2144.41	  458.42
     65.4700	 1567.00	 1548.45	-2038.70	  458.35
     65.5700	 1386.00	 1444.29	-2115.54	  458.27
     65.6700	 1313.00	 1320.39	-2064.64	  458.19
     65.7700	 1170.00	 1195.26	-2082.51	  458.12
     65.8700	 1003.00	 1080.73	-2134.98	  458.04
     65.9700	  926.00	  983.18	-2114.43	  457.95
     66.0700	  886.00	  904.25	-2075.50	  457.87
     66.1700	  810.00	  843.06	-2090.31	  457.79
     66.2700	  813.00	  797.08	-2041.33	  457.71
     66.3700	  734.00	  763.59	-2086.84	  457.62
     66.4700	  687.00	  739.74	-2109.99	  457.53
     66.5700	  713.00	  723.06	-2067.31	  457.45
     66.6700	  639.00	  711.67	-2129.92	  457.36
     66.7700	  666.00	  704.32	-2095.57	  457.27
     66.8700	  689.00	  700.20	-2068.45	  457.18
     66.9700	  658.00	  698.86	-2098.11	  457.09
     67.0700	  625.00	  700.19	-2132.44	  456.99
     67.1700	  657.00	  704.39	-2104.65	  456.90
     67.2700	  681.00	  712.29	-2088.54	  456.81
     67.3700	  720.00	  725.14	-2062.39	  456.71
     67.4700	  775.00	  745.60	-2027.85	  456.61
     67.5700	  776.00	  777.25	-2058.50	  456.52
     67.6700	  856.00	  825.51	-2026.76	  456.42
     67.7700	  888.00	  897.00	-2066.25	  456.32
     67.8700	 1044.00	  998.99	-2012.24	  456.22
     67.9700	 1202.00	 1137.95	-1993.20	  456.12
     68.0700	 1354.00	 1317.63	-2020.88	  456.01
     68.1700	 1633.00	 1536.58	-1960.83	  455.91
     68.2700	 1828.00	 1786.00	-2015.25	  455.81
     68.3700	 2108.00	 2047.87	-1997.12	  455.70
     68.4700	 2378.00	 2293.61	-1972.86	  455.59
     68.5700	 2511.00	 2485.13	-2031.38	  455.49
     68.6700	 2584.00	 2582.41	-2055.66	  455.38
     68.7700	 2499.00	 2560.65	-2118.90	  455.27
     68.8700	 2496.00	 2425.53	-1986.78	  455.16
     68.9700	 2168.00	 2209.57	-2098.82	  455.05
     69.0700	 1982.00	 1953.66	-2028.91	  454.93
     69.1700	 1696.00	 1692.95	-2054.20	  454.82
     69.2700	 1488.00	 1452.23	-2021.48	  454.71
     69.3700	 1214.00	 1246.09	-2089.34	  454.59
     69.4700	 1088.00	 1080.44	-2049.69	  454.48
     69.5700	  966.00	  954.59	-2045.84	  454.36
     69.6700	  930.00	  863.56	-1990.81	  454.24
     69.7700	  888.00	  800.37	-1969.62	  454.12
     69.8700	  866.00	  757.83	-1949.08	  454.00
     69.9700	  774.00	  729.66	-2012.91	  453.88
     70.0700	  736.00	  711.03	-2032.28	  453.76
     70.1700	  731.00	  698.54	-2024.79	  453.64
     70.2700	  688.00	  689.98	-2059.23	  453.51
     70.3700	  714.00	  684.00	-2027.25	  453.39
     70.4700	  671.00	  679.85	-2066.10	  453.27
     70.5700	  684.00	  677.07	-2050.32	  453.14
     70.6700	  731.00	  675.47	-2001.72	  453.01
     70.7700	  708.00	  674.97	-2024.22	  452.88
     70.8700	  724.00	  675.63	-2008.88	  452.76
     70.9700	  744.00	  677.63	-1990.88	  452.63
     71.0700	  684.00	  681.35	-2054.60	  452.50
     71.1700	  729.00	  687.25	-2015.50	  452.37
     71.2700	  677.00	  696.83	-2077.08	  452.23
     71.3700	  731.00	  711.60	-2037.85	  452.10
     71.4700	  784.00	  733.99	-2007.24	  451.97
     71.5700	  789.00	  767.28	-2035.53	  451.83
     71.6700	  798.00	  815.42	-2074.67	  451.70
     71.7700	  902.00	  882.68	-2037.93	  451.56
     71.8700	 1017.00	  972.99	-2013.24	  451.42
     71.9700	 1060.00	 1088.90	-2086.15	  451.29
     72.0700	 1237.00	 1230.36	-2050.61	  451.15
     72.1700	 1368.00	 1393.64	-2082.89	  451.01
     72.2700	 1474.00	 1570.28	-2153.53	  450.87
     72.3700	 1745.00	 1746.36	-2058.61	  450.73
     72.4700	 1871.00	 1902.12	-2088.37	  450.59
     72.5700	 1923.00	 2013.64	-2147.89	  450.44
     72.6700	 2045.00	 2058.92	-2071.17	  450.30
     72.7700	 2046.00	 2027.55	-2038.80	  450.16
     72.8700	 1892.00	 1926.73	-2091.98	  450.01
     72.9700	 1791.00	 1777.81	-2044.06	  449.87
     73.0700	 1539.00	 1603.50	-2121.75	  449.72
     73.1700	 1368.00	 1425.26	-2114.51	  449.57
     73.2700	 1164.00	 1258.08	-2151.33	  449.43
     73.3700	 1123.00	 1111.30	-2045.55	  449.28
     73.4700	  980.00	  989.43	-2066.68	  449.13
     73.5700	  842.00	  893.07	-2108.32	  448.98
     73.6700	  802.00	  820.11	-2075.36	  448.83
     73.7700	  848.00	  766.86	-1976.11	  448.68
     73.8700	  776.00	  729.14	-2010.39	  448.52
     73.9700	  670.00	  703.00	-2090.25	  448.37
     74.0700	  702.00	  684.61	-2039.86	  448.22
     74.1700	  734.00	  672.50	-1995.75	  448.06
     74.2700	  688.00	  664.40	-2033.65	  447.91
     74.3700	  647.00	  659.17	-2069.42	  447.75
     74.4700	  626.00	  656.12	-2087.37	  447.60
     74.5700	  652.00	  654.79	-2060.04	  447.44
     74.6700	  639.00	  654.89	-2073.14	  447.28
     74.7700	  665.00	  656.14	-2048.39	  447.13
     74.8700	  657.00	  658.23	-2058.48	  446.97
     74.9700	  666.00	  660.74	-2051.99	  446.81
     75.0700	  711.00	  663.31	-2009.56	  446.65
     75.1700	  719.00	  665.31	-2003.56	  446.49
     75.2700	  752.00	  666.22	-1971.47	  446.33
     75.3700	  755.00	  665.71	-1967.96	  446.17
     75.4700	  739.00	  663.86	-1982.11	  446.00
     75.5700	  694.00	  661.16	-2024.41	  445.84
     75.6700	  722.00	  658.35	-1993.60	  445.68
     75.7700	  633.00	  656.18	-2080.43	  445.52
     75.8700	  679.00	  655.69	-2033.94	  445.35
     75.9700	  678.00	  657.69	-2036.94	  445.19
     76.0700	  668.00	  663.18	-2052.43	  445.02
     76.1700	  687.00	  673.19	-2043.44	  444.85
     76.2700	  710.00	  688.73	-2035.98	  444.69
     76.3700	  702.00	  710.73	-2065.98	  444.52
     76.4700	  750.00	  739.76	-2047.01	  444.35
     76.5700	  791.00	  775.91	-2042.16	  444.19
     76.6700	  820.00	  818.50	-2055.75	  444.02
     76.7700	  817.00	  865.93	-2106.18	  443.85
     76.8700	  919.00	  915.46	-2053.71	  443.68
     76.9700	  915.00	  963.12	-2105.37	  443.51
     77.0700	  977.00	 1003.72	-2083.97	  443.34
     77.1700	  983.00	 1031.46	-2105.71	  443.17
     77.2700	  951.00	 1041.39	-2147.64	  443.00
     77.3700	  996.00	 1031.43	-2092.68	  442.82
     77.4700	  974.00	 1003.48	-2086.73	  442.65
     77.5700	  941.00	  962.37	-2078.62	  442.48
     77.6700	  892.00	  913.71	-2078.96	  442.31
     77.7700	  833.00	  863.06	-2087.31	  442.13
     77.8700	  850.00	  814.21	-2021.46	  441.96
     77.9700	  748.00	  769.88	-2079.13	  441.78
     78.0700	  732.00	  731.67	-2056.92	  441.61
     78.1700	  674.00	  700.18	-2083.43	  441.43
     78.2700	  661.00	  675.28	-2071.53	  441.26
     78.3700	  655.00	  656.28	-2058.53	  441.08
     78.4700	  697.00	  642.24	-2002.49	  440.91
     78.5700	  645.00	  632.15	-2044.40	  440.73
     78.6700	  636.00	  625.02	-2046.27	  440.55
     78.7700	  634.00	  620.06	-2043.31	  440.37
     78.8700	  635.00	  616.62	-2038.87	  440.20
     78.9700	  648.00	  614.19	-2023.44	  440.02
     79.0700	  619.00	  612.56	-2050.81	  439.84
     79.1700	  615.00	  611.48	-2053.73	  439.66
     79.2700	  623.00	  610.83	-2045.08	  439.48
     79.3700	  608.00	  610.54	-2059.79	  439.30
     79.4700	  646.00	  610.60	-2021.85	  439.12
     79.5700	  579.00	  611.03	-2089.28	  438.94
     79.6700	  611.00	  611.85	-2058.10	  438.76
     79.7700	  607.00	  613.14	-2063.39	  438.58
     79.8700	  642.00	  615.00	-2030.25	  438.40
     79.9700	  622.00	  617.62	-2052.87	  438.22
     80.0700	  636.00	  621.26	-2042.51	  438.04
     80.1700	  632.00	  626.32	-2051.57	  437.86
     80.2700	  633.00	  633.41	-2057.66	  437.68
     80.3700	  689.00	  643.41	-2011.66	  437.50
     80.4700	  621.00	  657.26	-2093.51	  437.32
     80.5700	  719.00	  676.96	-2015.21	  437.13
     80.6700	  724.00	  704.00	-2037.25	  436.95
     80.7700	  789.00	  740.26	-2008.51	  436.77
     80.8700	  805.00	  787.49	-2039.74	  436.59
     80.9700	  897.00	  846.95	-2007.20	  436.40
     81.0700	 1004.00	  919.03	-1972.28	  436.22
     81.1700	  993.00	 1002.73	-2066.98	  436.04
     81.2700	 1176.00	 1095.29	-1976.54	  435.85
     81.3700	 1240.00	 1192.01	-2009.26	  435.67
     81.4700	 1316.00	 1286.18	-2027.43	  435.49
     81.5700	 1424.00	 1369.74	-2002.99	  435.30
     81.6700	 1488.00	 1434.51	-2003.76	  435.12
     81.7700	 1491.00	 1474.24	-2040.49	  434.94
     81.8700	 1518.00	 1485.95	-2025.20	  434.75
     81.9700	 1446.00	 1470.04	-2081.29	  434.57
     82.0700	 1402.00	 1429.52	-2084.77	  434.38
     82.1700	 1358.00	 1369.52	-2068.77	  434.20
     82.2700	 1287.00	 1296.46	-2066.71	  434.02
     82.3700	 1228.00	 1216.85	-2046.10	  433.83
     82.4700	 1110.00	 1136.31	-2083.56	  433.65
     82.5700	 1044.00	 1059.10	-2072.35	  433.46
     82.6700	  968.00	  988.25	-2077.50	  433.28
     82.7700	  937.00	  925.52	-2045.77	  433.09
     82.8700	  839.00	  871.48	-2089.73	  432.91
     82.9700	  806.00	  825.68	-2076.93	  432.73
     83.0700	  788.00	  787.07	-2056.32	  432.54
     83.1700	  752.00	  754.47	-2059.72	  432.36
     83.2700	  656.00	  726.91	-2128.16	  432.17
     83.3700	  669.00	  703.76	-2092.01	  431.99
     83.4700	  614.00	  684.65	-2127.90	  431.80
     83.5700	  654.00	  669.35	-2072.60	  431.62
     83.6700	  662.00	  657.70	-2052.95	  431.44
     83.7700	  613.00	  649.57	-2093.82	  431.25
     83.8700	  670.00	  644.79	-2032.04	  431.07
     83.9700	  625.00	  643.14	-2075.39	  430.88
     84.0700	  607.00	  644.28	-2094.53	  430.70
     84.1700	  693.00	  647.71	-2011.96	  430.52
     84.2700	  628.00	  652.71	-2081.96	  430.33
     84.3700	  650.00	  658.78	-2066.03	  430.15
     84.4700	  651.00	  664.92	-2071.17	  429.97
     84.5700	  662.00	  670.08	-2065.33	  429.78
     84.6700	  642.00	  673.49	-2088.74	  429.60
     84.7700	  652.00	  674.30	-2079.55	  429.42
     84.8700	  678.00	  672.14	-2051.39	  429.24
     84.9700	  647.00	  667.19	-2077.44	  429.05
     85.0700	  628.00	  660.02	-2089.27	  428.87
     85.1700	  651.00	  651.46	-2057.71	  428.69
     85.2700	  646.00	  642.30	-2053.55	  428.51
     85.3700	  592.00	  633.27	-2098.52	  428.33
     85.4700	  664.00	  624.94	-2018.19	  428.14
     85.5700	  598.00	  617.75	-2077.00	  427.96
     85.6700	  651.00	  611.98	-2018.23	  427.78
     85.7700	  621.00	  607.84	-2044.09	  427.60
     85.8700	  625.00	  605.40	-2037.65	  427.42
     85.9700	  615.00	  604.71	-2046.96	  427.24
     86.0700	  613.00	  605.78	-2050.03	  427.06
     86.1700	  604.00	  608.58	-2061.83	  426.88
     86.2700	  584.00	  613.09	-2086.34	  426.70
     86.3700	  598.00	  619.23	-2078.48	  426.52
     86.4700	  631.00	  626.88	-2053.13	  426.35
     86.5700	  616.00	  635.87	-2077.12	  426.17
     86.6700	  628.00	  645.92	-2075.17	  425.99
     86.7700	  631.00	  656.67	-2082.92	  425.81
     86.8700	  668.00	  667.68	-2056.93	  425.64
     86.9700	  658.00	  678.43	-2077.68	  425.46
     87.0700	  650.00	  688.35	-2095.60	  425.28
     87.1700	  667.00	  697.08	-2087.33	  425.11
     87.2700	  709.00	  704.45	-2052.70	  424.93
     87.3700	  671.00	  710.67	-2096.92	  424.76
     87.4700	  710.00	  716.19	-2063.44	  424.58
     87.5700	  675.00	  721.53	-2103.78	  424.41
     87.6700	  753.00	  727.06	-2031.31	  424.23
     87.7700	  682.00	  732.91	-2108.16	  424.06
     87.8700	  711.00	  738.89	-2085.14	  423.89
     87.9700	  711.00	  744.51	-2090.76	  423.71
     88.0700	  752.00	  748.98	-2054.23	  423.54
     88.1700	  758.00	  751.36	-2050.61	  423.37
     88.2700	  733.00	  750.75	-2075.00	  423.20
     88.3700	  716.00	  746.62	-2087.87	  423.03
     88.4700	  695.00	  738.97	-2101.22	  422.86
     88.5700	  778.00	  728.36	-2007.61	  422.69
     88.6700	  727.00	  715.64	-2045.89	  422.52
     88.7700	  720.00	  701.81	-2039.06	  422.35
     88.8700	  693.00	  687.36	-2051.61	  422.18
     88.9700	  655.00	  673.97	-2076.22	  422.01
     89.0700	  746.00	  661.88	-1973.13	  421.85
     89.1700	  657.00	  651.59	-2051.84	  421.68
     89.2700	  641.00	  643.43	-2059.68	  421.51
     89.3700	  640.00	  637.54	-2054.79	  421.35
     89.4700	  626.00	  633.87	-2065.12	  421.18
     89.5700	  622.00	  632.24	-2067.49	  421.02
     89.6700	  686.00	  632.33	-2003.58	  420.86
     89.7700	  654.00	  633.68	-2036.93	  420.69
     89.8700	  647.00	  635.80	-2046.05	  420.53
     89.9700	  680.00	  638.09	-2015.34	  420.37
     90.0700	  683.00	  639.97	-2014.22	  420.21
     90.1700	  705.00	  640.88	-1993.13	  420.05
     90.2700	  722.00	  640.43	-1975.68	  419.89
     90.3700	  700.00	  638.44	-1995.69	  419.73
     90.4700	  640.00	  635.00	-2052.25	  419.57
     90.5700	  631.00	  630.40	-2056.65	  419.41
     90.6700	  598.00	  625.02	-2084.27	  419.25
     90.7700	  681.00	  619.25	-1995.50	  419.10
     90.8700	  596.00	  613.46	-2074.71	  418.94
     90.9700	  605.00	  607.92	-2060.17	  418.79
     91.0700	  623.00	  602.85	-2037.10	  418.63
     91.1700	  570.00	  598.41	-2085.66	  418.48
     91.2700	  577.00	  594.66	-2074.91	  418.33
     91.3700	  612.00	  591.65	-2036.90	  418.18
     91.4700	  644.00	  589.34	-2002.59	  418.02
     91.5700	  600.00	  587.69	-2044.94	  417.87
     91.6700	  590.00	  586.65	-2053.90	  417.73
     91.7700	  559.00	  586.15	-2084.40	  417.58
     91.8700	  638.00	  586.18	-2005.43	  417.43
     91.9700	  600.00	  586.70	-2043.95	  417.28
     92.0700	  590.00	  587.74	-2054.99	  417.14
     92.1700	  557.00	  589.37	-2089.62	  416.99
     92.2700	  592.00	  591.68	-2056.93	  416.85
     92.3700	  641.00	  594.83	-2011.08	  416.70
     92.4700	  598.00	  598.99	-2058.24	  416.56
     92.5700	  639.00	  604.38	-2022.63	  416.42
     92.6700	  587.00	  611.23	-2081.48	  416.28
     92.7700	  627.00	  619.78	-2050.03	  416.14
     92.8700	  627.00	  630.24	-2060.49	  416.00
     92.9700	  610.00	  642.75	-2090.00	  415.86
     93.0700	  658.00	  657.42	-2056.67	  415.72
     93.1700	  677.00	  674.22	-2054.47	  415.58
     93.2700	  676.00	  693.01	-2074.26	  415.45
     93.3700	  635.00	  713.49	-2135.74	  415.31
     93.4700	  703.00	  735.24	-2089.49	  415.18
     93.5700	  741.00	  757.64	-2073.89	  415.05
     93.6700	  778.00	  779.95	-2059.20	  414.91
     93.7700	  797.00	  801.32	-2061.57	  414.78
     93.8700	  782.00	  820.94	-2096.19	  414.65
     93.9700	  806.00	  838.21	-2089.46	  414.52
     94.0700	  810.00	  852.95	-2100.20	  414.40
     94.1700	  792.00	  865.45	-2130.70	  414.27
     94.2700	  839.00	  876.39	-2094.64	  414.14
     94.3700	  890.00	  886.62	-2053.87	  414.02
     94.4700	  889.00	  896.58	-2064.83	  413.90
     94.5700	  864.00	  907.50	-2100.75	  413.77
     94.6700	  960.00	  919.42	-2016.67	  413.65
     94.7700	  965.00	  932.55	-2024.80	  413.53
     94.8700	  955.00	  947.02	-2049.27	  413.41
     94.9700	 1019.00	  962.91	-2001.16	  413.29
     95.0700	 1058.00	  980.17	-1979.42	  413.18
     95.1700	  994.00	  998.48	-2061.73	  413.06
     95.2700	 1000.00	 1017.10	-2074.35	  412.94
     95.3700	  956.00	 1034.84	-2136.09	  412.83
     95.4700	 1046.00	 1050.05	-2061.29	  412.72
     95.5700	 1035.00	 1060.80	-2083.05	  412.61
     95.6700	 1029.00	 1065.19	-2093.44	  412.49
     95.7700	 1041.00	 1061.74	-2077.99	  412.39
     95.8700	  992.00	 1049.76	-2115.01	  412.28
     95.9700	 1063.00	 1029.63	-2023.88	  412.17
     96.0700	  956.00	 1002.70	-2103.95	  412.06
     96.1700	  983.00	  970.98	-2045.23	  411.96
     96.2700	  930.00	  936.78	-2064.03	  411.86
     96.3700	  876.00	  902.46	-2083.71	  411.75
     96.4700	  920.00	  870.27	-2007.52	  411.65
     96.5700	  866.00	  842.23	-2033.48	  411.55
     96.6700	  827.00	  820.12	-2050.37	  411.45
     96.7700	  861.00	  805.42	-2001.67	  411.36
     96.8700	  806.00	  799.34	-2050.59	  411.26
     96.9700	  788.00	  802.81	-2072.06	  411.16
     97.0700	  811.00	  816.53	-2062.78	  411.07
     97.1700	  872.00	  840.93	-2026.18	  410.98
     97.2700	  946.00	  876.21	-1987.46	  410.89
     97.3700	  969.00	  922.26	-2010.51	  410.80
     97.4700	 1039.00	  978.62	-1996.87	  410.71
     97.5700	 1078.00	 1044.41	-2023.66	  410.62
     97.6700	 1136.00	 1118.27	-2039.52	  410.54
     97.7700	 1222.00	 1198.27	-2033.52	  410.45
     97.8700	 1266.00	 1281.84	-2073.09	  410.37
     97.9700	 1312.00	 1365.78	-2111.03	  410.29
     98.0700	 1398.00	 1446.26	-2105.51	  410.20
     98.1700	 1470.00	 1518.94	-2106.19	  410.13
     98.2700	 1563.00	 1579.19	-2073.44	  410.05
     98.3700	 1640.00	 1622.63	-2039.88	  409.97
     98.4700	 1625.00	 1645.87	-2078.12	  409.90
     98.5700	 1635.00	 1647.19	-2069.44	  409.82
     98.6700	 1592.00	 1627.02	-2092.27	  409.75
     98.7700	 1570.00	 1587.68	-2074.93	  409.68
     98.8700	 1449.00	 1532.89	-2141.14	  409.61
     98.9700	 1394.00	 1467.00	-2130.25	  409.54
     99.0700	 1430.00	 1394.48	-2021.73	  409.47
     99.1700	 1248.00	 1319.52	-2128.77	  409.41
     99.2700	 1203.00	 1245.84	-2100.09	  409.35
     99.3700	 1284.00	 1176.70	-1949.95	  409.28
     99.4700	 1065.00	 1114.80	-2107.05	  409.22
     99.5700	 1070.00	 1062.33	-2049.58	  409.16
     99.6700	 1017.00	 1021.04	-2061.29	  409.10
     99.7700	 1051.00	  992.27	-1998.52	  409.05
     99.8700	  998.00	  977.03	-2036.28	  408.99
     99.9700	 1017.00	  975.96	-2016.21	  408.94
    100.0700	  997.00	  989.43	-2049.68	  408.89
    100.1700	 1049.00	 1017.48	-2025.73	  408.84
    100.2700	 1055.00	 1059.87	-2062.12	  408.79
    100.3700	 1144.00	 1116.02	-2029.27	  408.74
    100.4700	 1151.00	 1184.99	-2091.24	  408.69
    100.5700	 1276.00	 1265.41	-2046.66	  408.65
    100.6700	 1367.00	 1355.49	-2045.74	  408.61
    100.7700	 1471.00	 1452.91	-2039.16	  408.57
    100.8700	 1641.00	 1554.72	-1970.97	  408.53
    100.9700	 1706.00	 1657.77	-2009.02	  408.49
    101.0700	 1754.00	 1758.21	-2061.46	  408.45
    101.1700	 1829.00	 1852.18	-2080.43	  408.42
    101.2700	 1922.00	 1936.09	-2071.34	  408.38
    101.3700	 1922.00	 2007.06	-2142.31	  408.35
    101.4700	 2058.00	 2063.08	-2062.33	  408.32
    101.5700	 2083.00	 2103.06	-2077.31	  408.29
    101.6700	 2033.00	 2126.46	-2150.71	  408.26
    101.7700	 2110.00	 2133.02	-2080.27	  408.24
    101.8700	 2092.00	 2122.65	-2087.90	  408.22
    101.9700	 2148.00	 2095.59	-2004.84	  408.19
    102.0700	 2097.00	 2052.77	-2013.02	  408.17
    102.1700	 1995.00	 1996.16	-2058.41	  408.15
    102.2700	 1997.00	 1928.76	-1989.01	  408.14
    102.3700	 1933.00	 1854.35	-1978.60	  408.12
    102.4700	 1782.00	 1776.95	-2052.20	  408.11
    102.5700	 1797.00	 1700.29	-1960.54	  408.10
    102.6700	 1691.00	 1627.49	-1993.74	  408.09
    102.7700	 1592.00	 1560.83	-2026.08	  408.08
    102.8700	 1588.00	 1501.76	-1971.01	  408.07
    102.9700	 1550.00	 1450.91	-1958.16	  408.07
    103.0700	 1443.00	 1408.15	-2022.40	  408.06
    103.1700	 1431.00	 1372.70	-1998.95	  408.06
    103.2700	 1347.00	 1343.16	-2053.41	  408.06
    103.3700	 1322.00	 1317.70	-2052.95	  408.06
    103.4700	 1271.00	 1294.20	-2080.45	  408.06
    103.5700	 1271.00	 1270.49	-2056.74	  408.07
    103.6700	 1184.00	 1244.68	-2117.93	  408.08
    103.7700	 1243.00	 1215.39	-2029.64	  408.09
    103.8700	 1114.00	 1181.97	-2125.22	  408.10
    103.9700	 1129.00	 1144.51	-2072.76	  408.11
    104.0700	 1081.00	 1103.67	-2079.92	  408.12
    104.1700	 1066.00	 1060.45	-2051.70	  408.14
    104.2700	 1035.00	 1015.98	-2038.23	  408.16
    104.3700	 1024.00	  971.40	-2004.65	  408.18
    104.4700	  918.00	  927.74	-2066.99	  408.20
    104.5700	  907.00	  885.88	-2036.13	  408.22
    104.6700	  847.00	  846.57	-2056.82	  408.24
    104.7700	  821.00	  810.35	-2046.60	  408.27
    104.8700	  786.00	  777.58	-2048.83	  408.30
    104.9700	  773.00	  748.41	-2032.66	  408.33
    105.0700	  771.00	  723.01	-2009.26	  408.36
    105.1700	  660.00	  701.23	-2098.48	  408.40
    105.2700	  705.00	  682.88	-2035.12	  408.43
    105.3700	  687.00	  667.67	-2037.92	  408.47
    105.4700	  653.00	  655.30	-2059.55	  408.51
    105.5700	  656.00	  645.43	-2046.68	  408.55
    105.6700	  614.00	  637.73	-2080.98	  408.60
    105.7700	  661.00	  631.84	-2028.09	  408.64
    105.8700	  627.00	  627.60	-2057.85	  408.69
    105.9700	  633.00	  624.73	-2048.98	  408.74
    106.0700	  641.00	  623.06	-2039.31	  408.79
    106.1700	  618.00	  622.47	-2061.72	  408.84
    106.2700	  628.00	  622.86	-2052.11	  408.90
    106.3700	  642.00	  624.22	-2039.47	  408.95
    106.4700	  642.00	  626.52	-2041.77	  409.01
    106.5700	  598.00	  629.81	-2089.06	  409.07
    106.6700	  656.00	  634.13	-2035.38	  409.14
    106.7700	  696.00	  639.53	-2000.78	  409.20
    106.8700	  644.00	  646.09	-2059.34	  409.27
    106.9700	  628.00	  653.87	-2083.12	  409.34
    107.0700	  626.00	  662.89	-2094.14	  409.41
    107.1700	  704.00	  673.17	-2026.42	  409.48
    107.2700	  702.00	  684.65	-2039.90	  409.55
    107.3700	  695.00	  697.24	-2059.49	  409.63
    107.4700	  698.00	  710.76	-2070.01	  409.71
    107.5700	  703.00	  724.98	-2079.23	  409.79
    107.6700	  721.00	  739.61	-2075.86	  409.87
    107.7700	  720.00	  754.28	-2091.53	  409.96
    107.8700	  766.00	  768.57	-2059.82	  410.04
    107.9700	  742.00	  782.02	-2097.27	  410.13
    108.0700	  734.00	  794.15	-2117.40	  410.22
    108.1700	  739.00	  804.49	-2122.74	  410.31
    108.2700	  812.00	  812.68	-2057.93	  410.41
    108.3700	  797.00	  818.46	-2078.71	  410.50
    108.4700	  808.00	  821.83	-2071.08	  410.60
    108.5700	  824.00	  822.94	-2056.19	  410.70
    108.6700	  797.00	  822.14	-2082.39	  410.81
    108.7700	  804.00	  819.90	-2073.15	  410.91
    108.8700	  765.00	  816.77	-2109.02	  411.02
    108.9700	  790.00	  813.25	-2080.50	  411.13
    109.0700	  768.00	  809.83	-2099.08	  411.24
    109.1700	  738.00	  806.86	-2126.11	  411.35
    109.2700	  812.00	  804.63	-2049.88	  411.46
    109.3700	  734.00	  803.27	-2126.52	  411.58
    109.4700	  752.00	  802.81	-2108.06	  411.70
    109.5700	  743.00	  803.16	-2117.41	  411.82
    109.6700	  805.00	  804.10	-2056.35	  411.94
    109.7700	  747.00	  805.31	-2115.56	  412.07
    109.8700	  739.00	  806.40	-2124.65	  412.20
    109.9700	  770.00	  806.91	-2094.16	  412.33
    110.0700	  753.00	  806.37	-2110.62	  412.46
    110.1700	  759.00	  804.44	-2102.69	  412.59
    110.2700	  770.00	  800.80	-2088.05	  412.73
    110.3700	  759.00	  795.34	-2093.59	  412.87
    110.4700	  800.00	  788.10	-2045.35	  413.01
    110.5700	  813.00	  779.26	-2023.51	  413.15
    110.6700	  767.00	  769.10	-2059.35	  413.29
    110.7700	  755.00	  757.96	-2060.21	  413.44
    110.8700	  715.00	  746.19	-2088.44	  413.59
    110.9700	  687.00	  734.15	-2104.40	  413.74
    111.0700	  745.00	  722.14	-2034.39	  413.89
    111.1700	  708.00	  710.45	-2059.70	  414.05
    111.2700	  704.00	  699.31	-2052.56	  414.20
    111.3700	  740.00	  688.91	-2006.16	  414.36
    111.4700	  668.00	  679.40	-2068.65	  414.52
    111.5700	  656.00	  670.89	-2072.14	  414.69
    111.6700	  661.00	  663.45	-2059.70	  414.85
    111.7700	  636.00	  657.09	-2078.34	  415.02
    111.8700	  622.00	  651.82	-2087.07	  415.19
    111.9700	  670.00	  647.59	-2034.84	  415.36
    112.0700	  581.00	  644.34	-2120.59	  415.54
    112.1700	  610.00	  642.01	-2089.26	  415.71
    112.2700	  585.00	  640.49	-2112.74	  415.89
    112.3700	  609.00	  639.69	-2087.94	  416.07
    112.4700	  670.00	  639.52	-2026.77	  416.26
    112.5700	  618.00	  639.87	-2079.12	  416.44
    112.6700	  612.00	  640.64	-2085.89	  416.63
    112.7700	  611.00	  641.76	-2088.01	  416.82
    112.8700	  614.00	  643.13	-2086.38	  417.01
    112.9700	  600.00	  644.70	-2101.95	  417.21
    113.0700	  575.00	  646.41	-2128.66	  417.40
    113.1700	  613.00	  648.22	-2092.47	  417.60
    113.2700	  646.00	  650.13	-2061.38	  417.80
    113.3700	  669.00	  652.12	-2040.37	  418.00
    113.4700	  586.00	  654.23	-2125.48	  418.21
    113.5700	  686.00	  656.48	-2027.73	  418.42
    113.6700	  657.00	  658.92	-2059.17	  418.62
    113.7700	  653.00	  661.61	-2065.86	  418.84
    113.8700	  686.00	  664.61	-2035.86	  419.05
    113.9700	  645.00	  668.02	-2080.27	  419.27
    114.0700	  686.00	  671.95	-2043.20	  419.48
    114.1700	  630.00	  676.51	-2103.76	  419.71
    114.2700	  679.00	  681.89	-2060.14	  419.93
    114.3700	  638.00	  688.30	-2107.55	  420.15
    114.4700	  733.00	  696.00	-2020.25	  420.38
    114.5700	  699.00	  705.37	-2063.62	  420.61
    114.6700	  724.00	  716.85	-2050.10	  420.84
    114.7700	  740.00	  731.04	-2048.29	  421.07
    114.8700	  751.00	  748.64	-2054.89	  421.31
    114.9700	  798.00	  770.59	-2029.84	  421.55
    115.0700	  850.00	  797.97	-2005.22	  421.79
    115.1700	  846.00	  832.16	-2043.41	  422.03
    115.2700	  943.00	  874.73	-1988.98	  422.28
    115.3700	  935.00	  927.54	-2049.79	  422.52
    115.4700	 1067.00	  992.71	-1982.96	  422.77
    115.5700	 1169.00	 1072.60	-1960.85	  423.03
    115.6700	 1301.00	 1169.80	-1926.05	  423.28
    115.7700	 1434.00	 1287.02	-1910.27	  423.54
    115.8700	 1640.00	 1427.06	-1844.31	  423.79
    115.9700	 1826.00	 1592.60	-1823.85	  424.05
    116.0700	 2110.00	 1786.22	-1733.47	  424.32
    116.1700	 2307.00	 2010.12	-1760.37	  424.58
    116.2700	 2491.00	 2265.91	-1832.16	  424.85
    116.3700	 2814.00	 2554.49	-1797.74	  425.12
    116.4700	 3087.00	 2875.80	-1846.05	  425.39
    116.5700	 3357.00	 3228.74	-1928.99	  425.66
    116.6700	 3710.00	 3611.01	-1958.26	  425.94
    116.7700	 4220.00	 4018.80	-1856.05	  426.22
    116.8700	 4443.00	 4446.93	-2061.18	  426.50
    116.9700	 5004.00	 4888.68	-1941.93	  426.78
    117.0700	 5348.00	 5336.14	-2045.39	  427.07
    117.1700	 5706.00	 5780.04	-2131.29	  427.36
    117.2700	 6021.00	 6209.84	-2246.09	  427.64
    117.3700	 6380.00	 6614.20	-2291.45	  427.94
    117.4700	 6736.00	 6981.20	-2302.45	  428.23
    117.5700	 7037.00	 7298.98	-2319.23	  428.53
    117.6700	 7400.00	 7556.26	-2213.51	  428.83
    117.7700	 7369.00	 7743.11	-2431.36	  429.13
    117.8700	 7536.00	 7851.95	-2373.20	  429.43
    117.9700	 7540.00	 7878.34	-2395.59	  429.73
    118.0700	 7499.00	 7821.54	-2379.79	  430.04
    118.1700	 7296.00	 7684.48	-2445.73	  430.35
    118.2700	 7243.00	 7473.52	-2287.77	  430.66
    118.3700	 6932.00	 7197.67	-2322.92	  430.98
    118.4700	 6581.00	 6867.70	-2343.95	  431.29
    118.5700	 6297.00	 6495.23	-2255.48	  431.61
    118.6700	 6051.00	 6092.01	-2098.26	  431.93
    118.7700	 5582.00	 5669.51	-2144.76	  432.26
    118.8700	 5363.00	 5238.39	-1932.64	  432.58
    118.9700	 4952.00	 4808.30	-1913.55	  432.91
    119.0700	 4561.00	 4387.51	-1883.76	  433.24
    119.1700	 4299.00	 3982.91	-1741.16	  433.57
    119.2700	 3926.00	 3600.07	-1731.32	  433.91
    119.3700	 3469.00	 3243.09	-1831.34	  434.24
    119.4700	 3280.00	 2914.75	-1692.00	  434.58
    119.5700	 2883.00	 2616.47	-1790.72	  434.92
    119.6700	 2639.00	 2348.60	-1766.85	  435.26
    119.7700	 2313.00	 2110.69	-1854.94	  435.61
    119.8700	 2143.00	 1901.50	-1815.75	  435.96
    119.9700	 1943.00	 1719.28	-1833.53	  436.31
    120.0700	 1789.00	 1561.85	-1830.10	  436.66
    120.1700	 1593.00	 1426.82	-1891.07	  437.01
    120.2700	 1500.00	 1311.76	-1869.01	  437.37
    120.3700	 1380.00	 1214.23	-1891.48	  437.73
    120.4700	 1288.00	 1131.90	-1901.15	  438.09
    120.5700	 1164.00	 1062.58	-1955.83	  438.45
    120.6700	 1069.00	 1004.29	-1992.54	  438.82
    120.7700	 1020.00	  955.31	-1992.56	  439.18
    120.8700	  991.00	  914.11	-1980.36	  439.55
    120.9700	  937.00	  879.43	-1999.68	  439.92
    121.0700	  852.00	  850.17	-2055.42	  440.30
    121.1700	  864.00	  825.44	-2018.69	  440.67
    121.2700	  779.00	  804.53	-2082.78	  441.05
    121.3700	  787.00	  786.84	-2057.09	  441.43
    121.4700	  784.00	  771.92	-2045.17	  441.81
    121.5700	  743.00	  759.37	-2073.62	  442.20
    121.6700	  755.00	  748.91	-2051.16	  442.58
    121.7700	  717.00	  740.29	-2080.54	  442.97
    121.8700	  741.00	  733.32	-2049.57	  443.36
    121.9700	  715.00	  727.86	-2070.11	  443.76
    122.0700	  714.00	  723.77	-2067.02	  444.15
    122.1700	  700.00	  720.96	-2078.21	  444.55
    122.2700	  656.00	  719.34	-2120.59	  444.95
    122.3700	  726.00	  718.83	-2050.08	  445.35
    122.4700	  724.00	  719.39	-2052.64	  445.75
    122.5700	  731.00	  720.95	-2047.20	  446.16
    122.6700	  677.00	  723.44	-2103.69	  446.57
    122.7700	  624.00	  726.83	-2160.08	  446.98
    122.8700	  718.00	  731.04	-2070.29	  447.39
    122.9700	  732.00	  736.03	-2061.28	  447.80
    123.0700	  735.00	  741.70	-2063.95	  448.22
    123.1700	  689.00	  748.00	-2116.25	  448.64
    123.2700	  703.00	  754.82	-2109.07	  449.06
    123.3700	  715.00	  762.08	-2104.33	  449.48
    123.4700	  737.00	  769.68	-2089.93	  449.91
    123.5700	  751.00	  777.49	-2083.74	  450.33
    123.6700	  796.00	  785.40	-2046.65	  450.76
    123.7700	  755.00	  793.29	-2095.54	  451.19
    123.8700	  779.00	  801.03	-2079.28	  451.63
    123.9700	  788.00	  808.49	-2077.74	  452.06
    124.0700	  823.00	  815.56	-2049.81	  452.50
    124.1700	  802.00	  822.13	-2077.38	  452.94
    124.2700	  801.00	  828.13	-2084.38	  453.38
    124.3700	  800.00	  833.50	-2090.75	  453.82
    124.4700	  772.00	  838.19	-2123.44	  454.27
    124.5700	  751.00	  842.27	-2148.52	  454.71
    124.6700	  814.00	  845.74	-2088.99	  455.16
    124.7700	  827.00	  848.64	-2078.89	  455.61
    124.8700	  819.00	  851.05	-2089.30	  456.07
    124.9700	  755.00	  592.54	-1894.79	  456.52
    125.0700	  771.00	  593.00	-2057.25	  456.98
    125.1700	  823.00	  593.46	-2057.25	  457.44
    125.2700	  772.00	  593.92	-2057.25	  457.90
    125.3700	  835.00	  594.38	-2057.25	  458.36
    125.4700	  805.00	  594.85	-2057.25	  458.83
    125.5700	  798.00	  595.31	-2057.25	  459.29
    125.6700	  825.00	  595.78	-2057.25	  459.76
    125.7700	  829.00	  596.25	-2057.25	  460.23
    125.8700	  804.00	  596.73	-2057.25	  460.71
    125.9700	  789.00	  597.20	-2057.25	  461.18
    126.0700	  798.00	  597.68	-2057.25	  461.66
    126.1700	  782.00	  598.16	-2057.25	  462.14
    126.2700	  758.00	  598.64	-2057.25	  462.62
    126.3700	  816.00	  599.12	-2057.25	  463.10
    126.4700	  757.00	  599.60	-2057.25	  463.58
    126.5700	  741.00	  600.09	-2057.25	  464.07
    126.6700	  815.00	  600.58	-2057.25	  464.56
    126.7700	  743.00	  601.07	-2057.25	  465.05
    126.8700	  702.00	  601.56	-2057.25	  465.54
    126.9700	  745.00	  602.05	-2057.25	  466.03
    127.0700	  725.00	  602.55	-2057.25	  466.53
    127.1700	  719.00	  603.05	-2057.25	  467.03
    127.2700	  674.00	  603.54	-2057.25	  467.52
    127.3700	  615.00	  604.05	-2057.25	  468.03
    127.4700	  654.00	  604.55	-2057.25	  468.53
    127.5700	  662.00	  605.05	-2057.25	  469.03
    127.6700	  642.00	  605.56	-2057.25	  469.54
    127.7700	  686.00	  606.07	-2057.25	  470.05
    127.8700	  664.00	  606.58	-2057.25	  470.56
    127.9700	  652.00	  607.09	-2057.25	  471.07
    128.0700	  655.00	  607.60	-2057.25	  471.58
    128.1700	  652.00	  608.12	-2057.25	  472.10
    128.2700	  679.00	  608.63	-2057.25	  472.61
    128.3700	  668.00	  609.15	-2057.25	  473.13
    128.4700	  671.00	  609.67	-2057.25	  473.65
    128.5700	    0.00	  610.19	-2057.25	  474.17
    128.6700	    0.00	  610.72	-2057.25	  474.70
     12.4421	        	        	        	        	       0	(  0  0  2)	  0  1
     12.4421	        	        	        	        	    -514	(  0  0  2)	  0  1
     25.1220	        	        	        	        	       0	(  0  0  4)	  0  1
     25.1220	        	        	        	        	    -514	(  0  0  4)	  0  1
     28.5664	        	        	        	        	       0	(  1  0  0)	  0  1
     28.5664	        	        	        	        	    -514	(  1  0  0)	  0  1
     29.2697	        	        	        	        	       0	(  1  0  1)	  0  1
     29.2697	        	        	        	        	    -514	(  1  0  1)	  0  1
     31.2934	        	        	        	        	       0	(  1  0  2)	  0  1
     31.2934	        	        	        	        	    -514	(  1  0  2)	  0  1
     34.4289	        	        	        	        	       0	(  1  0  3)	  0  1
     34.4289	        	        	        	        	    -514	(  1  0  3)	  0  1
     38.1255	        	        	        	        	       0	(  0  0  6)	  0  1
     38.1255	        	        	        	        	    -514	(  0  0  6)	  0  1
     38.4407	        	        	        	        	       0	(  1  0  4)	  0  1
     38.4407	        	        	        	        	    -514	(  1  0  4)	  0  1
     43.1321	        	        	        	        	       0	(  1  0  5)	  0  1
     43.1321	        	        	        	        	    -514	(  1  0  5)	  0  1
     48.3631	        	        	        	        	       0	(  1  0  6)	  0  1
     48.3631	        	        	        	        	    -514	(  1  0  6)	  0  1
     50.6683	        	        	        	        	       0	(  1  1  0)	  0  1
     50.6683	        	        	        	        	    -514	(  1  1  0)	  0  1
     51.6645	        	        	        	        	       0	(  0  0  8)	  0  1
     51.6645	        	        	        	        	    -514	(  0  0  8)	  0  1
     52.4083	        	        	        	        	       0	(  1  1  2)	  0  1
     52.4083	        	        	        	        	    -514	(  1  1  2)	  0  1
     54.0464	        	        	        	        	       0	(  1  0  7)	  0  1
     54.0464	        	        	        	        	    -514	(  1  0  7)	  0  1
     57.4057	        	        	        	        	       0	(  1  1  4)	  0  1
     57.4057	        	        	        	        	    -514	(  1  1  4)	  0  1
     59.2369	        	        	        	        	       0	(  2  0  0)	  0  1
     59.2369	        	        	        	        	    -514	(  2  0  0)	  0  1
     59.6325	        	        	        	        	       0	(  2  0  1)	  0  1
     59.6325	        	        	        	        	    -514	(  2  0  1)	  0  1
     60.1361	        	        	        	        	       0	(  1  0  8)	  0  1
     60.1361	        	        	        	        	    -514	(  1  0  8)	  0  1
     60.8102	        	        	        	        	       0	(  2  0  2)	  0  1
     60.8102	        	        	        	        	    -514	(  2  0  2)	  0  1
     62.7438	        	        	        	        	       0	(  2  0  3)	  0  1
     62.7438	        	        	        	        	    -514	(  2  0  3)	  0  1
     65.1810	        	        	        	        	       0	(  1  1  6)	  0  1
     65.1810	        	        	        	        	    -514	(  1  1  6)	  0  1
     65.3963	        	        	        	        	       0	(  2  0  4)	  0  1
     65.3963	        	        	        	        	    -514	(  2  0  4)	  0  1
     66.0335	        	        	        	        	       0	(  0  0 10)	  0  1
     66.0335	        	        	        	        	    -514	(  0  0 10)	  0  1
     66.6191	        	        	        	        	       0	(  1  0  9)	  0  1
     66.6191	        	        	        	        	    -514	(  1  0  9)	  0  1
     68.7271	        	        	        	        	       0	(  2  0  5)	  0  1
     68.7271	        	        	        	        	    -514	(  2  0  5)	  0  1
     72.6999	        	        	        	        	       0	(  2  0  6)	  0  1
     72.6999	        	        	        	        	    -514	(  2  0  6)	  0  1
     73.5115	        	        	        	        	       0	(  1  0 10)	  0  1
     73.5115	        	        	        	        	    -514	(  1  0 10)	  0  1
     75.3331	        	        	        	        	       0	(  1  1  8)	  0  1
     75.3331	        	        	        	        	    -514	(  1  1  8)	  0  1
     77.2887	        	        	        	        	       0	(  2  0  7)	  0  1
     77.2887	        	        	        	        	    -514	(  2  0  7)	  0  1
     80.8579	        	        	        	        	       0	(  1  0 11)	  0  1
     80.8579	        	        	        	        	    -514	(  1  0 11)	  0  1
     81.6947	        	        	        	        	       0	(  0  0 12)	  0  1
     81.6947	        	        	        	        	    -514	(  0  0 12)	  0  1
     81.7006	        	        	        	        	       0	(  2  1  0)	  0  1
     81.7006	        	        	        	        	    -514	(  2  1  0)	  0  1
     82.0450	        	        	        	        	       0	(  2  1  1)	  0  1
     82.0450	        	        	        	        	    -514	(  2  1  1)	  0  1
     82.4848	        	        	        	        	       0	(  2  0  8)	  0  1
     82.4848	        	        	        	        	    -514	(  2  0  8)	  0  1
     83.0765	        	        	        	        	       0	(  2  1  2)	  0  1
     83.0765	        	        	        	        	    -514	(  2  1  2)	  0  1
     84.7909	        	        	        	        	       0	(  2  1  3)	  0  1
     84.7909	        	        	        	        	    -514	(  2  1  3)	  0  1
     87.1836	        	        	        	        	       0	(  2  1  4)	  0  1
     87.1836	        	        	        	        	    -514	(  2  1  4)	  0  1
     87.7654	        	        	        	        	       0	(  1  1 10)	  0  1
     87.7654	        	        	        	        	    -514	(  1  1 10)	  0  1
     88.3024	        	        	        	        	       0	(  2  0  9)	  0  1
     88.3024	        	        	        	        	    -514	(  2  0  9)	  0  1
     88.7384	        	        	        	        	       0	(  1  0 12)	  0  1
     88.7384	        	        	        	        	    -514	(  1  0 12)	  0  1
     90.2537	        	        	        	        	       0	(  2  1  5)	  0  1
     90.2537	        	        	        	        	    -514	(  2  1  5)	  0  1
     94.0081	        	        	        	        	       0	(  2  1  6)	  0  1
     94.0081	        	        	        	        	    -514	(  2  1  6)	  0  1
     94.7874	        	        	        	        	       0	(  2  0 10)	  0  1
     94.7874	        	        	        	        	    -514	(  2  0 10)	  0  1
     95.7702	        	        	        	        	       0	(  3  0  0)	  0  1
     95.7702	        	        	        	        	    -514	(  3  0  0)	  0  1
     96.1131	        	        	        	        	       0	(  3  0  1)	  0  1
     96.1131	        	        	        	        	    -514	(  3  0  1)	  0  1
     97.1431	        	        	        	        	       0	(  3  0  2)	  0  1
     97.1431	        	        	        	        	    -514	(  3  0  2)	  0  1
     97.2837	        	        	        	        	       0	(  1  0 13)	  0  1
     97.2837	        	        	        	        	    -514	(  1  0 13)	  0  1
     98.4693	        	        	        	        	       0	(  2  1  7)	  0  1
     98.4693	        	        	        	        	    -514	(  2  1  7)	  0  1
     98.8653	        	        	        	        	       0	(  3  0  3)	  0  1
     98.8653	        	        	        	        	    -514	(  3  0  3)	  0  1
     99.4994	        	        	        	        	       0	(  0  0 14)	  0  1
     99.4994	        	        	        	        	    -514	(  0  0 14)	  0  1
    101.2905	        	        	        	        	       0	(  3  0  4)	  0  1
    101.2905	        	        	        	        	    -514	(  3  0  4)	  0  1
    102.0326	        	        	        	        	       0	(  2  0 11)	  0  1
    102.0326	        	        	        	        	    -514	(  2  0 11)	  0  1
    102.8801	        	        	        	        	       0	(  1  1 12)	  0  1
    102.8801	        	        	        	        	    -514	(  1  1 12)	  0  1
    103.6847	        	        	        	        	       0	(  2  1  8)	  0  1
    103.6847	        	        	        	        	    -514	(  2  1  8)	  0  1
    104.4400	        	        	        	        	       0	(  3  0  5)	  0  1
    104.4400	        	        	        	        	    -514	(  3  0  5)	  0  1
    106.7098	        	        	        	        	       0	(  1  0 14)	  0  1
    106.7098	        	        	        	        	    -514	(  1  0 14)	  0  1
    108.3524	        	        	        	        	       0	(  3  0  6)	  0  1
    108.3524	        	        	        	        	    -514	(  3  0  6)	  0  1
    109.7429	        	        	        	        	       0	(  2  1  9)	  0  1
    109.7429	        	        	        	        	    -514	(  2  1  9)	  0  1
    110.2069	        	        	        	        	       0	(  2  0 12)	  0  1
    110.2069	        	        	        	        	    -514	(  2  0 12)	  0  1
    113.0961	        	        	        	        	       0	(  3  0  7)	  0  1
    113.0961	        	        	        	        	    -514	(  3  0  7)	  0  1
    116.8047	        	        	        	        	       0	(  2  1 10)	  0  1
    116.8047	        	        	        	        	    -514	(  2  1 10)	  0  1
    117.4015	        	        	        	        	       0	(  1  0 15)	  0  1
    117.4015	        	        	        	        	    -514	(  1  0 15)	  0  1
    117.9072	        	        	        	        	       0	(  2  2  0)	  0  1
    117.9072	        	        	        	        	    -514	(  2  2  0)	  0  1
    118.7907	        	        	        	        	       0	(  3  0  8)	  0  1
    118.7907	        	        	        	        	    -514	(  3  0  8)	  0  1
    119.4633	        	        	        	        	       0	(  2  2  2)	  0  1
    119.4633	        	        	        	        	    -514	(  2  2  2)	  0  1
    119.6238	        	        	        	        	       0	(  2  0 13)	  0  1
    119.6238	        	        	        	        	    -514	(  2  0 13)	  0  1
    121.4884	        	        	        	        	       0	(  0  0 16)	  0  1
    121.4884	        	        	        	        	    -514	(  0  0 16)	  0  1
    122.1800	        	        	        	        	       0	(  1  1 14)	  0  1
    122.1800	        	        	        	        	    -514	(  1  1 14)	  0  1
    124.2878	        	        	        	        	       0	(  2  2  4)	  0  1
    124.2878	        	        	        	        	    -514	(  2  2  4)	  0  1
    125.1727	        	        	        	        	       0	(  2  1 11)	  0  1
    125.1727	        	        	        	        	    -514	(  2  1 11)	  0  1
    125.6535	        	        	        	        	       0	(  3  0  9)	  0  1
    125.6535	        	        	        	        	    -514	(  3  0  9)	  0  1
    126.1996	        	        	        	        	       0	(  3  1  0)	  0  1
    126.1996	        	        	        	        	    -514	(  3  1  0)	  0  1
    126.6238	        	        	        	        	       0	(  3  1  1)	  0  1
    126.6238	        	        	        	        	    -514	(  3  1  1)	  0  1
    127.9107	        	        	        	        	       0	(  3  1  2)	  0  1
    127.9107	        	        	        	        	    -514	(  3  1  2)	  0  1
    130.1077	        	        	        	        	       0	(  3  1  3)	  0  1
    130.1077	        	        	        	        	    -514	(  3  1  3)	  0  1
    130.1584	        	        	        	        	       0	(  1  0 16)	  0  1
    130.1584	        	        	        	        	    -514	(  1  0 16)	  0  1
    130.9319	        	        	        	        	       0	(  2  0 14)	  0  1
    130.9319	        	        	        	        	    -514	(  2  0 14)	  0  1
    133.0410	        	        	        	        	       0	(  2  2  6)	  0  1
    133.0410	        	        	        	        	    -514	(  2  2  6)	  0  1
    133.3097	        	        	        	        	       0	(  3  1  4)	  0  1
    133.3097	        	        	        	        	    -514	(  3  1  4)	  0  1
    134.1150	        	        	        	        	       0	(  3  0 10)	  0  1
    134.1150	        	        	        	        	    -514	(  3  0 10)	  0  1
    135.4878	        	        	        	        	       0	(  2  1 12)	  0  1
    135.4878	        	        	        	        	    -514	(  2  1 12)	  0  1
    137.6962	        	        	        	        	       0	(  3  1  5)	  0  1
    137.6962	        	        	        	        	    -514	(  3  1  5)	  0  1
    143.6268	        	        	        	        	       0	(  3  1  6)	  0  1
    143.6268	        	        	        	        	    -514	(  3  1  6)	  0  1
    145.2152	        	        	        	        	       0	(  3  0 11)	  0  1
    145.2152	        	        	        	        	    -514	(  3  0 11)	  0  1
    145.8984	        	        	        	        	       0	(  2  0 15)	  0  1
    145.8984	        	        	        	        	    -514	(  2  0 15)	  0  1
    147.3132	        	        	        	        	       0	(  1  0 17)	  0  1
    147.3132	        	        	        	        	    -514	(  1  0 17)	  0  1
    148.1536	        	        	        	        	       0	(  2  2  8)	  0  1
    148.1536	        	        	        	        	    -514	(  2  2  8)	  0  1
    149.5619	        	        	        	        	       0	(  2  1 13)	  0  1
    149.5619	        	        	        	        	    -514	(  2  1 13)	  0  1
    151.9727	        	        	        	        	       0	(  3  1  7)	  0  1
    151.9727	        	        	        	        	    -514	(  3  1  7)	  0  1
    152.9049	        	        	        	        	       0	(  1  1 16)	  0  1
    152.9049	        	        	        	        	    -514	(  1  1 16)	  0  1
    158.0851	        	        	        	        	       0	(  0  0 18)	  0  1
    158.0851	        	        	        	        	    -514	(  0  0 18)	  0  1
    163.4576	        	        	        	        	       0	(  3  0 12)	  0  1
    163.4576	        	        	        	        	    -514	(  3  0 12)	  0  1
    163.4782	        	        	        	        	       0	(  4  0  0)	  0  1
    163.4782	        	        	        	        	    -514	(  4  0  0)	  0  1
    164.7298	        	        	        	        	       0	(  4  0  1)	  0  1
    164.7298	        	        	        	        	    -514	(  4  0  1)	  0  1
    166.4943	        	        	        	        	       0	(  3  1  8)	  0  1
    166.4943	        	        	        	        	    -514	(  3  1  8)	  0  1
