MSG Master    CELL:    5.87683   5.87683  23.07945   90.0000   90.0000  120.0000   SPGR: P 63/m m c             TEMP:    454.85
  2   1280     2.52000     0.00000    -0.08624     0.00000     0.00000    0
    95    95     0     0     2
       0.00000      10.00000
     125.00000     130.00000
 2Theta	Yobs	Ycal	Yobs-Ycal	Backg	Posr	(hkl)	K
      0.7700	    0.00	 1004.53	-2263.25	  865.62
      0.8700	    0.00	 1000.97	-2263.25	  862.06
      0.9700	   56.00	  997.43	-2263.25	  858.52
      1.0700	   44.00	  993.91	-2263.25	  855.00
      1.1700	   44.00	  990.42	-2263.25	  851.51
      1.2700	   34.00	  986.94	-2263.25	  848.03
      1.3700	   36.00	  983.49	-2263.25	  844.58
      1.4700	   88.00	  980.06	-2263.25	  841.15
      1.5700	  269.00	  976.66	-2263.25	  837.75
      1.6700	  455.00	  973.27	-2263.25	  834.36
      1.7700	  539.00	  969.91	-2263.25	  831.00
      1.8700	  602.00	  966.57	-2263.25	  827.66
      1.9700	  726.00	  963.25	-2263.25	  824.34
      2.0700	  771.00	  959.95	-2263.25	  821.04
      2.1700	  832.00	  956.67	-2263.25	  817.76
      2.2700	  707.00	  953.42	-2263.25	  814.51
      2.3700	  762.00	  950.18	-2263.25	  811.27
      2.4700	  659.00	  946.97	-2263.25	  808.06
      2.5700	  676.00	  943.78	-2263.25	  804.86
      2.6700	  696.00	  940.60	-2263.25	  801.69
      2.7700	  707.00	  937.45	-2263.25	  798.54
      2.8700	  640.00	  934.32	-2263.25	  795.41
      2.9700	  653.00	  931.21	-2263.25	  792.30
      3.0700	  658.00	  928.13	-2263.25	  789.21
      3.1700	  586.00	  925.06	-2263.25	  786.15
      3.2700	  692.00	  922.01	-2263.25	  783.10
      3.3700	  881.00	  918.98	-2263.25	  780.07
      3.4700	 1028.00	  915.97	-2263.25	  777.06
      3.5700	 1205.00	  912.99	-2263.25	  774.08
      3.6700	 1298.00	  910.02	-2263.25	  771.11
      3.7700	 1412.00	  907.07	-2263.25	  768.16
      3.8700	 1470.00	  904.15	-2263.25	  765.23
      3.9700	 1607.00	  901.24	-2263.25	  762.33
      4.0700	 1626.00	  898.35	-2263.25	  759.44
      4.1700	 1646.00	  895.48	-2263.25	  756.57
      4.2700	 1688.00	  892.63	-2263.25	  753.72
      4.3700	 1614.00	  889.80	-2263.25	  750.89
      4.4700	 1665.00	  886.99	-2263.25	  748.08
      4.5700	 1542.00	  884.20	-2263.25	  745.29
      4.6700	 1488.00	  881.43	-2263.25	  742.52
      4.7700	 1452.00	  878.68	-2263.25	  739.77
      4.8700	 1457.00	  875.95	-2263.25	  737.04
      4.9700	 1405.00	  873.23	-2263.25	  734.32
      5.0700	 1355.00	  870.54	-2263.25	  731.63
      5.1700	 1280.00	  867.86	-2263.25	  728.95
      5.2700	 1319.00	  865.20	-2263.25	  726.29
      5.3700	 1191.00	  862.56	-2263.25	  723.65
      5.4700	 1171.00	  859.94	-2263.25	  721.03
      5.5700	 1183.00	  857.34	-2263.25	  718.43
      5.6700	 1193.00	  854.76	-2263.25	  715.84
      5.7700	 1197.00	  852.19	-2263.25	  713.28
      5.8700	 1168.00	  849.64	-2263.25	  710.73
      5.9700	 1061.00	  847.11	-2263.25	  708.20
      6.0700	 1111.00	  844.60	-2263.25	  705.69
      6.1700	 1086.00	  842.11	-2263.25	  703.19
      6.2700	 1034.00	  839.63	-2263.25	  700.72
      6.3700	 1079.00	  837.17	-2263.25	  698.26
      6.4700	 1061.00	  834.73	-2263.25	  695.82
      6.5700	 1069.00	  832.31	-2263.25	  693.40
      6.6700	  977.00	  829.90	-2263.25	  690.99
      6.7700	  997.00	  827.51	-2263.25	  688.60
      6.8700	 1035.00	  825.14	-2263.25	  686.23
      6.9700	  962.00	  822.79	-2263.25	  683.88
      7.0700	  949.00	  820.45	-2263.25	  681.54
      7.1700	  905.00	  818.13	-2263.25	  679.22
      7.2700	  893.00	  815.83	-2263.25	  676.92
      7.3700	  934.00	  813.55	-2263.25	  674.63
      7.4700	  895.00	  811.28	-2263.25	  672.37
      7.5700	  857.00	  809.03	-2263.25	  670.11
      7.6700	  842.00	  806.79	-2263.25	  667.88
      7.7700	  839.00	  804.57	-2263.25	  665.66
      7.8700	  858.00	  802.37	-2263.25	  663.46
      7.9700	  804.00	  800.18	-2263.25	  661.27
      8.0700	  817.00	  798.02	-2263.25	  659.10
      8.1700	  832.00	  795.86	-2263.25	  656.95
      8.2700	  825.00	  793.73	-2263.25	  654.82
      8.3700	  805.00	  791.61	-2263.25	  652.69
      8.4700	  794.00	  789.50	-2263.25	  650.59
      8.5700	  832.00	  787.41	-2263.25	  648.50
      8.6700	  853.00	  785.34	-2263.25	  646.43
      8.7700	  798.00	  783.28	-2263.25	  644.37
      8.8700	  800.00	  781.24	-2263.25	  642.33
      8.9700	  789.00	  779.22	-2263.25	  640.31
      9.0700	  802.00	  777.21	-2263.25	  638.30
      9.1700	  777.00	  775.22	-2263.25	  636.30
      9.2700	  790.00	  773.24	-2263.25	  634.33
      9.3700	  732.00	  771.27	-2263.25	  632.36
      9.4700	  773.00	  769.33	-2263.25	  630.41
      9.5700	  767.00	  767.39	-2263.25	  628.48
      9.6700	  765.00	  765.48	-2263.25	  626.57
      9.7700	  727.00	  763.57	-2263.25	  624.66
      9.8700	  755.00	  761.69	-2263.25	  622.78
      9.9700	  730.00	  759.81	-2263.25	  620.90
     10.0700	  770.00	  760.12	-2253.37	  619.05
     10.1700	  773.00	  758.51	-2248.76	  617.20
     10.2700	  755.00	  756.96	-2265.21	  615.37
     10.3700	  715.00	  755.49	-2303.74	  613.56
     10.4700	  714.00	  754.12	-2303.37	  611.76
     10.5700	  786.00	  752.88	-2230.13	  609.98
     10.6700	  771.00	  751.84	-2244.09	  608.21
     10.7700	  736.00	  751.07	-2278.32	  606.45
     10.8700	  757.00	  750.66	-2256.91	  604.71
     10.9700	  776.00	  750.71	-2237.96	  602.98
     11.0700	  763.00	  751.27	-2251.52	  601.27
     11.1700	  763.00	  752.36	-2252.61	  599.57
     11.2700	  722.00	  754.01	-2295.26	  597.89
     11.3700	  727.00	  756.25	-2292.50	  596.22
     11.4700	  744.00	  759.18	-2278.43	  594.56
     11.5700	  776.00	  762.94	-2250.19	  592.92
     11.6700	  756.00	  767.72	-2274.97	  591.29
     11.7700	  799.00	  773.80	-2238.05	  589.67
     11.8700	  881.00	  781.44	-2163.69	  588.07
     11.9700	  830.00	  790.69	-2223.94	  586.48
     12.0700	  843.00	  801.07	-2221.32	  584.90
     12.1700	  800.00	  811.05	-2274.30	  583.34
     12.2700	  877.00	  817.60	-2203.85	  581.79
     12.3700	  845.00	  816.26	-2234.51	  580.26
     12.4700	  890.00	  804.13	-2177.38	  578.73
     12.5700	  770.00	  784.51	-2277.76	  577.22
     12.6700	  735.00	  764.43	-2292.68	  575.73
     12.7700	  691.00	  748.00	-2320.25	  574.24
     12.8700	  721.00	  735.94	-2278.19	  572.77
     12.9700	  672.00	  727.49	-2318.74	  571.31
     13.0700	  691.00	  721.60	-2293.85	  569.87
     13.1700	  663.00	  717.31	-2317.56	  568.44
     13.2700	  651.00	  713.97	-2326.22	  567.02
     13.3700	  667.00	  711.20	-2307.45	  565.61
     13.4700	  683.00	  708.78	-2289.03	  564.21
     13.5700	  751.00	  706.60	-2218.85	  562.83
     13.6700	  675.00	  704.60	-2292.85	  561.46
     13.7700	  685.00	  702.72	-2280.97	  560.10
     13.8700	  719.00	  700.95	-2245.20	  558.76
     13.9700	  667.00	  699.27	-2295.52	  557.42
     14.0700	  718.00	  697.65	-2242.90	  556.10
     14.1700	  693.00	  696.09	-2266.34	  554.79
     14.2700	  701.00	  694.57	-2256.82	  553.49
     14.3700	  711.00	  693.10	-2245.35	  552.21
     14.4700	  701.00	  691.66	-2253.91	  550.93
     14.5700	  719.00	  690.26	-2234.51	  549.67
     14.6700	  719.00	  688.89	-2233.14	  548.42
     14.7700	  656.00	  687.54	-2294.79	  547.18
     14.8700	  720.00	  686.21	-2229.46	  545.95
     14.9700	  731.00	  684.91	-2217.16	  544.74
     15.0700	  645.00	  683.63	-2301.88	  543.53
     15.1700	  658.00	  682.36	-2287.61	  542.34
     15.2700	  658.00	  681.12	-2286.37	  541.16
     15.3700	  650.00	  679.89	-2293.14	  539.99
     15.4700	  674.00	  678.68	-2267.93	  538.83
     15.5700	  704.00	  677.48	-2236.73	  537.68
     15.6700	  653.00	  676.30	-2286.55	  536.54
     15.7700	  657.00	  675.14	-2281.39	  535.41
     15.8700	  702.00	  673.99	-2235.24	  534.30
     15.9700	  680.00	  672.85	-2256.10	  533.19
     16.0700	  652.00	  671.72	-2282.97	  532.10
     16.1700	  676.00	  670.61	-2257.86	  531.02
     16.2700	  658.00	  669.52	-2274.77	  529.94
     16.3700	  681.00	  668.43	-2250.68	  528.88
     16.4700	  683.00	  667.36	-2247.61	  527.83
     16.5700	  676.00	  666.30	-2253.55	  526.79
     16.6700	  681.00	  665.25	-2247.50	  525.76
     16.7700	  668.00	  664.21	-2259.46	  524.74
     16.8700	  709.00	  663.18	-2217.43	  523.73
     16.9700	  644.00	  662.17	-2281.42	  522.73
     17.0700	  651.00	  661.16	-2273.41	  521.74
     17.1700	  627.00	  660.17	-2296.42	  520.76
     17.2700	  691.00	  659.19	-2231.44	  519.79
     17.3700	  691.00	  658.22	-2230.47	  518.83
     17.4700	  691.00	  657.26	-2229.51	  517.88
     17.5700	  674.00	  656.31	-2245.56	  516.94
     17.6700	  629.00	  655.37	-2289.62	  516.01
     17.7700	  635.00	  654.44	-2282.69	  515.09
     17.8700	  630.00	  653.53	-2286.78	  514.18
     17.9700	  659.00	  652.62	-2256.87	  513.28
     18.0700	  637.00	  651.72	-2277.97	  512.38
     18.1700	  671.00	  650.83	-2243.08	  511.50
     18.2700	  703.00	  649.96	-2210.21	  510.63
     18.3700	  669.00	  649.09	-2243.34	  509.77
     18.4700	  660.00	  648.23	-2251.48	  508.91
     18.5700	  647.00	  647.38	-2263.63	  508.07
     18.6700	  631.00	  646.55	-2278.80	  507.23
     18.7700	  667.00	  645.72	-2241.97	  506.41
     18.8700	  641.00	  644.90	-2267.15	  505.59
     18.9700	  643.00	  644.09	-2264.34	  504.78
     19.0700	  626.00	  644.58	-2281.83	  503.98
     19.1700	  659.00	  645.97	-2250.22	  503.19
     19.2700	  685.00	  645.26	-2223.51	  502.41
     19.3700	  640.00	  644.57	-2267.82	  501.64
     19.4700	  664.00	  643.88	-2243.13	  500.88
     19.5700	  629.00	  643.21	-2277.46	  500.12
     19.6700	  579.00	  642.55	-2326.80	  499.38
     19.7700	  608.00	  641.90	-2297.15	  498.64
     19.8700	  631.00	  641.26	-2273.51	  497.91
     19.9700	  639.00	  640.64	-2264.89	  497.19
     20.0700	  621.00	  640.03	-2282.28	  496.48
     20.1700	  593.00	  639.49	-2309.75	  495.77
     20.2700	  683.00	  638.91	-2219.16	  495.08
     20.3700	  633.00	  638.34	-2268.59	  494.39
     20.4700	  666.00	  637.78	-2235.03	  493.71
     20.5700	  612.00	  637.23	-2288.48	  493.04
     20.6700	  660.00	  636.69	-2239.94	  492.38
     20.7700	  588.00	  636.17	-2311.42	  491.73
     20.8700	  645.00	  635.67	-2253.92	  491.08
     20.9700	  661.00	  635.17	-2237.42	  490.44
     21.0700	  626.00	  634.70	-2271.95	  489.81
     21.1700	  567.00	  634.23	-2330.48	  489.19
     21.2700	  659.00	  633.78	-2238.03	  488.57
     21.3700	  633.00	  633.35	-2263.60	  487.97
     21.4700	  638.00	  632.93	-2258.18	  487.37
     21.5700	  609.00	  632.53	-2286.78	  486.78
     21.6700	  641.00	  632.15	-2254.40	  486.19
     21.7700	  647.00	  631.78	-2248.03	  485.62
     21.8700	  633.00	  631.43	-2261.68	  485.05
     21.9700	  623.00	  631.10	-2271.35	  484.49
     22.0700	  669.00	  630.80	-2225.05	  483.93
     22.1700	  639.00	  630.51	-2254.76	  483.38
     22.2700	  640.00	  630.45	-2253.70	  482.85
     22.3700	  666.00	  630.21	-2227.46	  482.31
     22.4700	  616.00	  630.00	-2277.25	  481.79
     22.5700	  644.00	  629.81	-2249.06	  481.27
     22.6700	  636.00	  629.65	-2256.90	  480.76
     22.7700	  635.00	  629.52	-2257.77	  480.26
     22.8700	  598.00	  629.42	-2294.67	  479.76
     22.9700	  623.00	  629.36	-2269.61	  479.27
     23.0700	  626.00	  629.34	-2266.59	  478.79
     23.1700	  635.00	  629.36	-2257.61	  478.31
     23.2700	  651.00	  629.44	-2241.69	  477.84
     23.3700	  700.00	  629.57	-2192.82	  477.38
     23.4700	  670.00	  629.77	-2223.02	  476.92
     23.5700	  645.00	  630.05	-2248.30	  476.47
     23.6700	  661.00	  630.42	-2232.67	  476.03
     23.7700	  710.00	  630.92	-2184.17	  475.59
     23.8700	  633.00	  631.57	-2261.82	  475.16
     23.9700	  666.00	  632.44	-2229.69	  474.74
     24.0700	  623.00	  633.58	-2273.83	  474.32
     24.1700	  615.00	  635.27	-2283.52	  473.91
     24.2700	  649.00	  637.70	-2251.95	  473.51
     24.3700	  637.00	  641.21	-2267.46	  473.11
     24.4700	  672.00	  646.22	-2237.47	  472.72
     24.5700	  649.00	  653.03	-2267.28	  472.34
     24.6700	  702.00	  661.72	-2222.97	  471.96
     24.7700	  725.00	  671.84	-2210.09	  471.58
     24.8700	  716.00	  682.19	-2229.44	  471.22
     24.9700	  710.00	  690.49	-2243.74	  470.86
     25.0700	  777.00	  693.54	-2179.79	  470.50
     25.1700	  721.00	  689.30	-2231.55	  470.15
     25.2700	  760.00	  679.97	-2183.22	  469.81
     25.3700	  721.00	  669.85	-2212.10	  469.47
     25.4700	  641.00	  661.80	-2284.05	  469.14
     25.5700	  702.00	  656.50	-2217.75	  468.81
     25.6700	  684.00	  653.68	-2232.93	  468.49
     25.7700	  683.00	  652.78	-2233.03	  468.18
     25.8700	  674.00	  653.25	-2242.50	  467.87
     25.9700	  677.00	  654.68	-2240.93	  467.57
     26.0700	  649.00	  656.87	-2271.12	  467.27
     26.1700	  671.00	  659.71	-2251.96	  466.97
     26.2700	  635.00	  663.20	-2291.45	  466.69
     26.3700	  669.00	  667.38	-2261.63	  466.41
     26.4700	  663.00	  672.34	-2272.59	  466.13
     26.5700	  681.00	  678.19	-2260.44	  465.86
     26.6700	  707.00	  685.11	-2241.36	  465.59
     26.7700	  676.00	  693.32	-2280.57	  465.33
     26.8700	  704.00	  703.10	-2262.35	  465.08
     26.9700	  692.00	  714.87	-2286.12	  464.83
     27.0700	  698.00	  729.16	-2294.41	  464.58
     27.1700	  646.00	  746.72	-2363.97	  464.34
     27.2700	  733.00	  768.64	-2298.89	  464.10
     27.3700	  743.00	  796.61	-2316.86	  463.87
     27.4700	  755.00	  833.70	-2341.95	  463.65
     27.5700	  837.00	  886.33	-2312.58	  463.43
     27.6700	  880.00	  968.76	-2352.01	  463.21
     27.7700	  888.00	 1110.85	-2486.10	  463.00
     27.8700	 1069.00	 1367.76	-2562.01	  462.79
     27.9700	 1354.00	 1826.54	-2735.79	  462.59
     28.0700	 2044.00	 2596.73	-2815.98	  462.40
     28.1700	 3327.00	 3766.10	-2702.35	  462.20
     28.2700	 5462.00	 5306.53	-2107.78	  462.02
     28.3700	 7730.00	 6936.36	-1469.61	  461.83
     28.4700	 9053.00	 8047.29	-1257.54	  461.65
     28.5700	 8646.00	 7936.96	-1554.21	  461.48
     28.6700	 6857.00	 6638.87	-2045.12	  461.31
     28.7700	 4893.00	 5152.30	-2522.55	  461.14
     28.8700	 3825.00	 4265.29	-2703.54	  460.98
     28.9700	 4001.00	 4121.87	-2384.12	  460.83
     29.0700	 4787.00	 4436.27	-1912.52	  460.67
     29.1700	 5101.00	 4725.64	-1887.89	  460.52
     29.2700	 4764.00	 4527.48	-2026.73	  460.38
     29.3700	 3755.00	 3756.76	-2265.01	  460.24
     29.4700	 2609.00	 2797.52	-2451.77	  460.10
     29.5700	 1834.00	 1997.91	-2427.16	  459.97
     29.6700	 1376.00	 1462.86	-2350.11	  459.84
     29.7700	 1043.00	 1153.63	-2373.88	  459.72
     29.8700	  943.00	  987.86	-2308.11	  459.60
     29.9700	  914.00	  896.92	-2246.17	  459.48
     30.0700	  859.00	  841.42	-2245.67	  459.37
     30.1700	  810.00	  803.44	-2256.69	  459.26
     30.2700	  782.00	  775.69	-2256.94	  459.16
     30.3700	  772.00	  755.16	-2246.41	  459.06
     30.4700	  758.00	  740.72	-2245.97	  458.96
     30.5700	  772.00	  732.43	-2223.68	  458.87
     30.6700	  798.00	  731.36	-2196.61	  458.78
     30.7700	  711.00	  739.25	-2291.50	  458.69
     30.8700	  729.00	  757.27	-2291.52	  458.61
     30.9700	  786.00	  784.12	-2261.37	  458.53
     31.0700	  803.00	  814.05	-2274.30	  458.46
     31.1700	  801.00	  835.96	-2298.21	  458.38
     31.2700	  901.00	  835.56	-2197.81	  458.32
     31.3700	  827.00	  807.13	-2243.38	  458.25
     31.4700	  774.00	  763.65	-2252.90	  458.19
     31.5700	  735.00	  722.19	-2250.44	  458.13
     31.6700	  714.00	  690.66	-2239.91	  458.08
     31.7700	  710.00	  669.74	-2222.99	  458.02
     31.8700	  676.00	  656.90	-2244.15	  457.98
     31.9700	  657.00	  649.14	-2255.39	  457.93
     32.0700	  674.00	  644.17	-2233.42	  457.89
     32.1700	  676.00	  640.71	-2227.96	  457.85
     32.2700	  646.00	  638.14	-2255.39	  457.81
     32.3700	  662.00	  636.20	-2237.45	  457.78
     32.4700	  692.00	  634.74	-2205.99	  457.75
     32.5700	  639.00	  633.72	-2257.97	  457.72
     32.6700	  646.00	  633.14	-2250.39	  457.70
     32.7700	  694.00	  632.93	-2202.18	  457.68
     32.8700	  699.00	  633.15	-2197.40	  457.66
     32.9700	  610.00	  633.86	-2287.11	  457.65
     33.0700	  653.00	  635.13	-2245.38	  457.63
     33.1700	  683.00	  637.12	-2217.37	  457.62
     33.2700	  650.00	  640.07	-2253.32	  457.62
     33.3700	  652.00	  644.47	-2255.72	  457.61
     33.4700	  691.00	  651.24	-2223.49	  457.61
     33.5700	  681.00	  662.19	-2244.44	  457.61
     33.6700	  672.00	  680.53	-2271.78	  457.62
     33.7700	  713.00	  711.32	-2261.57	  457.62
     33.8700	  764.00	  761.05	-2260.30	  457.63
     33.9700	  799.00	  835.34	-2299.59	  457.65
     34.0700	  931.00	  934.12	-2266.37	  457.66
     34.1700	 1050.00	 1045.96	-2259.21	  457.68
     34.2700	 1259.00	 1144.34	-2148.59	  457.70
     34.3700	 1318.00	 1190.36	-2135.61	  457.72
     34.4700	 1257.00	 1154.33	-2160.58	  457.74
     34.5700	 1167.00	 1051.79	-2148.04	  457.77
     34.6700	  913.00	  930.88	-2281.13	  457.80
     34.7700	  839.00	  826.47	-2250.72	  457.83
     34.8700	  767.00	  750.32	-2246.57	  457.86
     34.9700	  741.00	  700.81	-2223.06	  457.90
     35.0700	  702.00	  670.98	-2232.23	  457.93
     35.1700	  672.00	  653.46	-2244.71	  457.97
     35.2700	  676.00	  642.81	-2230.06	  458.01
     35.3700	  666.00	  635.81	-2233.06	  458.06
     35.4700	  626.00	  630.82	-2268.07	  458.10
     35.5700	  626.00	  627.11	-2264.36	  458.15
     35.6700	  635.00	  624.16	-2252.41	  458.20
     35.7700	  668.00	  621.81	-2217.06	  458.26
     35.8700	  658.00	  619.93	-2225.18	  458.31
     35.9700	  611.00	  618.40	-2270.65	  458.37
     36.0700	  614.00	  617.17	-2266.42	  458.42
     36.1700	  571.00	  616.19	-2308.44	  458.48
     36.2700	  639.00	  615.41	-2239.66	  458.55
     36.3700	  608.00	  614.81	-2270.06	  458.61
     36.4700	  593.00	  614.39	-2284.64	  458.68
     36.5700	  600.00	  614.12	-2277.37	  458.74
     36.6700	  667.00	  614.00	-2210.25	  458.81
     36.7700	  669.00	  614.05	-2208.30	  458.88
     36.8700	  618.00	  614.49	-2259.74	  458.95
     36.9700	  643.00	  614.93	-2235.18	  459.03
     37.0700	  648.00	  615.62	-2230.87	  459.10
     37.1700	  595.00	  616.62	-2284.87	  459.18
     37.2700	  638.00	  618.65	-2243.90	  459.26
     37.3700	  636.00	  620.89	-2248.14	  459.34
     37.4700	  637.00	  624.26	-2250.51	  459.42
     37.5700	  663.00	  629.47	-2229.72	  459.51
     37.6700	  622.00	  637.62	-2278.87	  459.59
     37.7700	  619.00	  650.20	-2294.45	  459.68
     37.8700	  673.00	  668.84	-2259.09	  459.77
     37.9700	  688.00	  694.68	-2269.93	  459.85
     38.0700	  689.00	  725.08	-2299.33	  459.95
     38.1700	  730.00	  760.62	-2293.87	  460.04
     38.2700	  768.00	  792.00	-2287.25	  460.13
     38.3700	  787.00	  808.62	-2284.87	  460.23
     38.4700	  815.00	  801.30	-2249.55	  460.32
     38.5700	  706.00	  771.88	-2329.13	  460.42
     38.6700	  720.00	  733.07	-2276.32	  460.52
     38.7700	  734.00	  696.48	-2225.73	  460.62
     38.8700	  655.00	  667.50	-2275.75	  460.72
     38.9700	  634.00	  647.04	-2276.29	  460.82
     39.0700	  649.00	  633.76	-2248.01	  460.92
     39.1700	  616.00	  625.57	-2272.82	  461.03
     39.2700	  660.00	  620.57	-2223.82	  461.13
     39.3700	  621.00	  617.41	-2259.66	  461.24
     39.4700	  613.00	  614.02	-2264.27	  461.35
     39.5700	  594.00	  612.51	-2281.76	  461.45
     39.6700	  603.00	  611.38	-2271.63	  461.56
     39.7700	  593.00	  610.51	-2280.76	  461.67
     39.8700	  637.00	  609.83	-2236.08	  461.79
     39.9700	  657.00	  609.30	-2215.55	  461.90
     40.0700	  601.00	  608.90	-2271.15	  462.01
     40.1700	  601.00	  608.59	-2270.84	  462.12
     40.2700	  635.00	  608.36	-2236.61	  462.24
     40.3700	  643.00	  608.20	-2228.45	  462.35
     40.4700	  641.00	  608.10	-2230.35	  462.47
     40.5700	  632.00	  608.05	-2239.30	  462.59
     40.6700	  599.00	  608.05	-2272.30	  462.71
     40.7700	  610.00	  608.63	-2261.88	  462.83
     40.8700	  672.00	  608.72	-2199.97	  462.94
     40.9700	  599.00	  608.86	-2273.11	  463.06
     41.0700	  645.00	  609.03	-2227.28	  463.19
     41.1700	  566.00	  609.31	-2306.56	  463.31
     41.2700	  593.00	  609.58	-2279.83	  463.43
     41.3700	  567.00	  609.91	-2306.16	  463.55
     41.4700	  630.00	  610.30	-2243.55	  463.67
     41.5700	  600.00	  610.76	-2274.01	  463.80
     41.6700	  594.00	  611.32	-2280.57	  463.92
     41.7700	  589.00	  612.00	-2286.25	  464.05
     41.8700	  565.00	  612.83	-2311.08	  464.17
     41.9700	  602.00	  613.88	-2275.13	  464.30
     42.0700	  601.00	  615.30	-2277.55	  464.43
     42.1700	  583.00	  617.32	-2297.57	  464.55
     42.2700	  636.00	  620.29	-2247.54	  464.68
     42.3700	  622.00	  624.99	-2266.24	  464.81
     42.4700	  629.00	  632.25	-2266.50	  464.94
     42.5700	  590.00	  643.02	-2316.27	  465.06
     42.6700	  625.00	  657.97	-2296.22	  465.19
     42.7700	  629.00	  676.90	-2311.15	  465.32
     42.8700	  681.00	  697.97	-2280.22	  465.45
     42.9700	  712.00	  717.09	-2268.34	  465.58
     43.0700	  668.00	  728.16	-2323.41	  465.71
     43.1700	  696.00	  726.18	-2293.43	  465.84
     43.2700	  652.00	  711.84	-2323.09	  465.97
     43.3700	  687.00	  691.28	-2267.53	  466.10
     43.4700	  601.00	  670.63	-2332.88	  466.23
     43.5700	  613.00	  653.32	-2303.57	  466.36
     43.6700	  608.00	  640.32	-2295.57	  466.50
     43.7700	  640.00	  631.33	-2254.58	  466.63
     43.8700	  640.00	  625.55	-2248.79	  466.76
     43.9700	  639.00	  621.97	-2246.22	  466.89
     44.0700	  664.00	  619.97	-2219.22	  467.02
     44.1700	  583.00	  618.60	-2298.85	  467.15
     44.2700	  600.00	  617.71	-2280.96	  467.29
     44.3700	  659.00	  617.10	-2221.35	  467.42
     44.4700	  643.00	  616.68	-2236.93	  467.55
     44.5700	  621.00	  616.40	-2258.65	  467.68
     44.6700	  637.00	  616.23	-2242.48	  467.81
     44.7700	  650.00	  616.15	-2229.40	  467.94
     44.8700	  616.00	  616.12	-2263.37	  468.08
     44.9700	  633.00	  616.15	-2246.40	  468.21
     45.0700	  613.00	  616.49	-2266.74	  468.34
     45.1700	  610.00	  616.61	-2269.86	  468.47
     45.2700	  630.00	  616.77	-2250.02	  468.60
     45.3700	  645.00	  616.97	-2235.22	  468.73
     45.4700	  644.00	  617.20	-2236.45	  468.87
     45.5700	  628.00	  617.46	-2252.71	  469.00
     45.6700	  575.00	  617.84	-2306.09	  469.13
     45.7700	  653.00	  618.16	-2228.41	  469.26
     45.8700	  632.00	  618.52	-2249.77	  469.39
     45.9700	  598.00	  618.90	-2284.15	  469.52
     46.0700	  637.00	  619.32	-2245.57	  469.65
     46.1700	  598.00	  619.78	-2285.03	  469.78
     46.2700	  630.00	  620.30	-2253.55	  469.91
     46.3700	  619.00	  620.63	-2264.88	  470.04
     46.4700	  659.00	  621.23	-2225.48	  470.16
     46.5700	  653.00	  622.05	-2232.30	  470.29
     46.6700	  661.00	  622.77	-2225.02	  470.42
     46.7700	  617.00	  623.58	-2269.83	  470.55
     46.8700	  586.00	  624.48	-2301.73	  470.68
     46.9700	  597.00	  625.51	-2291.76	  470.80
     47.0700	  604.00	  626.69	-2285.94	  470.93
     47.1700	  639.00	  628.09	-2252.34	  471.06
     47.2700	  651.00	  629.84	-2242.09	  471.18
     47.3700	  635.00	  632.13	-2260.38	  471.31
     47.4700	  624.00	  635.28	-2274.53	  471.43
     47.5700	  686.00	  639.78	-2217.03	  471.56
     47.6700	  676.00	  646.22	-2233.47	  471.68
     47.7700	  662.00	  655.23	-2256.48	  471.81
     47.8700	  619.00	  667.27	-2311.52	  471.93
     47.9700	  702.00	  682.27	-2243.52	  472.05
     48.0700	  721.00	  699.28	-2241.53	  472.17
     48.1700	  675.00	  715.96	-2304.21	  472.29
     48.2700	  756.00	  728.56	-2235.81	  472.42
     48.3700	  644.00	  733.07	-2352.32	  472.54
     48.4700	  698.00	  728.17	-2293.42	  472.66
     48.5700	  692.00	  717.10	-2288.35	  472.77
     48.6700	  640.00	  703.44	-2326.69	  472.89
     48.7700	  670.00	  690.97	-2284.22	  473.01
     48.8700	  656.00	  681.46	-2288.71	  473.13
     48.9700	  657.00	  675.48	-2281.73	  473.25
     49.0700	  616.00	  672.94	-2320.19	  473.36
     49.1700	  659.00	  673.44	-2277.69	  473.48
     49.2700	  674.00	  676.59	-2265.84	  473.59
     49.3700	  666.00	  682.17	-2279.42	  473.71
     49.4700	  700.00	  690.44	-2253.69	  473.82
     49.5700	  680.00	  702.46	-2285.71	  473.93
     49.6700	  733.00	  721.08	-2251.33	  474.04
     49.7700	  722.00	  752.71	-2293.96	  474.15
     49.8700	  814.00	  810.06	-2259.31	  474.27
     49.9700	  926.00	  914.73	-2251.98	  474.38
     50.0700	 1136.00	 1096.50	-2223.75	  474.48
     50.1700	 1517.00	 1385.31	-2131.56	  474.59
     50.2700	 1877.00	 1794.31	-2180.56	  474.70
     50.3700	 2480.00	 2297.22	-2080.47	  474.81
     50.4700	 2874.00	 2810.64	-2199.89	  474.91
     50.5700	 3240.00	 3194.67	-2217.92	  475.02
     50.6700	 3272.00	 3299.93	-2291.18	  475.12
     50.7700	 2998.00	 3074.36	-2339.61	  475.22
     50.8700	 2502.00	 2619.21	-2380.46	  475.33
     50.9700	 1966.00	 2096.73	-2393.98	  475.43
     51.0700	 1510.00	 1628.50	-2381.75	  475.53
     51.1700	 1248.00	 1274.04	-2289.29	  475.63
     51.2700	 1047.00	 1040.44	-2256.69	  475.73
     51.3700	  923.00	  904.20	-2244.45	  475.83
     51.4700	  862.00	  832.08	-2233.33	  475.92
     51.5700	  786.00	  795.15	-2272.40	  476.02
     51.6700	  807.00	  773.76	-2230.01	  476.12
     51.7700	  772.00	  757.41	-2248.66	  476.21
     51.8700	  771.00	  742.63	-2234.88	  476.30
     51.9700	  791.00	  729.23	-2201.48	  476.40
     52.0700	  726.00	  717.90	-2255.15	  476.49
     52.1700	  720.00	  708.97	-2252.22	  476.58
     52.2700	  742.00	  702.31	-2223.56	  476.67
     52.3700	  741.00	  697.42	-2219.67	  476.76
     52.4700	  723.00	  693.81	-2234.06	  476.84
     52.5700	  719.00	  691.35	-2235.60	  476.93
     52.6700	  692.00	  690.28	-2261.53	  477.02
     52.7700	  688.00	  691.06	-2266.31	  477.10
     52.8700	  719.00	  694.32	-2238.57	  477.18
     52.9700	  677.00	  701.03	-2287.28	  477.27
     53.0700	  684.00	  712.71	-2291.96	  477.35
     53.1700	  693.00	  731.58	-2301.83	  477.43
     53.2700	  743.00	  760.52	-2280.77	  477.51
     53.3700	  745.00	  802.73	-2320.98	  477.59
     53.4700	  869.00	  860.88	-2255.13	  477.66
     53.5700	  943.00	  936.06	-2256.31	  477.74
     53.6700	 1041.00	 1025.77	-2248.02	  477.82
     53.7700	 1154.00	 1122.84	-2232.09	  477.89
     53.8700	 1275.00	 1213.03	-2201.28	  477.96
     53.9700	 1324.00	 1275.45	-2214.70	  478.03
     54.0700	 1326.00	 1289.91	-2227.16	  478.11
     54.1700	 1238.00	 1250.81	-2276.06	  478.17
     54.2700	 1227.00	 1172.28	-2208.53	  478.24
     54.3700	 1060.00	 1076.83	-2280.08	  478.31
     54.4700	  933.00	  982.71	-2312.96	  478.38
     54.5700	  867.00	  900.49	-2296.74	  478.44
     54.6700	  849.00	  834.67	-2248.92	  478.51
     54.7700	  740.00	  785.62	-2308.87	  478.57
     54.8700	  759.00	  751.29	-2255.54	  478.63
     54.9700	  690.00	  728.54	-2301.79	  478.69
     55.0700	  699.00	  714.16	-2278.41	  478.75
     55.1700	  704.00	  705.49	-2264.74	  478.81
     55.2700	  646.00	  700.60	-2317.85	  478.86
     55.3700	  690.00	  698.24	-2271.49	  478.92
     55.4700	  683.00	  697.70	-2277.95	  478.98
     55.5700	  687.00	  698.62	-2274.87	  479.03
     55.6700	  681.00	  700.85	-2283.10	  479.08
     55.7700	  683.00	  704.41	-2284.66	  479.13
     55.8700	  704.00	  709.44	-2268.69	  479.18
     55.9700	  740.00	  716.28	-2239.53	  479.23
     56.0700	  689.00	  725.55	-2299.80	  479.28
     56.1700	  735.00	  738.48	-2266.73	  479.32
     56.2700	  760.00	  757.38	-2260.63	  479.37
     56.3700	  754.00	  786.32	-2295.57	  479.41
     56.4700	  793.00	  831.96	-2302.21	  479.45
     56.5700	  905.00	  903.96	-2262.21	  479.49
     56.6700	 1014.00	 1014.59	-2263.84	  479.53
     56.7700	 1204.00	 1176.65	-2235.90	  479.57
     56.8700	 1432.00	 1399.21	-2230.46	  479.61
     56.9700	 1773.00	 1682.11	-2172.36	  479.65
     57.0700	 2063.00	 2009.85	-2210.10	  479.68
     57.1700	 2295.00	 2345.67	-2313.92	  479.71
     57.2700	 2697.00	 2628.89	-2195.14	  479.75
     57.3700	 2795.00	 2783.76	-2252.01	  479.78
     57.4700	 2712.00	 2756.49	-2307.74	  479.81
     57.5700	 2429.00	 2557.00	-2391.25	  479.83
     57.6700	 2275.00	 2251.30	-2239.55	  479.86
     57.7700	 1876.00	 1914.05	-2301.30	  479.89
     57.8700	 1479.00	 1599.31	-2383.56	  479.91
     57.9700	 1307.00	 1336.77	-2293.02	  479.93
     58.0700	 1066.00	 1136.80	-2334.05	  479.96
     58.1700	  990.00	  996.58	-2269.83	  479.98
     58.2700	  908.00	  906.16	-2261.41	  479.99
     58.3700	  864.00	  854.17	-2253.42	  480.01
     58.4700	  870.00	  831.48	-2224.73	  480.03
     58.5700	  872.00	  832.64	-2223.89	  480.04
     58.6700	  807.00	  855.47	-2311.72	  480.06
     58.7700	  859.00	  899.70	-2303.95	  480.07
     58.8700	  912.00	  964.43	-2315.69	  480.08
     58.9700	 1042.00	 1046.23	-2267.48	  480.09
     59.0700	 1127.00	 1137.36	-2273.61	  480.10
     59.1700	 1174.00	 1225.67	-2314.92	  480.11
     59.2700	 1255.00	 1297.95	-2306.20	  480.11
     59.3700	 1318.00	 1346.52	-2291.77	  480.12
     59.4700	 1379.00	 1370.68	-2254.93	  480.12
     59.5700	 1342.00	 1370.74	-2291.99	  480.12
     59.6700	 1341.00	 1346.69	-2268.94	  480.12
     59.7700	 1318.00	 1304.53	-2249.78	  480.12
     59.8700	 1297.00	 1258.02	-2224.27	  480.12
     59.9700	 1257.00	 1221.96	-2228.21	  480.12
     60.0700	 1257.00	 1206.75	-2213.00	  480.11
     60.1700	 1235.00	 1218.31	-2246.56	  480.10
     60.2700	 1304.00	 1259.97	-2219.22	  480.10
     60.3700	 1413.00	 1332.37	-2182.62	  480.09
     60.4700	 1529.00	 1430.06	-2164.31	  480.08
     60.5700	 1546.00	 1538.02	-2255.27	  480.06
     60.6700	 1668.00	 1630.85	-2226.10	  480.05
     60.7700	 1604.00	 1677.11	-2336.36	  480.04
     60.8700	 1556.00	 1653.28	-2360.53	  480.02
     60.9700	 1512.00	 1560.24	-2311.49	  480.00
     61.0700	 1317.00	 1422.23	-2368.48	  479.98
     61.1700	 1184.00	 1269.52	-2348.77	  479.96
     61.2700	 1119.00	 1126.03	-2270.28	  479.94
     61.3700	 1002.00	 1006.29	-2267.54	  479.92
     61.4700	  907.00	  916.71	-2272.96	  479.90
     61.5700	  888.00	  857.83	-2233.08	  479.87
     61.6700	  830.00	  827.30	-2260.55	  479.84
     61.7700	  851.00	  822.73	-2234.98	  479.82
     61.8700	  899.00	  843.68	-2207.93	  479.79
     61.9700	  904.00	  892.20	-2251.45	  479.76
     62.0700	 1031.00	  971.87	-2204.12	  479.72
     62.1700	 1124.00	 1085.67	-2224.92	  479.69
     62.2700	 1309.00	 1232.89	-2187.14	  479.65
     62.3700	 1465.00	 1406.23	-2204.48	  479.62
     62.4700	 1631.00	 1589.36	-2221.61	  479.58
     62.5700	 1792.00	 1755.53	-2226.78	  479.54
     62.6700	 1881.00	 1869.62	-2251.87	  479.50
     62.7700	 1827.00	 1899.37	-2335.62	  479.46
     62.8700	 1764.00	 1834.72	-2333.97	  479.42
     62.9700	 1706.00	 1695.63	-2252.88	  479.37
     63.0700	 1517.00	 1517.59	-2263.84	  479.32
     63.1700	 1224.00	 1333.35	-2372.60	  479.28
     63.2700	 1096.00	 1165.72	-2332.97	  479.23
     63.3700	  965.00	 1027.20	-2325.45	  479.18
     63.4700	  895.00	  921.73	-2289.98	  479.13
     63.5700	  844.00	  847.26	-2266.51	  479.07
     63.6700	  811.00	  798.21	-2250.46	  479.02
     63.7700	  760.00	  768.33	-2271.58	  478.96
     63.8700	  782.00	  752.03	-2233.28	  478.91
     63.9700	  762.00	  745.41	-2246.66	  478.85
     64.0700	  743.00	  746.49	-2266.74	  478.79
     64.1700	  800.00	  755.03	-2218.28	  478.73
     64.2700	  778.00	  771.91	-2257.16	  478.67
     64.3700	  800.00	  800.76	-2264.01	  478.60
     64.4700	  795.00	  844.62	-2312.87	  478.54
     64.5700	  932.00	  907.29	-2238.54	  478.47
     64.6700	 1036.00	  991.90	-2219.15	  478.40
     64.7700	 1121.00	 1099.54	-2241.79	  478.34
     64.8700	 1227.00	 1227.72	-2263.97	  478.26
     64.9700	 1328.00	 1368.78	-2304.03	  478.19
     65.0700	 1490.00	 1508.93	-2282.18	  478.12
     65.1700	 1707.00	 1628.96	-2185.21	  478.05
     65.2700	 1668.00	 1708.15	-2303.40	  477.97
     65.3700	 1750.00	 1729.76	-2243.01	  477.89
     65.4700	 1598.00	 1688.93	-2354.18	  477.82
     65.5700	 1521.00	 1594.76	-2337.01	  477.74
     65.6700	 1513.00	 1468.07	-2218.32	  477.65
     65.7700	 1234.00	 1330.82	-2360.07	  477.57
     65.8700	 1119.00	 1199.64	-2343.89	  477.49
     65.9700	  958.00	 1084.36	-2389.61	  477.40
     66.0700	  935.00	  988.99	-2317.24	  477.32
     66.1700	  854.00	  913.65	-2322.90	  477.23
     66.2700	  754.00	  856.40	-2365.65	  477.14
     66.3700	  773.00	  814.21	-2304.46	  477.05
     66.4700	  786.00	  783.91	-2261.16	  476.96
     66.5700	  693.00	  762.54	-2332.79	  476.87
     66.6700	  719.00	  747.74	-2291.99	  476.77
     66.7700	  735.00	  737.81	-2266.06	  476.68
     66.8700	  690.00	  731.63	-2304.88	  476.58
     66.9700	  739.00	  728.57	-2252.82	  476.48
     67.0700	  738.00	  728.42	-2253.67	  476.38
     67.1700	  703.00	  731.08	-2291.33	  476.28
     67.2700	  695.00	  737.11	-2305.36	  476.18
     67.3700	  763.00	  747.61	-2247.86	  476.08
     67.4700	  780.00	  764.68	-2247.93	  475.98
     67.5700	  814.00	  791.27	-2240.52	  475.87
     67.6700	  854.00	  832.11	-2241.36	  475.76
     67.7700	  948.00	  893.24	-2208.49	  475.66
     67.8700	  980.00	  981.57	-2264.82	  475.55
     67.9700	 1160.00	 1103.98	-2207.23	  475.44
     68.0700	 1285.00	 1265.52	-2243.77	  475.32
     68.1700	 1557.00	 1467.26	-2173.51	  475.21
     68.2700	 1810.00	 1703.97	-2157.22	  475.10
     68.3700	 1974.00	 1962.16	-2251.41	  474.98
     68.4700	 2176.00	 2218.48	-2305.73	  474.87
     68.5700	 2407.00	 2439.26	-2295.51	  474.75
     68.6700	 2517.00	 2584.12	-2330.37	  474.63
     68.7700	 2623.00	 2619.04	-2259.29	  474.51
     68.8700	 2460.00	 2534.63	-2337.88	  474.39
     68.9700	 2375.00	 2352.47	-2240.72	  474.26
     69.0700	 2169.00	 2111.47	-2205.72	  474.14
     69.1700	 1876.00	 1850.17	-2237.42	  474.02
     69.2700	 1685.00	 1598.14	-2176.39	  473.89
     69.3700	 1336.00	 1374.34	-2301.59	  473.76
     69.4700	 1226.00	 1188.60	-2225.85	  473.63
     69.5700	 1118.00	 1043.18	-2188.43	  473.50
     69.6700	  994.00	  935.07	-2204.32	  473.37
     69.7700	  972.00	  858.20	-2149.45	  473.24
     69.8700	  823.00	  805.45	-2245.70	  473.11
     69.9700	  825.00	  770.11	-2208.36	  472.97
     70.0700	  818.00	  746.65	-2191.90	  472.84
     70.1700	  775.00	  730.98	-2219.23	  472.70
     70.2700	  769.00	  720.34	-2214.59	  472.57
     70.3700	  721.00	  712.97	-2255.22	  472.43
     70.4700	  746.00	  707.82	-2225.07	  472.29
     70.5700	  784.00	  704.29	-2183.54	  472.15
     70.6700	  732.00	  702.06	-2233.31	  472.00
     70.7700	  728.00	  701.02	-2236.27	  471.86
     70.8700	  782.00	  700.93	-2182.18	  471.72
     70.9700	  722.00	  702.34	-2243.59	  471.57
     71.0700	  682.00	  705.31	-2286.56	  471.42
     71.1700	  752.00	  710.39	-2221.64	  471.28
     71.2700	  767.00	  718.47	-2214.72	  471.13
     71.3700	  699.00	  730.96	-2295.21	  470.98
     71.4700	  800.00	  749.94	-2213.19	  470.83
     71.5700	  810.00	  778.30	-2231.55	  470.68
     71.6700	  789.00	  819.61	-2293.86	  470.52
     71.7700	  899.00	  878.04	-2242.29	  470.37
     71.8700	  979.00	  957.71	-2241.96	  470.21
     71.9700	 1092.00	 1061.86	-2233.11	  470.06
     72.0700	 1212.00	 1191.77	-2243.02	  469.90
     72.1700	 1328.00	 1345.67	-2280.92	  469.74
     72.2700	 1495.00	 1517.65	-2285.90	  469.58
     72.3700	 1710.00	 1696.65	-2249.90	  469.42
     72.4700	 1838.00	 1865.98	-2291.23	  469.26
     72.5700	 1946.00	 2003.54	-2320.79	  469.10
     72.6700	 2095.00	 2085.42	-2253.67	  468.94
     72.7700	 2046.00	 2094.06	-2311.31	  468.77
     72.8700	 1976.00	 2027.37	-2314.62	  468.61
     72.9700	 1826.00	 1900.05	-2337.30	  468.44
     73.0700	 1744.00	 1736.21	-2255.46	  468.28
     73.1700	 1590.00	 1557.35	-2230.60	  468.11
     73.2700	 1335.00	 1382.14	-2310.39	  467.94
     73.3700	 1219.00	 1222.80	-2267.05	  467.77
     73.4700	 1131.00	 1086.26	-2218.51	  467.60
     73.5700	  954.00	  975.12	-2284.37	  467.43
     73.6700	  921.00	  888.64	-2230.89	  467.25
     73.7700	  831.00	  823.95	-2256.20	  467.08
     73.8700	  786.00	  777.16	-2254.41	  466.91
     73.9700	  801.00	  743.63	-2205.88	  466.73
     74.0700	  722.00	  720.80	-2262.05	  466.56
     74.1700	  720.00	  705.17	-2248.42	  466.38
     74.2700	  722.00	  694.58	-2235.83	  466.20
     74.3700	  695.00	  687.54	-2255.79	  466.02
     74.4700	  653.00	  683.13	-2293.38	  465.84
     74.5700	  728.00	  680.74	-2215.99	  465.66
     74.6700	  678.00	  680.00	-2265.25	  465.48
     74.7700	  698.00	  680.61	-2245.86	  465.30
     74.8700	  733.00	  682.28	-2212.53	  465.12
     74.9700	  703.00	  684.62	-2244.87	  464.93
     75.0700	  688.00	  687.33	-2262.58	  464.75
     75.1700	  740.00	  689.82	-2213.07	  464.56
     75.2700	  769.00	  691.53	-2185.78	  464.38
     75.3700	  743.00	  691.97	-2212.22	  464.19
     75.4700	  740.00	  690.99	-2214.24	  464.00
     75.5700	  760.00	  688.86	-2192.11	  463.81
     75.6700	  709.00	  686.23	-2240.48	  463.62
     75.7700	  780.00	  683.93	-2167.18	  463.43
     75.8700	  694.00	  682.78	-2252.03	  463.24
     75.9700	  676.00	  683.89	-2271.14	  463.05
     76.0700	  731.00	  688.19	-2220.44	  462.86
     76.1700	  743.00	  696.78	-2217.03	  462.67
     76.2700	  750.00	  710.77	-2224.02	  462.47
     76.3700	  706.00	  731.22	-2288.47	  462.28
     76.4700	  758.00	  758.97	-2264.22	  462.08
     76.5700	  761.00	  794.42	-2296.67	  461.89
     76.6700	  833.00	  837.33	-2267.58	  461.69
     76.7700	  881.00	  886.54	-2268.79	  461.49
     76.8700	  900.00	  939.81	-2303.06	  461.30
     76.9700	  976.00	  993.60	-2280.85	  461.10
     77.0700	 1066.00	 1043.04	-2240.29	  460.90
     77.1700	 1055.00	 1082.12	-2290.37	  460.70
     77.2700	 1079.00	 1104.69	-2288.94	  460.50
     77.3700	 1082.00	 1106.44	-2287.69	  460.30
     77.4700	 1079.00	 1086.92	-2271.17	  460.10
     77.5700	 1058.00	 1049.75	-2255.00	  459.89
     77.6700	 1018.00	 1000.85	-2246.10	  459.69
     77.7700	  944.00	  946.17	-2265.42	  459.49
     77.8700	  867.00	  891.19	-2287.44	  459.28
     77.9700	  854.00	  839.48	-2248.73	  459.08
     78.0700	  743.00	  793.45	-2313.70	  458.87
     78.1700	  741.00	  754.38	-2276.62	  458.67
     78.2700	  665.00	  722.58	-2320.83	  458.46
     78.3700	  739.00	  697.68	-2221.93	  458.26
     78.4700	  647.00	  678.83	-2295.08	  458.05
     78.5700	  671.00	  664.98	-2257.23	  457.84
     78.6700	  642.00	  654.98	-2276.23	  457.63
     78.7700	  658.00	  647.95	-2253.20	  457.42
     78.8700	  688.00	  643.04	-2218.29	  457.21
     78.9700	  651.00	  639.61	-2251.86	  457.00
     79.0700	  701.00	  637.23	-2199.48	  456.79
     79.1700	  692.00	  635.60	-2206.85	  456.58
     79.2700	  695.00	  634.53	-2202.78	  456.37
     79.3700	  674.00	  633.90	-2223.15	  456.16
     79.4700	  642.00	  633.67	-2254.92	  455.95
     79.5700	  606.00	  633.83	-2291.08	  455.74
     79.6700	  576.00	  634.40	-2321.65	  455.52
     79.7700	  595.00	  635.44	-2303.69	  455.31
     79.8700	  613.00	  637.03	-2287.28	  455.10
     79.9700	  641.00	  639.32	-2261.57	  454.88
     80.0700	  662.00	  642.54	-2243.79	  454.67
     80.1700	  617.00	  647.07	-2293.32	  454.45
     80.2700	  642.00	  653.45	-2274.70	  454.24
     80.3700	  655.00	  662.49	-2270.74	  454.02
     80.4700	  707.00	  675.10	-2231.34	  453.81
     80.5700	  649.00	  693.29	-2307.54	  453.59
     80.6700	  769.00	  718.65	-2212.90	  453.37
     80.7700	  806.00	  753.26	-2210.51	  453.16
     80.8700	  839.00	  799.19	-2223.44	  452.94
     80.9700	  936.00	  858.18	-2185.43	  452.72
     81.0700	  965.00	  931.25	-2229.50	  452.50
     81.1700	 1093.00	 1018.11	-2188.36	  452.29
     81.2700	 1144.00	 1116.73	-2235.98	  452.07
     81.3700	 1279.00	 1222.97	-2207.22	  451.85
     81.4700	 1409.00	 1330.42	-2184.67	  451.63
     81.5700	 1498.00	 1430.75	-2196.00	  451.41
     81.6700	 1517.00	 1514.60	-2260.85	  451.19
     81.7700	 1562.00	 1573.57	-2274.82	  450.97
     81.8700	 1665.00	 1602.26	-2200.51	  450.75
     81.9700	 1584.00	 1599.23	-2278.48	  450.53
     82.0700	 1566.00	 1566.49	-2263.74	  450.31
     82.1700	 1517.00	 1508.71	-2254.96	  450.09
     82.2700	 1371.00	 1432.60	-2324.85	  449.87
     82.3700	 1278.00	 1345.74	-2330.99	  449.65
     82.4700	 1234.00	 1255.22	-2284.47	  449.43
     82.5700	 1135.00	 1166.65	-2294.90	  449.21
     82.6700	 1104.00	 1084.09	-2243.34	  448.99
     82.7700	  973.00	 1010.11	-2300.36	  448.77
     82.8700	  922.00	  945.90	-2287.15	  448.55
     82.9700	  856.00	  891.38	-2298.63	  448.33
     83.0700	  818.00	  845.57	-2290.82	  448.11
     83.1700	  851.00	  807.06	-2219.31	  447.88
     83.2700	  745.00	  774.57	-2292.82	  447.66
     83.3700	  727.00	  747.14	-2283.39	  447.44
     83.4700	  705.00	  724.22	-2282.47	  447.22
     83.5700	  728.00	  705.47	-2240.72	  447.00
     83.6700	  696.00	  690.69	-2257.94	  446.78
     83.7700	  683.00	  679.75	-2260.00	  446.56
     83.8700	  614.00	  672.54	-2321.79	  446.33
     83.9700	  655.00	  668.85	-2277.10	  446.11
     84.0700	  648.00	  668.41	-2283.66	  445.89
     84.1700	  666.00	  670.79	-2268.04	  445.67
     84.2700	  658.00	  675.41	-2280.66	  445.45
     84.3700	  692.00	  681.38	-2252.63	  445.23
     84.4700	  688.00	  688.04	-2263.29	  445.01
     84.5700	  647.00	  694.42	-2310.67	  444.78
     84.6700	  684.00	  699.36	-2278.61	  444.56
     84.7700	  673.00	  701.89	-2292.14	  444.34
     84.8700	  686.00	  701.33	-2278.58	  444.12
     84.9700	  649.00	  697.55	-2311.80	  443.90
     85.0700	  652.00	  690.95	-2302.20	  443.68
     85.1700	  688.00	  682.30	-2257.55	  443.46
     85.2700	  659.00	  672.51	-2276.76	  443.24
     85.3700	  659.00	  662.42	-2266.67	  443.02
     85.4700	  595.00	  652.75	-2321.00	  442.80
     85.5700	  637.00	  644.06	-2270.31	  442.58
     85.6700	  631.00	  636.76	-2269.01	  442.36
     85.7700	  607.00	  631.10	-2287.35	  442.14
     85.8700	  624.00	  627.24	-2266.49	  441.92
     85.9700	  571.00	  625.25	-2317.50	  441.70
     86.0700	  647.00	  625.14	-2241.39	  441.48
     86.1700	  641.00	  626.90	-2249.15	  441.26
     86.2700	  657.00	  630.50	-2236.75	  441.04
     86.3700	  648.00	  635.86	-2251.11	  440.83
     86.4700	  672.00	  642.90	-2234.15	  440.61
     86.5700	  642.00	  651.44	-2272.69	  440.39
     86.6700	  645.00	  661.26	-2279.51	  440.17
     86.7700	  690.00	  671.99	-2245.24	  439.96
     86.8700	  662.00	  683.25	-2284.50	  439.74
     86.9700	  648.00	  694.50	-2309.75	  439.52
     87.0700	  615.00	  705.17	-2353.42	  439.31
     87.1700	  694.00	  714.70	-2283.96	  439.09
     87.2700	  681.00	  722.77	-2305.02	  438.88
     87.3700	  715.00	  729.35	-2277.60	  438.66
     87.4700	  673.00	  734.81	-2325.06	  438.45
     87.5700	  718.00	  739.68	-2284.93	  438.23
     87.6700	  738.00	  744.50	-2269.75	  438.02
     87.7700	  671.00	  749.59	-2341.83	  437.81
     87.8700	  723.00	  755.01	-2295.26	  437.59
     87.9700	  731.00	  760.51	-2292.76	  437.38
     88.0700	  742.00	  765.52	-2286.77	  437.17
     88.1700	  781.00	  769.21	-2251.46	  436.96
     88.2700	  768.00	  770.63	-2265.88	  436.75
     88.3700	  738.00	  768.95	-2294.20	  436.54
     88.4700	  748.00	  763.77	-2279.02	  436.33
     88.5700	  719.00	  755.24	-2299.49	  436.12
     88.6700	  701.00	  743.99	-2306.24	  435.91
     88.7700	  721.00	  730.49	-2272.74	  435.70
     88.8700	  741.00	  716.59	-2238.84	  435.49
     88.9700	  728.00	  702.72	-2237.98	  435.29
     89.0700	  684.00	  689.66	-2268.91	  435.08
     89.1700	  629.00	  678.02	-2312.27	  434.87
     89.2700	  703.00	  668.25	-2228.50	  434.67
     89.3700	  628.00	  660.63	-2295.88	  434.46
     89.4700	  660.00	  655.24	-2258.49	  434.26
     89.5700	  653.00	  652.01	-2262.26	  434.05
     89.6700	  704.00	  650.72	-2209.97	  433.85
     89.7700	  708.00	  651.02	-2206.27	  433.65
     89.8700	  684.00	  652.44	-2231.69	  433.45
     89.9700	  699.00	  654.45	-2218.70	  433.25
     90.0700	  783.00	  656.47	-2136.72	  433.04
     90.1700	  753.00	  657.91	-2168.16	  432.84
     90.2700	  749.00	  658.25	-2172.50	  432.65
     90.3700	  628.00	  657.17	-2292.42	  432.45
     90.4700	  708.00	  654.58	-2209.83	  432.25
     90.5700	  701.00	  650.63	-2212.88	  432.05
     90.6700	  701.00	  645.65	-2207.90	  431.86
     90.7700	  663.00	  640.03	-2240.28	  431.66
     90.8700	  627.00	  634.16	-2270.41	  431.47
     90.9700	  621.00	  628.36	-2270.61	  431.27
     91.0700	  634.00	  622.90	-2252.15	  431.08
     91.1700	  605.00	  617.96	-2276.21	  430.89
     91.2700	  640.00	  613.68	-2236.93	  430.70
     91.3700	  597.00	  610.12	-2276.37	  430.50
     91.4700	  618.00	  607.28	-2252.53	  430.31
     91.5700	  608.00	  605.13	-2260.38	  430.13
     91.6700	  623.00	  603.64	-2243.89	  429.94
     91.7700	  620.00	  602.74	-2245.99	  429.75
     91.8700	  592.00	  602.39	-2273.64	  429.56
     91.9700	  584.00	  602.55	-2281.80	  429.38
     92.0700	  597.00	  603.23	-2269.48	  429.19
     92.1700	  610.00	  604.46	-2257.71	  429.01
     92.2700	  623.00	  606.32	-2246.57	  428.83
     92.3700	  644.00	  608.92	-2228.17	  428.64
     92.4700	  622.00	  612.42	-2253.67	  428.46
     92.5700	  670.00	  617.02	-2210.27	  428.28
     92.6700	  645.00	  622.93	-2241.18	  428.10
     92.7700	  616.00	  630.40	-2277.65	  427.93
     92.8700	  641.00	  639.65	-2261.90	  427.75
     92.9700	  643.00	  650.86	-2271.11	  427.57
     93.0700	  651.00	  664.19	-2276.44	  427.40
     93.1700	  701.00	  679.67	-2241.92	  427.22
     93.2700	  695.00	  697.25	-2265.50	  427.05
     93.3700	  668.00	  716.74	-2311.99	  426.88
     93.4700	  668.00	  737.81	-2333.06	  426.71
     93.5700	  678.00	  759.95	-2345.20	  426.54
     93.6700	  708.00	  782.53	-2337.78	  426.37
     93.7700	  794.00	  804.74	-2273.99	  426.20
     93.8700	  787.00	  825.75	-2302.00	  426.03
     93.9700	  782.00	  844.77	-2326.02	  425.87
     94.0700	  805.00	  861.34	-2319.59	  425.70
     94.1700	  858.00	  875.41	-2280.66	  425.54
     94.2700	  907.00	  887.11	-2243.36	  425.38
     94.3700	  847.00	  897.91	-2314.16	  425.22
     94.4700	  910.00	  908.35	-2261.60	  425.06
     94.5700	  898.00	  919.21	-2284.46	  424.90
     94.6700	  927.00	  931.02	-2267.27	  424.74
     94.7700	  928.00	  944.13	-2279.38	  424.58
     94.8700	  931.00	  958.68	-2290.93	  424.43
     94.9700	  964.00	  974.74	-2273.99	  424.28
     95.0700	 1001.00	  992.28	-2254.53	  424.12
     95.1700	 1024.00	 1011.11	-2250.36	  423.97
     95.2700	 1040.00	 1030.74	-2253.99	  423.82
     95.3700	 1090.00	 1050.25	-2223.50	  423.67
     95.4700	 1059.00	 1068.24	-2272.49	  423.52
     95.5700	 1061.00	 1082.90	-2285.15	  423.38
     95.6700	 1017.00	 1092.25	-2338.50	  423.23
     95.7700	 1102.00	 1094.43	-2255.68	  423.09
     95.8700	 1100.00	 1088.13	-2251.38	  422.95
     95.9700	 1093.00	 1073.01	-2243.26	  422.81
     96.0700	  985.00	 1049.80	-2328.05	  422.67
     96.1700	  989.00	 1020.13	-2294.38	  422.53
     96.2700	  984.00	  986.21	-2265.46	  422.39
     96.3700	  993.00	  950.46	-2220.71	  422.25
     96.4700	  911.00	  915.27	-2267.52	  422.12
     96.5700	  899.00	  882.90	-2247.15	  421.99
     96.6700	  875.00	  855.34	-2243.59	  421.86
     96.7700	  852.00	  834.28	-2245.53	  421.73
     96.8700	  842.00	  821.12	-2242.37	  421.60
     96.9700	  869.00	  816.98	-2211.23	  421.47
     97.0700	  863.00	  822.71	-2222.96	  421.34
     97.1700	  872.00	  838.89	-2230.14	  421.22
     97.2700	  929.00	  865.84	-2200.09	  421.10
     97.3700	  930.00	  903.66	-2236.91	  420.97
     97.4700	  930.00	  952.13	-2285.38	  420.85
     97.5700	 1071.00	 1010.68	-2202.93	  420.74
     97.6700	 1069.00	 1078.32	-2272.57	  420.62
     97.7700	 1209.00	 1153.56	-2207.81	  420.50
     97.8700	 1241.00	 1234.36	-2256.61	  420.39
     97.9700	 1330.00	 1318.05	-2251.30	  420.28
     98.0700	 1371.00	 1401.37	-2293.62	  420.17
     98.1700	 1443.00	 1480.39	-2300.64	  420.06
     98.2700	 1577.00	 1550.71	-2236.96	  419.95
     98.3700	 1549.00	 1607.77	-2322.02	  419.84
     98.4700	 1609.00	 1647.37	-2301.62	  419.74
     98.5700	 1586.00	 1666.41	-2343.66	  419.64
     98.6700	 1653.00	 1663.58	-2273.83	  419.53
     98.7700	 1589.00	 1639.68	-2313.93	  419.43
     98.8700	 1498.00	 1597.35	-2362.60	  419.34
     98.9700	 1493.00	 1540.45	-2310.70	  419.24
     99.0700	 1419.00	 1473.36	-2317.61	  419.14
     99.1700	 1382.00	 1400.50	-2281.75	  419.05
     99.2700	 1340.00	 1325.98	-2249.23	  418.96
     99.3700	 1243.00	 1253.40	-2273.65	  418.87
     99.4700	 1163.00	 1185.90	-2286.15	  418.78
     99.5700	 1104.00	 1126.05	-2285.30	  418.70
     99.6700	 1051.00	 1075.95	-2288.20	  418.61
     99.7700	 1042.00	 1037.28	-2258.53	  418.53
     99.8700	 1059.00	 1011.28	-2215.53	  418.45
     99.9700	 1051.00	  998.89	-2211.14	  418.37
    100.0700	 1073.00	 1000.71	-2190.96	  418.29
    100.1700	 1095.00	 1017.03	-2185.28	  418.21
    100.2700	 1087.00	 1047.85	-2224.10	  418.14
    100.3700	 1153.00	 1092.84	-2203.09	  418.07
    100.4700	 1148.00	 1151.32	-2266.57	  418.00
    100.5700	 1209.00	 1222.27	-2276.52	  417.93
    100.6700	 1356.00	 1304.23	-2211.48	  417.86
    100.7700	 1367.00	 1395.18	-2291.43	  417.80
    100.8700	 1518.00	 1492.92	-2238.17	  417.73
    100.9700	 1573.00	 1594.40	-2284.65	  417.67
    101.0700	 1676.00	 1696.23	-2283.48	  417.61
    101.1700	 1767.00	 1794.69	-2290.94	  417.55
    101.2700	 1839.00	 1886.01	-2310.26	  417.50
    101.3700	 1940.00	 1966.84	-2290.09	  417.44
    101.4700	 2055.00	 2034.53	-2242.78	  417.39
    101.5700	 2016.00	 2087.44	-2334.69	  417.34
    101.6700	 2136.00	 2124.73	-2251.98	  417.29
    101.7700	 2123.00	 2146.00	-2286.25	  417.25
    101.8700	 2188.00	 2151.09	-2226.34	  417.20
    101.9700	 2237.00	 2139.92	-2166.17	  417.16
    102.0700	 2153.00	 2112.70	-2222.95	  417.12
    102.1700	 2200.00	 2070.33	-2133.58	  417.08
    102.2700	 2086.00	 2014.67	-2191.92	  417.04
    102.3700	 2045.00	 1948.64	-2166.89	  417.01
    102.4700	 1889.00	 1875.91	-2250.16	  416.98
    102.5700	 1928.00	 1800.34	-2135.59	  416.95
    102.6700	 1814.00	 1725.51	-2174.76	  416.92
    102.7700	 1675.00	 1654.44	-2242.69	  416.89
    102.8700	 1588.00	 1589.31	-2264.56	  416.87
    102.9700	 1507.00	 1531.48	-2287.73	  416.84
    103.0700	 1467.00	 1481.51	-2277.76	  416.82
    103.1700	 1440.00	 1439.23	-2262.48	  416.81
    103.2700	 1413.00	 1403.85	-2254.10	  416.79
    103.3700	 1406.00	 1373.98	-2231.23	  416.78
    103.4700	 1403.00	 1347.82	-2208.07	  416.76
    103.5700	 1349.00	 1323.28	-2237.53	  416.75
    103.6700	 1256.00	 1298.27	-2305.52	  416.74
    103.7700	 1245.00	 1270.99	-2289.24	  416.74
    103.8700	 1201.00	 1240.16	-2302.41	  416.74
    103.9700	 1167.00	 1205.25	-2301.50	  416.73
    104.0700	 1160.00	 1166.42	-2269.67	  416.73
    104.1700	 1064.00	 1124.37	-2323.62	  416.74
    104.2700	 1082.00	 1080.12	-2261.37	  416.74
    104.3700	 1034.00	 1034.81	-2264.06	  416.75
    104.4700	  974.00	  989.55	-2278.80	  416.76
    104.5700	  974.00	  945.35	-2234.60	  416.77
    104.6700	  923.00	  903.07	-2243.32	  416.78
    104.7700	  906.00	  863.42	-2220.67	  416.80
    104.8700	  833.00	  826.91	-2257.16	  416.82
    104.9700	  856.00	  793.82	-2201.07	  416.84
    105.0700	  797.00	  764.48	-2230.73	  416.86
    105.1700	  764.00	  738.87	-2238.12	  416.88
    105.2700	  766.00	  716.89	-2214.14	  416.91
    105.3700	  687.00	  698.32	-2274.57	  416.94
    105.4700	  739.00	  682.91	-2207.16	  416.97
    105.5700	  715.00	  670.35	-2218.60	  417.00
    105.6700	  674.00	  660.30	-2249.55	  417.04
    105.7700	  678.00	  652.37	-2237.62	  417.08
    105.8700	  594.00	  646.39	-2315.64	  417.12
    105.9700	  655.00	  642.03	-2250.28	  417.16
    106.0700	  643.00	  639.06	-2259.31	  417.21
    106.1700	  608.00	  637.33	-2292.58	  417.25
    106.2700	  634.00	  636.70	-2265.95	  417.30
    106.3700	  610.00	  637.09	-2290.34	  417.36
    106.4700	  627.00	  638.47	-2274.72	  417.41
    106.5700	  691.00	  640.84	-2213.09	  417.47
    106.6700	  630.00	  644.21	-2277.46	  417.53
    106.7700	  643.00	  648.64	-2268.89	  417.59
    106.8700	  642.00	  654.18	-2275.43	  417.65
    106.9700	  712.00	  660.89	-2212.14	  417.72
    107.0700	  664.00	  668.81	-2268.06	  417.79
    107.1700	  660.00	  677.99	-2281.24	  417.86
    107.2700	  689.00	  688.42	-2262.67	  417.93
    107.3700	  715.00	  700.03	-2248.28	  418.01
    107.4700	  700.00	  712.72	-2275.97	  418.09
    107.5700	  686.00	  726.32	-2303.57	  418.17
    107.6700	  736.00	  740.60	-2267.85	  418.25
    107.7700	  751.00	  755.24	-2267.49	  418.34
    107.8700	  737.00	  769.89	-2296.14	  418.42
    107.9700	  817.00	  784.12	-2230.37	  418.51
    108.0700	  818.00	  797.47	-2242.72	  418.61
    108.1700	  778.00	  809.44	-2294.69	  418.70
    108.2700	  773.00	  819.62	-2309.87	  418.80
    108.3700	  772.00	  827.62	-2318.87	  418.90
    108.4700	  794.00	  833.21	-2302.46	  419.00
    108.5700	  824.00	  836.38	-2275.63	  419.11
    108.6700	  816.00	  837.30	-2284.55	  419.22
    108.7700	  842.00	  836.33	-2257.58	  419.33
    108.8700	  772.00	  833.95	-2325.20	  419.44
    108.9700	  828.00	  830.70	-2265.95	  419.56
    109.0700	  796.00	  827.11	-2294.36	  419.68
    109.1700	  827.00	  823.63	-2259.88	  419.80
    109.2700	  750.00	  820.63	-2333.88	  419.92
    109.3700	  757.00	  818.39	-2324.64	  420.04
    109.4700	  842.00	  817.05	-2238.30	  420.17
    109.5700	  740.00	  816.65	-2339.90	  420.30
    109.6700	  749.00	  817.08	-2331.33	  420.44
    109.7700	  796.00	  818.16	-2285.41	  420.57
    109.8700	  778.00	  819.55	-2304.80	  420.71
    109.9700	  779.00	  820.88	-2305.13	  420.85
    110.0700	  779.00	  821.68	-2305.93	  421.00
    110.1700	  759.00	  821.49	-2325.74	  421.14
    110.2700	  778.00	  819.93	-2305.18	  421.29
    110.3700	  793.00	  816.70	-2286.95	  421.45
    110.4700	  784.00	  811.64	-2290.89	  421.60
    110.5700	  772.00	  804.76	-2296.01	  421.76
    110.6700	  790.00	  796.23	-2269.48	  421.92
    110.7700	  763.00	  786.31	-2286.56	  422.08
    110.8700	  751.00	  775.35	-2287.60	  422.24
    110.9700	  770.00	  763.69	-2256.94	  422.41
    111.0700	  722.00	  751.68	-2292.93	  422.58
    111.1700	  764.00	  739.64	-2238.89	  422.75
    111.2700	  693.00	  727.85	-2298.10	  422.93
    111.3700	  667.00	  716.57	-2312.82	  423.11
    111.4700	  701.00	  705.98	-2268.23	  423.29
    111.5700	  682.00	  696.25	-2277.50	  423.47
    111.6700	  663.00	  687.49	-2287.74	  423.66
    111.7700	  654.00	  679.76	-2289.01	  423.85
    111.8700	  675.00	  673.12	-2261.37	  424.04
    111.9700	  620.00	  667.55	-2310.80	  424.24
    112.0700	  662.00	  663.04	-2264.29	  424.43
    112.1700	  640.00	  659.51	-2282.76	  424.63
    112.2700	  621.00	  656.92	-2299.17	  424.84
    112.3700	  626.00	  655.16	-2292.41	  425.04
    112.4700	  719.00	  654.15	-2198.40	  425.25
    112.5700	  593.00	  653.78	-2324.03	  425.46
    112.6700	  655.00	  653.96	-2262.21	  425.68
    112.7700	  625.00	  654.60	-2292.85	  425.89
    112.8700	  639.00	  655.59	-2279.84	  426.11
    112.9700	  594.00	  656.87	-2326.12	  426.33
    113.0700	  616.00	  658.35	-2305.60	  426.56
    113.1700	  607.00	  660.00	-2316.25	  426.79
    113.2700	  616.00	  661.76	-2309.01	  427.02
    113.3700	  661.00	  663.62	-2265.87	  427.25
    113.4700	  621.00	  665.58	-2307.83	  427.49
    113.5700	  657.00	  667.66	-2273.91	  427.73
    113.6700	  613.00	  669.88	-2320.13	  427.97
    113.7700	  621.00	  672.30	-2314.55	  428.21
    113.8700	  636.00	  674.95	-2302.20	  428.46
    113.9700	  711.00	  677.94	-2230.19	  428.71
    114.0700	  647.00	  681.33	-2297.58	  428.96
    114.1700	  648.00	  685.24	-2300.49	  429.22
    114.2700	  670.00	  689.79	-2283.04	  429.48
    114.3700	  723.00	  695.15	-2235.40	  429.74
    114.4700	  765.00	  701.54	-2199.79	  430.00
    114.5700	  708.00	  709.23	-2264.48	  430.27
    114.6700	  743.00	  718.59	-2238.84	  430.54
    114.7700	  756.00	  730.07	-2237.32	  430.81
    114.8700	  727.00	  744.25	-2280.50	  431.09
    114.9700	  734.00	  761.88	-2291.13	  431.37
    115.0700	  831.00	  783.85	-2216.10	  431.65
    115.1700	  836.00	  811.29	-2238.54	  431.93
    115.2700	  947.00	  845.56	-2161.81	  432.22
    115.3700	  988.00	  888.26	-2163.51	  432.51
    115.4700	 1005.00	  941.25	-2199.50	  432.80
    115.5700	 1135.00	 1006.67	-2134.92	  433.10
    115.6700	 1241.00	 1086.90	-2109.15	  433.40
    115.7700	 1279.00	 1184.56	-2168.81	  433.70
    115.8700	 1492.00	 1302.39	-2073.64	  434.01
    115.9700	 1594.00	 1443.21	-2112.46	  434.31
    116.0700	 1891.00	 1609.75	-1982.00	  434.62
    116.1700	 2085.00	 1804.61	-1982.86	  434.94
    116.2700	 2373.00	 2030.05	-1920.30	  435.25
    116.3700	 2563.00	 2287.71	-1987.96	  435.57
    116.4700	 2910.00	 2578.54	-1931.79	  435.89
    116.5700	 3070.00	 2902.48	-2095.73	  436.22
    116.6700	 3534.00	 3258.49	-1987.74	  436.55
    116.7700	 3844.00	 3644.21	-2063.46	  436.88
    116.8700	 4209.00	 4055.93	-2110.18	  437.21
    116.9700	 4559.00	 4488.41	-2192.66	  437.55
    117.0700	 5048.00	 4934.92	-2150.17	  437.89
    117.1700	 5413.00	 5387.46	-2237.71	  438.23
    117.2700	 5716.00	 5836.71	-2383.96	  438.58
    117.3700	 6172.00	 6272.08	-2363.33	  438.93
    117.4700	 6270.00	 6682.13	-2675.38	  439.28
    117.5700	 6678.00	 7054.86	-2640.11	  439.63
    117.6700	 7181.00	 7378.30	-2460.55	  439.99
    117.7700	 7346.00	 7641.06	-2558.31	  440.35
    117.8700	 7578.00	 7833.07	-2518.32	  440.71
    117.9700	 7455.00	 7946.60	-2754.85	  441.08
    118.0700	 7599.00	 7977.03	-2641.28	  441.45
    118.1700	 7506.00	 7923.44	-2680.69	  441.82
    118.2700	 7399.00	 7788.63	-2652.88	  442.19
    118.3700	 7315.00	 7578.84	-2527.09	  442.57
    118.4700	 7049.00	 7303.01	-2517.26	  442.95
    118.5700	 6689.00	 6971.96	-2546.21	  443.34
    118.6700	 6597.00	 6597.35	-2263.60	  443.72
    118.7700	 6099.00	 6191.04	-2355.29	  444.11
    118.8700	 5724.00	 5764.66	-2303.91	  444.51
    118.9700	 5290.00	 5329.02	-2302.27	  444.90
    119.0700	 5066.00	 4893.96	-2091.21	  445.30
    119.1700	 4596.00	 4467.91	-2135.16	  445.70
    119.2700	 4326.00	 4057.93	-1995.18	  446.11
    119.3700	 4065.00	 3669.76	-1868.01	  446.51
    119.4700	 3672.00	 3307.62	-1898.87	  446.93
    119.5700	 3249.00	 2974.39	-1988.64	  447.34
    119.6700	 2998.00	 2671.56	-1936.81	  447.76
    119.7700	 2610.00	 2399.55	-2052.80	  448.17
    119.8700	 2481.00	 2157.90	-1940.15	  448.60
    119.9700	 2228.00	 1945.39	-1980.64	  449.02
    120.0700	 1997.00	 1760.23	-2026.48	  449.45
    120.1700	 1842.00	 1600.24	-2021.49	  449.88
    120.2700	 1710.00	 1462.99	-2016.24	  450.32
    120.3700	 1601.00	 1346.02	-2008.27	  450.75
    120.4700	 1461.00	 1246.84	-2049.09	  451.19
    120.5700	 1305.00	 1163.10	-2121.35	  451.64
    120.6700	 1176.00	 1092.57	-2179.82	  452.08
    120.7700	 1152.00	 1033.25	-2144.50	  452.53
    120.8700	 1059.00	  983.37	-2187.62	  452.99
    120.9700	 1003.00	  941.41	-2201.66	  453.44
    121.0700	  947.00	  906.05	-2222.30	  453.90
    121.1700	  984.00	  876.20	-2155.45	  454.36
    121.2700	  877.00	  850.95	-2237.20	  454.82
    121.3700	  861.00	  829.58	-2231.83	  455.29
    121.4700	  815.00	  811.50	-2259.75	  455.76
    121.5700	  820.00	  796.22	-2239.47	  456.23
    121.6700	  823.00	  783.38	-2223.63	  456.71
    121.7700	  737.00	  772.66	-2298.91	  457.19
    121.8700	  721.00	  763.85	-2306.10	  457.67
    121.9700	  770.00	  756.74	-2249.99	  458.16
    122.0700	  790.00	  751.18	-2224.43	  458.64
    122.1700	  740.00	  747.06	-2270.31	  459.14
    122.2700	  739.00	  744.27	-2268.52	  459.63
    122.3700	  708.00	  742.73	-2297.98	  460.13
    122.4700	  697.00	  742.37	-2308.62	  460.63
    122.5700	  620.00	  743.12	-2386.37	  461.13
    122.6700	  676.00	  744.93	-2332.18	  461.63
    122.7700	  734.00	  747.75	-2277.00	  462.14
    122.8700	  714.00	  751.50	-2300.75	  462.65
    122.9700	  713.00	  756.15	-2306.40	  463.17
    123.0700	  731.00	  761.62	-2293.87	  463.69
    123.1700	  699.00	  767.84	-2332.09	  464.21
    123.2700	  761.00	  774.73	-2276.98	  464.73
    123.3700	  750.00	  782.20	-2295.45	  465.26
    123.4700	  741.00	  790.16	-2312.41	  465.79
    123.5700	  745.00	  798.50	-2316.75	  466.32
    123.6700	  785.00	  807.10	-2285.35	  466.85
    123.7700	  750.00	  815.84	-2329.09	  467.39
    123.8700	  773.00	  824.59	-2314.84	  467.93
    123.9700	  792.00	  833.21	-2304.46	  468.48
    124.0700	  803.00	  841.58	-2301.83	  469.02
    124.1700	  792.00	  849.56	-2320.81	  469.57
    124.2700	  830.00	  857.04	-2290.29	  470.13
    124.3700	  823.00	  863.92	-2304.17	  470.68
    124.4700	  847.00	  870.18	-2286.43	  471.24
    124.5700	  774.00	  875.77	-2365.02	  471.80
    124.6700	  873.00	  880.68	-2270.93	  472.37
    124.7700	  896.00	  884.96	-2252.21	  472.93
    124.8700	  840.00	  888.65	-2311.90	  473.50
    124.9700	  781.00	  612.99	-2095.24	  474.08
    125.0700	  844.00	  613.56	-2263.25	  474.65
    125.1700	  777.00	  614.14	-2263.25	  475.23
    125.2700	  798.00	  614.72	-2263.25	  475.81
    125.3700	  845.00	  615.31	-2263.25	  476.40
    125.4700	  845.00	  615.90	-2263.25	  476.98
    125.5700	  749.00	  616.49	-2263.25	  477.57
    125.6700	  855.00	  617.08	-2263.25	  478.17
    125.7700	  831.00	  617.68	-2263.25	  478.76
    125.8700	  844.00	  618.27	-2263.25	  479.36
    125.9700	  791.00	  618.88	-2263.25	  479.96
    126.0700	  853.00	  619.48	-2263.25	  480.57
    126.1700	  834.00	  620.09	-2263.25	  481.18
    126.2700	  812.00	  620.70	-2263.25	  481.79
    126.3700	  812.00	  621.31	-2263.25	  482.40
    126.4700	  825.00	  621.93	-2263.25	  483.02
    126.5700	  756.00	  622.55	-2263.25	  483.64
    126.6700	  794.00	  623.17	-2263.25	  484.26
    126.7700	  779.00	  623.79	-2263.25	  484.88
    126.8700	  700.00	  624.42	-2263.25	  485.51
    126.9700	  785.00	  625.05	-2263.25	  486.14
    127.0700	  738.00	  625.68	-2263.25	  486.77
    127.1700	  706.00	  626.32	-2263.25	  487.41
    127.2700	  675.00	  626.96	-2263.25	  488.05
    127.3700	  713.00	  627.60	-2263.25	  488.69
    127.4700	  724.00	  628.24	-2263.25	  489.33
    127.5700	  664.00	  628.89	-2263.25	  489.98
    127.6700	  682.00	  629.54	-2263.25	  490.63
    127.7700	  644.00	  630.19	-2263.25	  491.28
    127.8700	  686.00	  630.85	-2263.25	  491.94
    127.9700	  628.00	  631.51	-2263.25	  492.59
    128.0700	  675.00	  632.17	-2263.25	  493.25
    128.1700	  700.00	  632.83	-2263.25	  493.92
    128.2700	  737.00	  633.50	-2263.25	  494.58
    128.3700	  679.00	  634.16	-2263.25	  495.25
    128.4700	  701.00	  634.84	-2263.25	  495.92
    128.5700	    0.00	  635.51	-2263.25	  496.60
    128.6700	    0.00	  636.19	-2263.25	  497.28
     12.4508	        	        	        	        	       0	(  0  0  2)	  0  1
     12.4508	        	        	        	        	    -565	(  0  0  2)	  0  1
     25.1412	        	        	        	        	       0	(  0  0  4)	  0  1
     25.1412	        	        	        	        	    -565	(  0  0  4)	  0  1
     28.5813	        	        	        	        	       0	(  1  0  0)	  0  1
     28.5813	        	        	        	        	    -565	(  1  0  0)	  0  1
     29.2853	        	        	        	        	       0	(  1  0  1)	  0  1
     29.2853	        	        	        	        	    -565	(  1  0  1)	  0  1
     31.3112	        	        	        	        	       0	(  1  0  2)	  0  1
     31.3112	        	        	        	        	    -565	(  1  0  2)	  0  1
     34.4499	        	        	        	        	       0	(  1  0  3)	  0  1
     34.4499	        	        	        	        	    -565	(  1  0  3)	  0  1
     38.1559	        	        	        	        	       0	(  0  0  6)	  0  1
     38.1559	        	        	        	        	    -565	(  0  0  6)	  0  1
     38.4659	        	        	        	        	       0	(  1  0  4)	  0  1
     38.4659	        	        	        	        	    -565	(  1  0  4)	  0  1
     43.1620	        	        	        	        	       0	(  1  0  5)	  0  1
     43.1620	        	        	        	        	    -565	(  1  0  5)	  0  1
     48.3984	        	        	        	        	       0	(  1  0  6)	  0  1
     48.3984	        	        	        	        	    -565	(  1  0  6)	  0  1
     50.6970	        	        	        	        	       0	(  1  1  0)	  0  1
     50.6970	        	        	        	        	    -565	(  1  1  0)	  0  1
     51.7076	        	        	        	        	       0	(  0  0  8)	  0  1
     51.7076	        	        	        	        	    -565	(  0  0  8)	  0  1
     52.4390	        	        	        	        	       0	(  1  1  2)	  0  1
     52.4390	        	        	        	        	    -565	(  1  1  2)	  0  1
     54.0877	        	        	        	        	       0	(  1  0  7)	  0  1
     54.0877	        	        	        	        	    -565	(  1  0  7)	  0  1
     57.4423	        	        	        	        	       0	(  1  1  4)	  0  1
     57.4423	        	        	        	        	    -565	(  1  1  4)	  0  1
     59.2716	        	        	        	        	       0	(  2  0  0)	  0  1
     59.2716	        	        	        	        	    -565	(  2  0  0)	  0  1
     59.6678	        	        	        	        	       0	(  2  0  1)	  0  1
     59.6678	        	        	        	        	    -565	(  2  0  1)	  0  1
     60.1839	        	        	        	        	       0	(  1  0  8)	  0  1
     60.1839	        	        	        	        	    -565	(  1  0  8)	  0  1
     60.8469	        	        	        	        	       0	(  2  0  2)	  0  1
     60.8469	        	        	        	        	    -565	(  2  0  2)	  0  1
     62.7829	        	        	        	        	       0	(  2  0  3)	  0  1
     62.7829	        	        	        	        	    -565	(  2  0  3)	  0  1
     65.2270	        	        	        	        	       0	(  1  1  6)	  0  1
     65.2270	        	        	        	        	    -565	(  1  1  6)	  0  1
     65.4387	        	        	        	        	       0	(  2  0  4)	  0  1
     65.4387	        	        	        	        	    -565	(  2  0  4)	  0  1
     66.0919	        	        	        	        	       0	(  0  0 10)	  0  1
     66.0919	        	        	        	        	    -565	(  0  0 10)	  0  1
     66.6744	        	        	        	        	       0	(  1  0  9)	  0  1
     66.6744	        	        	        	        	    -565	(  1  0  9)	  0  1
     68.7738	        	        	        	        	       0	(  2  0  5)	  0  1
     68.7738	        	        	        	        	    -565	(  2  0  5)	  0  1
     72.7517	        	        	        	        	       0	(  2  0  6)	  0  1
     72.7517	        	        	        	        	    -565	(  2  0  6)	  0  1
     73.5752	        	        	        	        	       0	(  1  0 10)	  0  1
     73.5752	        	        	        	        	    -565	(  1  0 10)	  0  1
     75.3920	        	        	        	        	       0	(  1  1  8)	  0  1
     75.3920	        	        	        	        	    -565	(  1  1  8)	  0  1
     77.3467	        	        	        	        	       0	(  2  0  7)	  0  1
     77.3467	        	        	        	        	    -565	(  2  0  7)	  0  1
     80.9314	        	        	        	        	       0	(  1  0 11)	  0  1
     80.9314	        	        	        	        	    -565	(  1  0 11)	  0  1
     81.7542	        	        	        	        	       0	(  2  1  0)	  0  1
     81.7542	        	        	        	        	    -565	(  2  1  0)	  0  1
     81.7728	        	        	        	        	       0	(  0  0 12)	  0  1
     81.7728	        	        	        	        	    -565	(  0  0 12)	  0  1
     82.0991	        	        	        	        	       0	(  2  1  1)	  0  1
     82.0991	        	        	        	        	    -565	(  2  1  1)	  0  1
     82.5501	        	        	        	        	       0	(  2  0  8)	  0  1
     82.5501	        	        	        	        	    -565	(  2  0  8)	  0  1
     83.1321	        	        	        	        	       0	(  2  1  2)	  0  1
     83.1321	        	        	        	        	    -565	(  2  1  2)	  0  1
     84.8491	        	        	        	        	       0	(  2  1  3)	  0  1
     84.8491	        	        	        	        	    -565	(  2  1  3)	  0  1
     87.2455	        	        	        	        	       0	(  2  1  4)	  0  1
     87.2455	        	        	        	        	    -565	(  2  1  4)	  0  1
     87.8420	        	        	        	        	       0	(  1  1 10)	  0  1
     87.8420	        	        	        	        	    -565	(  1  1 10)	  0  1
     88.3764	        	        	        	        	       0	(  2  0  9)	  0  1
     88.3764	        	        	        	        	    -565	(  2  0  9)	  0  1
     88.8235	        	        	        	        	       0	(  1  0 12)	  0  1
     88.8235	        	        	        	        	    -565	(  1  0 12)	  0  1
     90.3204	        	        	        	        	       0	(  2  1  5)	  0  1
     90.3204	        	        	        	        	    -565	(  2  1  5)	  0  1
     94.0810	        	        	        	        	       0	(  2  1  6)	  0  1
     94.0810	        	        	        	        	    -565	(  2  1  6)	  0  1
     94.8721	        	        	        	        	       0	(  2  0 10)	  0  1
     94.8721	        	        	        	        	    -565	(  2  0 10)	  0  1
     95.8392	        	        	        	        	       0	(  3  0  0)	  0  1
     95.8392	        	        	        	        	    -565	(  3  0  0)	  0  1
     96.1826	        	        	        	        	       0	(  3  0  1)	  0  1
     96.1826	        	        	        	        	    -565	(  3  0  1)	  0  1
     97.2145	        	        	        	        	       0	(  3  0  2)	  0  1
     97.2145	        	        	        	        	    -565	(  3  0  2)	  0  1
     97.3833	        	        	        	        	       0	(  1  0 13)	  0  1
     97.3833	        	        	        	        	    -565	(  1  0 13)	  0  1
     98.5501	        	        	        	        	       0	(  2  1  7)	  0  1
     98.5501	        	        	        	        	    -565	(  2  1  7)	  0  1
     98.9398	        	        	        	        	       0	(  3  0  3)	  0  1
     98.9398	        	        	        	        	    -565	(  3  0  3)	  0  1
     99.6066	        	        	        	        	       0	(  0  0 14)	  0  1
     99.6066	        	        	        	        	    -565	(  0  0 14)	  0  1
    101.3695	        	        	        	        	       0	(  3  0  4)	  0  1
    101.3695	        	        	        	        	    -565	(  3  0  4)	  0  1
    102.1307	        	        	        	        	       0	(  2  0 11)	  0  1
    102.1307	        	        	        	        	    -565	(  2  0 11)	  0  1
    102.9835	        	        	        	        	       0	(  1  1 12)	  0  1
    102.9835	        	        	        	        	    -565	(  1  1 12)	  0  1
    103.7754	        	        	        	        	       0	(  2  1  8)	  0  1
    103.7754	        	        	        	        	    -565	(  2  1  8)	  0  1
    104.5250	        	        	        	        	       0	(  3  0  5)	  0  1
    104.5250	        	        	        	        	    -565	(  3  0  5)	  0  1
    106.8285	        	        	        	        	       0	(  1  0 14)	  0  1
    106.8285	        	        	        	        	    -565	(  1  0 14)	  0  1
    108.4456	        	        	        	        	       0	(  3  0  6)	  0  1
    108.4456	        	        	        	        	    -565	(  3  0  6)	  0  1
    109.8464	        	        	        	        	       0	(  2  1  9)	  0  1
    109.8464	        	        	        	        	    -565	(  2  1  9)	  0  1
    110.3227	        	        	        	        	       0	(  2  0 12)	  0  1
    110.3227	        	        	        	        	    -565	(  2  0 12)	  0  1
    113.2000	        	        	        	        	       0	(  3  0  7)	  0  1
    113.2000	        	        	        	        	    -565	(  3  0  7)	  0  1
    116.9257	        	        	        	        	       0	(  2  1 10)	  0  1
    116.9257	        	        	        	        	    -565	(  2  1 10)	  0  1
    117.5476	        	        	        	        	       0	(  1  0 15)	  0  1
    117.5476	        	        	        	        	    -565	(  1  0 15)	  0  1
    118.0116	        	        	        	        	       0	(  2  2  0)	  0  1
    118.0116	        	        	        	        	    -565	(  2  2  0)	  0  1
    118.9092	        	        	        	        	       0	(  3  0  8)	  0  1
    118.9092	        	        	        	        	    -565	(  3  0  8)	  0  1
    119.5718	        	        	        	        	       0	(  2  2  2)	  0  1
    119.5718	        	        	        	        	    -565	(  2  2  2)	  0  1
    119.7646	        	        	        	        	       0	(  2  0 13)	  0  1
    119.7646	        	        	        	        	    -565	(  2  0 13)	  0  1
    121.6513	        	        	        	        	       0	(  0  0 16)	  0  1
    121.6513	        	        	        	        	    -565	(  0  0 16)	  0  1
    122.3330	        	        	        	        	       0	(  1  1 14)	  0  1
    122.3330	        	        	        	        	    -565	(  1  1 14)	  0  1
    124.4102	        	        	        	        	       0	(  2  2  4)	  0  1
    124.4102	        	        	        	        	    -565	(  2  2  4)	  0  1
    125.3191	        	        	        	        	       0	(  2  1 11)	  0  1
    125.3191	        	        	        	        	    -565	(  2  1 11)	  0  1
    125.7930	        	        	        	        	       0	(  3  0  9)	  0  1
    125.7930	        	        	        	        	    -565	(  3  0  9)	  0  1
    126.3238	        	        	        	        	       0	(  3  1  0)	  0  1
    126.3238	        	        	        	        	    -565	(  3  1  0)	  0  1
    126.7493	        	        	        	        	       0	(  3  1  1)	  0  1
    126.7493	        	        	        	        	    -565	(  3  1  1)	  0  1
    128.0405	        	        	        	        	       0	(  3  1  2)	  0  1
    128.0405	        	        	        	        	    -565	(  3  1  2)	  0  1
    130.2453	        	        	        	        	       0	(  3  1  3)	  0  1
    130.2453	        	        	        	        	    -565	(  3  1  3)	  0  1
    130.3507	        	        	        	        	       0	(  1  0 16)	  0  1
    130.3507	        	        	        	        	    -565	(  1  0 16)	  0  1
    131.1140	        	        	        	        	       0	(  2  0 14)	  0  1
    131.1140	        	        	        	        	    -565	(  2  0 14)	  0  1
    133.1947	        	        	        	        	       0	(  2  2  6)	  0  1
    133.1947	        	        	        	        	    -565	(  2  2  6)	  0  1
    133.4597	        	        	        	        	       0	(  3  1  4)	  0  1
    133.4597	        	        	        	        	    -565	(  3  1  4)	  0  1
    134.2877	        	        	        	        	       0	(  3  0 10)	  0  1
    134.2877	        	        	        	        	    -565	(  3  0 10)	  0  1
    135.6769	        	        	        	        	       0	(  2  1 12)	  0  1
    135.6769	        	        	        	        	    -565	(  2  1 12)	  0  1
    137.8659	        	        	        	        	       0	(  3  1  5)	  0  1
    137.8659	        	        	        	        	    -565	(  3  1  5)	  0  1
    143.8300	        	        	        	        	       0	(  3  1  6)	  0  1
    143.8300	        	        	        	        	    -565	(  3  1  6)	  0  1
    145.4537	        	        	        	        	       0	(  3  0 11)	  0  1
    145.4537	        	        	        	        	    -565	(  3  0 11)	  0  1
    146.1734	        	        	        	        	       0	(  2  0 15)	  0  1
    146.1734	        	        	        	        	    -565	(  2  0 15)	  0  1
    147.6206	        	        	        	        	       0	(  1  0 17)	  0  1
    147.6206	        	        	        	        	    -565	(  1  0 17)	  0  1
    148.3968	        	        	        	        	       0	(  2  2  8)	  0  1
    148.3968	        	        	        	        	    -565	(  2  2  8)	  0  1
    149.8523	        	        	        	        	       0	(  2  1 13)	  0  1
    149.8523	        	        	        	        	    -565	(  2  1 13)	  0  1
    152.2455	        	        	        	        	       0	(  3  1  7)	  0  1
    152.2455	        	        	        	        	    -565	(  3  1  7)	  0  1
    153.2652	        	        	        	        	       0	(  1  1 16)	  0  1
    153.2652	        	        	        	        	    -565	(  1  1 16)	  0  1
    158.5649	        	        	        	        	       0	(  0  0 18)	  0  1
    158.5649	        	        	        	        	    -565	(  0  0 18)	  0  1
    163.9225	        	        	        	        	       0	(  4  0  0)	  0  1
    163.9225	        	        	        	        	    -565	(  4  0  0)	  0  1
    163.9895	        	        	        	        	       0	(  3  0 12)	  0  1
    163.9895	        	        	        	        	    -565	(  3  0 12)	  0  1
    165.2131	        	        	        	        	       0	(  4  0  1)	  0  1
    165.2131	        	        	        	        	    -565	(  4  0  1)	  0  1
    167.0924	        	        	        	        	       0	(  3  1  8)	  0  1
    167.0924	        	        	        	        	    -565	(  3  1  8)	  0  1
