MSG Master    CELL:    5.88976   5.88976  23.15294   90.0000   90.0000  120.0000   SPGR: P 63/m m c             TEMP:    644.55
  2   1280     2.52000     0.00000    -0.09255     0.00000     0.00000    0
    96    96     0     0     2
       0.00000      10.00000
     125.00000     130.00000
 2Theta	Yobs	Ycal	Yobs-Ycal	Backg	Posr	(hkl)	K
      0.7700	    0.00	  803.35	-1874.33	  678.84
      0.8700	    0.00	  801.72	-1874.33	  677.20
      0.9700	   42.00	  800.09	-1874.33	  675.57
      1.0700	   37.00	  798.47	-1874.33	  673.95
      1.1700	   38.00	  796.86	-1874.33	  672.34
      1.2700	   48.00	  795.25	-1874.33	  670.74
      1.3700	   45.00	  793.66	-1874.33	  669.14
      1.4700	  101.00	  792.06	-1874.33	  667.55
      1.5700	  286.00	  790.48	-1874.33	  665.96
      1.6700	  429.00	  788.90	-1874.33	  664.38
      1.7700	  606.00	  787.33	-1874.33	  662.81
      1.8700	  631.00	  785.77	-1874.33	  661.25
      1.9700	  728.00	  784.21	-1874.33	  659.69
      2.0700	  761.00	  782.66	-1874.33	  658.15
      2.1700	  765.00	  781.12	-1874.33	  656.60
      2.2700	  757.00	  779.59	-1874.33	  655.07
      2.3700	  682.00	  778.06	-1874.33	  653.54
      2.4700	  706.00	  776.54	-1874.33	  652.02
      2.5700	  688.00	  775.02	-1874.33	  650.50
      2.6700	  698.00	  773.51	-1874.33	  648.99
      2.7700	  706.00	  772.01	-1874.33	  647.49
      2.8700	  670.00	  770.52	-1874.33	  646.00
      2.9700	  642.00	  769.03	-1874.33	  644.51
      3.0700	  594.00	  767.55	-1874.33	  643.03
      3.1700	  627.00	  766.08	-1874.33	  641.56
      3.2700	  710.00	  764.61	-1874.33	  640.09
      3.3700	  867.00	  763.15	-1874.33	  638.63
      3.4700	 1037.00	  761.70	-1874.33	  637.18
      3.5700	 1216.00	  760.25	-1874.33	  635.73
      3.6700	 1281.00	  758.81	-1874.33	  634.29
      3.7700	 1381.00	  757.38	-1874.33	  632.86
      3.8700	 1454.00	  755.95	-1874.33	  631.43
      3.9700	 1492.00	  754.53	-1874.33	  630.01
      4.0700	 1554.00	  753.12	-1874.33	  628.60
      4.1700	 1655.00	  751.71	-1874.33	  627.19
      4.2700	 1613.00	  750.31	-1874.33	  625.79
      4.3700	 1612.00	  748.91	-1874.33	  624.40
      4.4700	 1553.00	  747.53	-1874.33	  623.01
      4.5700	 1528.00	  746.15	-1874.33	  621.63
      4.6700	 1426.00	  744.77	-1874.33	  620.26
      4.7700	 1338.00	  743.41	-1874.33	  618.89
      4.8700	 1319.00	  742.04	-1874.33	  617.53
      4.9700	 1250.00	  740.69	-1874.33	  616.17
      5.0700	 1258.00	  739.34	-1874.33	  614.82
      5.1700	 1207.00	  738.00	-1874.33	  613.48
      5.2700	 1234.00	  736.67	-1874.33	  612.15
      5.3700	 1140.00	  735.34	-1874.33	  610.82
      5.4700	 1156.00	  734.01	-1874.33	  609.50
      5.5700	 1106.00	  732.70	-1874.33	  608.18
      5.6700	 1077.00	  731.39	-1874.33	  606.87
      5.7700	 1100.00	  730.09	-1874.33	  605.57
      5.8700	 1045.00	  728.79	-1874.33	  604.27
      5.9700	 1058.00	  727.50	-1874.33	  602.98
      6.0700	 1044.00	  726.21	-1874.33	  601.70
      6.1700	 1008.00	  724.94	-1874.33	  600.42
      6.2700	  924.00	  723.66	-1874.33	  599.15
      6.3700	  952.00	  722.40	-1874.33	  597.88
      6.4700	  928.00	  721.14	-1874.33	  596.62
      6.5700	  953.00	  719.88	-1874.33	  595.37
      6.6700	  871.00	  718.64	-1874.33	  594.12
      6.7700	  842.00	  717.40	-1874.33	  592.88
      6.8700	  814.00	  716.16	-1874.33	  591.64
      6.9700	  888.00	  714.93	-1874.33	  590.42
      7.0700	  847.00	  713.71	-1874.33	  589.19
      7.1700	  866.00	  712.49	-1874.33	  587.98
      7.2700	  846.00	  711.28	-1874.33	  586.77
      7.3700	  824.00	  710.08	-1874.33	  585.56
      7.4700	  792.00	  708.88	-1874.33	  584.36
      7.5700	  821.00	  707.69	-1874.33	  583.17
      7.6700	  801.00	  706.50	-1874.33	  581.99
      7.7700	  742.00	  705.32	-1874.33	  580.81
      7.8700	  763.00	  704.15	-1874.33	  579.63
      7.9700	  750.00	  702.98	-1874.33	  578.46
      8.0700	  735.00	  701.82	-1874.33	  577.30
      8.1700	  791.00	  700.66	-1874.33	  576.14
      8.2700	  744.00	  699.51	-1874.33	  574.99
      8.3700	  773.00	  698.37	-1874.33	  573.85
      8.4700	  733.00	  697.23	-1874.33	  572.71
      8.5700	  760.00	  696.10	-1874.33	  571.58
      8.6700	  710.00	  694.97	-1874.33	  570.45
      8.7700	  704.00	  693.85	-1874.33	  569.33
      8.8700	  761.00	  692.73	-1874.33	  568.21
      8.9700	  699.00	  691.62	-1874.33	  567.11
      9.0700	  787.00	  690.52	-1874.33	  566.00
      9.1700	  725.00	  689.42	-1874.33	  564.90
      9.2700	  729.00	  688.33	-1874.33	  563.81
      9.3700	  764.00	  687.24	-1874.33	  562.72
      9.4700	  714.00	  686.16	-1874.33	  561.64
      9.5700	  704.00	  685.09	-1874.33	  560.57
      9.6700	  679.00	  684.02	-1874.33	  559.50
      9.7700	  695.00	  682.95	-1874.33	  558.44
      9.8700	  681.00	  681.90	-1874.33	  557.38
      9.9700	  657.00	  680.84	-1874.33	  556.32
     10.0700	  722.00	  681.95	-1834.28	  555.28
     10.1700	  693.00	  681.14	-1862.48	  554.24
     10.2700	  671.00	  680.40	-1883.73	  553.20
     10.3700	  677.00	  679.72	-1877.06	  552.17
     10.4700	  704.00	  679.15	-1849.49	  551.15
     10.5700	  689.00	  678.74	-1864.07	  550.13
     10.6700	  740.00	  678.54	-1812.88	  549.11
     10.7700	  687.00	  678.66	-1866.00	  548.10
     10.8700	  649.00	  679.20	-1904.53	  547.10
     10.9700	  712.00	  680.24	-1842.57	  546.10
     11.0700	  739.00	  681.81	-1817.14	  545.11
     11.1700	  678.00	  683.93	-1880.26	  544.13
     11.2700	  656.00	  686.61	-1904.95	  543.15
     11.3700	  679.00	  689.93	-1885.27	  542.17
     11.4700	  702.00	  694.00	-1866.33	  541.20
     11.5700	  698.00	  698.99	-1875.33	  540.23
     11.6700	  752.00	  705.19	-1827.52	  539.28
     11.7700	  718.00	  712.91	-1869.25	  538.32
     11.8700	  740.00	  722.48	-1856.82	  537.37
     11.9700	  725.00	  733.86	-1883.20	  536.43
     12.0700	  812.00	  746.17	-1808.51	  535.49
     12.1700	  803.00	  757.04	-1828.38	  534.56
     12.2700	  772.00	  762.10	-1864.44	  533.63
     12.3700	  781.00	  756.12	-1849.45	  532.71
     12.4700	  785.00	  738.49	-1827.82	  531.79
     12.5700	  685.00	  716.32	-1905.66	  530.88
     12.6700	  687.00	  696.75	-1884.09	  529.97
     12.7700	  652.00	  682.22	-1904.56	  529.07
     12.8700	  688.00	  672.35	-1858.68	  528.17
     12.9700	  681.00	  665.91	-1859.24	  527.28
     13.0700	  614.00	  661.57	-1921.91	  526.39
     13.1700	  645.00	  658.48	-1887.81	  525.51
     13.2700	  620.00	  656.08	-1910.41	  524.64
     13.3700	  643.00	  654.10	-1885.43	  523.76
     13.4700	  643.00	  652.38	-1883.71	  522.90
     13.5700	  636.00	  650.84	-1889.18	  522.04
     13.6700	  636.00	  649.45	-1887.78	  521.18
     13.7700	  605.00	  648.15	-1917.49	  520.33
     13.8700	  655.00	  646.94	-1866.27	  519.48
     13.9700	  619.00	  645.79	-1901.13	  518.64
     14.0700	  626.00	  644.70	-1893.03	  517.80
     14.1700	  647.00	  643.65	-1870.98	  516.97
     14.2700	  618.00	  642.63	-1898.97	  516.15
     14.3700	  626.00	  641.65	-1889.98	  515.33
     14.4700	  614.00	  640.69	-1901.02	  514.51
     14.5700	  633.00	  639.75	-1881.09	  513.70
     14.6700	  658.00	  638.84	-1855.17	  512.89
     14.7700	  615.00	  637.94	-1897.27	  512.09
     14.8700	  630.00	  637.06	-1881.39	  511.29
     14.9700	  610.00	  636.19	-1900.52	  510.50
     15.0700	  612.00	  635.33	-1897.66	  509.71
     15.1700	  633.00	  634.48	-1875.82	  508.93
     15.2700	  644.00	  633.65	-1863.98	  508.15
     15.3700	  661.00	  632.83	-1846.16	  507.37
     15.4700	  611.00	  632.01	-1895.34	  506.61
     15.5700	  621.00	  631.20	-1884.54	  505.84
     15.6700	  641.00	  630.41	-1863.74	  505.08
     15.7700	  652.00	  629.62	-1851.95	  504.33
     15.8700	  610.00	  628.84	-1893.17	  503.58
     15.9700	  630.00	  628.06	-1872.39	  502.83
     16.0700	  608.00	  627.29	-1893.63	  502.09
     16.1700	  602.00	  626.53	-1898.87	  501.35
     16.2700	  643.00	  625.78	-1857.11	  500.62
     16.3700	  638.00	  625.03	-1861.36	  499.90
     16.4700	  565.00	  624.29	-1933.62	  499.17
     16.5700	  608.00	  623.55	-1889.88	  498.45
     16.6700	  620.00	  622.82	-1877.15	  497.74
     16.7700	  632.00	  622.10	-1864.43	  497.03
     16.8700	  591.00	  621.38	-1904.71	  496.33
     16.9700	  612.00	  620.66	-1883.00	  495.63
     17.0700	  593.00	  619.96	-1901.29	  494.93
     17.1700	  588.00	  619.25	-1905.59	  494.24
     17.2700	  592.00	  618.56	-1900.89	  493.55
     17.3700	  607.00	  617.86	-1885.20	  492.87
     17.4700	  586.00	  617.18	-1905.51	  492.19
     17.5700	  631.00	  616.50	-1859.83	  491.52
     17.6700	  633.00	  615.82	-1857.15	  490.85
     17.7700	  618.00	  615.15	-1871.48	  490.19
     17.8700	  633.00	  614.48	-1855.81	  489.53
     17.9700	  636.00	  613.82	-1852.15	  488.87
     18.0700	  639.00	  613.16	-1848.49	  488.22
     18.1700	  611.00	  612.51	-1875.84	  487.57
     18.2700	  606.00	  611.86	-1880.19	  486.93
     18.3700	  623.00	  611.22	-1862.55	  486.29
     18.4700	  624.00	  610.58	-1860.91	  485.65
     18.5700	  607.00	  611.14	-1878.47	  485.02
     18.6700	  574.00	  611.24	-1911.57	  484.40
     18.7700	  598.00	  610.65	-1886.99	  483.77
     18.8700	  615.00	  610.08	-1869.41	  483.15
     18.9700	  623.00	  609.50	-1860.84	  482.54
     19.0700	  610.00	  608.93	-1873.27	  481.93
     19.1700	  600.00	  608.37	-1882.71	  481.33
     19.2700	  624.00	  607.82	-1858.15	  480.72
     19.3700	  622.00	  607.27	-1859.60	  480.13
     19.4700	  614.00	  606.72	-1867.06	  479.53
     19.5700	  553.00	  606.19	-1927.52	  478.94
     19.6700	  587.00	  605.65	-1892.99	  478.36
     19.7700	  610.00	  605.13	-1869.46	  477.78
     19.8700	  609.00	  604.61	-1869.94	  477.20
     19.9700	  568.00	  604.15	-1910.48	  476.63
     20.0700	  597.00	  603.64	-1880.98	  476.06
     20.1700	  628.00	  603.15	-1849.48	  475.49
     20.2700	  589.00	  602.65	-1887.99	  474.93
     20.3700	  525.00	  602.17	-1951.50	  474.37
     20.4700	  622.00	  601.69	-1854.03	  473.82
     20.5700	  600.00	  601.22	-1875.56	  473.27
     20.6700	  619.00	  600.76	-1856.09	  472.73
     20.7700	  605.00	  600.31	-1869.64	  472.18
     20.8700	  596.00	  599.86	-1878.19	  471.65
     20.9700	  605.00	  599.42	-1868.75	  471.11
     21.0700	  605.00	  598.99	-1868.32	  470.58
     21.1700	  599.00	  598.57	-1873.90	  470.06
     21.2700	  606.00	  598.15	-1866.49	  469.53
     21.3700	  597.00	  597.75	-1875.08	  469.01
     21.4700	  592.00	  597.36	-1879.69	  468.50
     21.5700	  607.00	  596.97	-1864.31	  467.99
     21.6700	  603.00	  596.60	-1867.93	  467.48
     21.7700	  593.00	  596.23	-1877.57	  466.98
     21.8700	  618.00	  595.88	-1852.22	  466.48
     21.9700	  608.00	  595.54	-1861.88	  465.98
     22.0700	  605.00	  595.22	-1864.55	  465.49
     22.1700	  594.00	  594.91	-1875.24	  465.00
     22.2700	  603.00	  594.79	-1866.12	  464.51
     22.3700	  595.00	  594.51	-1873.84	  464.03
     22.4700	  576.00	  594.25	-1892.58	  463.55
     22.5700	  568.00	  594.01	-1900.34	  463.08
     22.6700	  629.00	  593.78	-1839.12	  462.61
     22.7700	  607.00	  593.58	-1860.92	  462.14
     22.8700	  612.00	  593.41	-1855.74	  461.68
     22.9700	  652.00	  593.26	-1815.60	  461.22
     23.0700	  622.00	  593.15	-1845.48	  460.76
     23.1700	  610.00	  593.07	-1857.40	  460.31
     23.2700	  593.00	  593.04	-1874.37	  459.86
     23.3700	  573.00	  593.05	-1894.39	  459.41
     23.4700	  595.00	  593.13	-1872.46	  458.97
     23.5700	  620.00	  593.28	-1847.62	  458.53
     23.6700	  591.00	  593.53	-1876.87	  458.09
     23.7700	  587.00	  593.91	-1881.25	  457.66
     23.8700	  627.00	  594.48	-1841.82	  457.23
     23.9700	  564.00	  595.33	-1905.67	  456.81
     24.0700	  592.00	  596.57	-1878.90	  456.38
     24.1700	  620.00	  598.55	-1852.89	  455.96
     24.2700	  612.00	  601.59	-1863.93	  455.55
     24.3700	  613.00	  606.14	-1867.47	  455.14
     24.4700	  625.00	  612.60	-1861.94	  454.73
     24.5700	  661.00	  621.17	-1834.51	  454.32
     24.6700	  643.00	  631.53	-1862.86	  453.92
     24.7700	  689.00	  642.50	-1827.83	  453.52
     24.8700	  733.00	  651.69	-1793.02	  453.12
     24.9700	  701.00	  655.44	-1828.78	  452.73
     25.0700	  687.00	  650.91	-1838.25	  452.34
     25.1700	  690.00	  639.96	-1824.30	  451.96
     25.2700	  649.00	  627.80	-1853.14	  451.57
     25.3700	  617.00	  617.91	-1875.25	  451.19
     25.4700	  599.00	  611.10	-1886.43	  450.82
     25.5700	  616.00	  607.05	-1865.38	  450.44
     25.6700	  616.00	  605.01	-1863.35	  450.07
     25.7700	  612.00	  604.33	-1866.66	  449.71
     25.8700	  598.00	  604.50	-1880.84	  449.34
     25.9700	  626.00	  605.27	-1853.61	  448.98
     26.0700	  593.00	  606.52	-1887.85	  448.63
     26.1700	  681.00	  608.20	-1801.53	  448.27
     26.2700	  568.00	  610.32	-1916.66	  447.92
     26.3700	  630.00	  612.92	-1857.26	  447.57
     26.4700	  631.00	  616.06	-1859.40	  447.22
     26.5700	  648.00	  619.84	-1846.17	  446.88
     26.6700	  643.00	  624.36	-1855.69	  446.54
     26.7700	  651.00	  629.80	-1853.13	  446.21
     26.8700	  639.00	  636.37	-1871.71	  445.87
     26.9700	  691.00	  644.38	-1827.72	  445.54
     27.0700	  625.00	  654.24	-1903.57	  445.21
     27.1700	  675.00	  666.53	-1865.87	  444.89
     27.2700	  675.00	  682.18	-1881.51	  444.57
     27.3700	  688.00	  702.76	-1889.09	  444.25
     27.4700	  716.00	  731.38	-1889.71	  443.93
     27.5700	  732.00	  774.54	-1916.87	  443.62
     27.6700	  747.00	  845.30	-1972.63	  443.31
     27.7700	  809.00	  967.48	-2032.81	  443.00
     27.8700	  905.00	 1178.86	-2148.20	  442.70
     27.9700	 1185.00	 1527.86	-2217.19	  442.40
     28.0700	 1699.00	 2054.97	-2230.31	  442.10
     28.1700	 2612.00	 2756.24	-2018.57	  441.80
     28.2700	 3853.00	 3532.70	-1554.04	  441.51
     28.3700	 4702.00	 4152.00	-1324.33	  441.22
     28.4700	 4851.00	 4294.41	-1317.74	  440.93
     28.5700	 4033.00	 3843.05	-1684.38	  440.64
     28.6700	 3026.00	 3157.22	-2005.55	  440.36
     28.7700	 2399.00	 2659.99	-2135.32	  440.08
     28.8700	 2283.00	 2497.53	-2088.86	  439.80
     28.9700	 2664.00	 2591.86	-1802.19	  439.53
     29.0700	 2918.00	 2738.93	-1695.27	  439.26
     29.1700	 2896.00	 2701.05	-1679.38	  438.99
     29.2700	 2425.00	 2368.10	-1817.44	  438.72
     29.3700	 1843.00	 1882.17	-1913.50	  438.46
     29.4700	 1330.00	 1438.89	-1983.23	  438.20
     29.5700	 1054.00	 1120.33	-1940.66	  437.94
     29.6700	  906.00	  923.67	-1892.01	  437.68
     29.7700	  882.00	  812.92	-1805.25	  437.43
     29.8700	  772.00	  751.27	-1853.61	  437.18
     29.9700	  760.00	  714.39	-1828.72	  436.93
     30.0700	  681.00	  689.85	-1883.18	  436.69
     30.1700	  681.00	  672.25	-1865.59	  436.44
     30.2700	  655.00	  659.38	-1878.71	  436.20
     30.3700	  697.00	  650.42	-1827.76	  435.96
     30.4700	  674.00	  645.43	-1845.76	  435.73
     30.5700	  665.00	  645.14	-1854.48	  435.49
     30.6700	  678.00	  650.80	-1847.14	  435.26
     30.7700	  664.00	  663.41	-1873.74	  435.03
     30.8700	  686.00	  682.41	-1870.75	  434.81
     30.9700	  684.00	  704.38	-1894.71	  434.58
     31.0700	  769.00	  722.12	-1827.46	  434.36
     31.1700	  734.00	  725.63	-1865.97	  434.14
     31.2700	  713.00	  708.97	-1870.30	  433.93
     31.3700	  668.00	  679.23	-1885.56	  433.71
     31.4700	  641.00	  649.04	-1882.37	  433.50
     31.5700	  685.00	  625.24	-1814.58	  433.29
     31.6700	  619.00	  609.05	-1864.38	  433.08
     31.7700	  608.00	  598.98	-1865.32	  432.88
     31.8700	  553.00	  592.91	-1914.24	  432.68
     31.9700	  619.00	  589.10	-1844.43	  432.48
     32.0700	  623.00	  586.52	-1837.85	  432.28
     32.1700	  598.00	  584.64	-1860.98	  432.08
     32.2700	  607.00	  583.25	-1850.58	  431.89
     32.3700	  618.00	  582.22	-1838.56	  431.70
     32.4700	  584.00	  581.53	-1871.86	  431.51
     32.5700	  604.00	  581.14	-1851.47	  431.32
     32.6700	  583.00	  581.06	-1872.40	  431.14
     32.7700	  575.00	  581.32	-1880.65	  430.95
     32.8700	  594.00	  581.99	-1862.32	  430.77
     32.9700	  593.00	  583.08	-1864.42	  430.59
     33.0700	  599.00	  584.75	-1860.09	  430.42
     33.1700	  620.00	  587.21	-1841.54	  430.24
     33.2700	  629.00	  590.83	-1836.17	  430.07
     33.3700	  614.00	  596.39	-1856.72	  429.90
     33.4700	  571.00	  605.35	-1908.68	  429.73
     33.5700	  640.00	  620.39	-1854.73	  429.57
     33.6700	  674.00	  645.76	-1846.09	  429.40
     33.7700	  656.00	  687.01	-1905.34	  429.24
     33.8700	  721.00	  749.14	-1902.47	  429.08
     33.9700	  866.00	  832.55	-1840.88	  428.92
     34.0700	  995.00	  928.05	-1807.38	  428.77
     34.1700	 1097.00	 1013.54	-1790.87	  428.61
     34.2700	 1142.00	 1055.85	-1788.18	  428.46
     34.3700	 1169.00	 1028.20	-1733.54	  428.31
     34.4700	  983.00	  941.89	-1833.22	  428.16
     34.5700	  826.00	  838.10	-1886.43	  428.02
     34.6700	  766.00	  747.79	-1856.12	  427.87
     34.7700	  705.00	  681.71	-1851.05	  427.73
     34.8700	  684.00	  638.74	-1829.08	  427.59
     34.9700	  634.00	  612.86	-1853.19	  427.45
     35.0700	  641.00	  597.67	-1831.00	  427.32
     35.1700	  626.00	  588.43	-1836.76	  427.18
     35.2700	  623.00	  582.32	-1833.66	  427.05
     35.3700	  603.00	  577.94	-1849.27	  426.92
     35.4700	  570.00	  574.59	-1878.92	  426.79
     35.5700	  582.00	  571.94	-1864.27	  426.66
     35.6700	  575.00	  569.79	-1869.13	  426.54
     35.7700	  570.00	  568.03	-1872.36	  426.41
     35.8700	  570.00	  566.57	-1870.90	  426.29
     35.9700	  522.00	  565.35	-1917.69	  426.17
     36.0700	  561.00	  564.33	-1877.67	  426.05
     36.1700	  580.00	  563.48	-1857.82	  425.94
     36.2700	  544.00	  562.78	-1893.11	  425.82
     36.3700	  571.00	  562.20	-1865.53	  425.71
     36.4700	  607.00	  561.74	-1829.07	  425.60
     36.5700	  570.00	  561.40	-1865.73	  425.49
     36.6700	  587.00	  561.67	-1849.00	  425.38
     36.7700	  587.00	  561.58	-1848.91	  425.27
     36.8700	  593.00	  561.64	-1842.97	  425.17
     36.9700	  555.00	  561.87	-1881.21	  425.06
     37.0700	  573.00	  562.55	-1863.89	  424.96
     37.1700	  511.00	  563.39	-1926.72	  424.86
     37.2700	  562.00	  564.74	-1877.07	  424.76
     37.3700	  589.00	  566.96	-1852.30	  424.67
     37.4700	  565.00	  570.51	-1879.84	  424.57
     37.5700	  588.00	  576.05	-1862.38	  424.48
     37.6700	  575.00	  584.41	-1883.74	  424.38
     37.7700	  602.00	  596.36	-1868.69	  424.29
     37.8700	  581.00	  612.16	-1905.49	  424.20
     37.9700	  595.00	  630.98	-1910.31	  424.12
     38.0700	  632.00	  650.44	-1892.77	  424.03
     38.1700	  675.00	  666.45	-1865.78	  423.95
     38.2700	  658.00	  673.19	-1889.52	  423.86
     38.3700	  664.00	  666.00	-1876.33	  423.78
     38.4700	  638.00	  646.97	-1883.30	  423.70
     38.5700	  630.00	  622.75	-1867.08	  423.62
     38.6700	  580.00	  601.78	-1896.11	  423.54
     38.7700	  551.00	  585.60	-1908.93	  423.47
     38.8700	  593.00	  574.41	-1855.75	  423.39
     38.9700	  548.00	  567.25	-1893.59	  423.32
     39.0700	  506.00	  562.86	-1931.19	  423.25
     39.1700	  571.00	  560.13	-1863.47	  423.18
     39.2700	  591.00	  558.36	-1841.69	  423.11
     39.3700	  582.00	  557.11	-1849.44	  423.04
     39.4700	  563.00	  556.17	-1867.51	  422.97
     39.5700	  556.00	  555.43	-1873.77	  422.91
     39.6700	  533.00	  554.84	-1896.17	  422.85
     39.7700	  533.00	  554.35	-1895.69	  422.78
     39.8700	  585.00	  553.28	-1842.62	  422.72
     39.9700	  539.00	  552.96	-1888.30	  422.66
     40.0700	  512.00	  552.70	-1915.04	  422.60
     40.1700	  558.00	  552.49	-1868.82	  422.55
     40.2700	  565.00	  552.32	-1861.65	  422.49
     40.3700	  552.00	  552.18	-1874.52	  422.44
     40.4700	  581.00	  552.08	-1845.42	  422.38
     40.5700	  554.00	  552.56	-1872.89	  422.33
     40.6700	  553.00	  552.53	-1873.86	  422.28
     40.7700	  540.00	  552.54	-1886.87	  422.23
     40.8700	  565.00	  552.58	-1861.91	  422.18
     40.9700	  517.00	  552.65	-1909.98	  422.13
     41.0700	  544.00	  552.76	-1883.10	  422.09
     41.1700	  580.00	  552.92	-1847.26	  422.04
     41.2700	  572.00	  553.13	-1855.47	  422.00
     41.3700	  552.00	  553.40	-1875.74	  421.95
     41.4700	  520.00	  553.81	-1908.14	  421.91
     41.5700	  535.00	  554.24	-1893.58	  421.87
     41.6700	  537.00	  554.80	-1892.13	  421.83
     41.7700	  513.00	  555.52	-1916.86	  421.79
     41.8700	  535.00	  556.49	-1895.82	  421.76
     41.9700	  595.00	  557.85	-1837.19	  421.72
     42.0700	  578.00	  559.89	-1856.23	  421.68
     42.1700	  545.00	  563.10	-1892.43	  421.65
     42.2700	  562.00	  568.24	-1880.57	  421.62
     42.3700	  570.00	  576.31	-1880.64	  421.58
     42.4700	  543.00	  588.33	-1919.67	  421.55
     42.5700	  599.00	  604.84	-1880.18	  421.52
     42.6700	  623.00	  625.36	-1876.70	  421.49
     42.7700	  615.00	  647.26	-1906.59	  421.46
     42.8700	  640.00	  665.39	-1899.73	  421.44
     42.9700	  627.00	  673.25	-1920.58	  421.41
     43.0700	  668.00	  666.55	-1872.88	  421.38
     43.1700	  591.00	  648.43	-1931.77	  421.36
     43.2700	  589.00	  626.11	-1911.45	  421.34
     43.3700	  571.00	  605.28	-1908.61	  421.31
     43.4700	  542.00	  588.57	-1920.91	  421.29
     43.5700	  587.00	  576.73	-1864.07	  421.27
     43.6700	  534.00	  568.73	-1909.06	  421.25
     43.7700	  565.00	  563.70	-1873.04	  421.23
     43.8700	  548.00	  560.61	-1886.95	  421.21
     43.9700	  539.00	  558.68	-1894.01	  421.20
     44.0700	  578.00	  557.41	-1853.75	  421.18
     44.1700	  516.00	  556.53	-1914.86	  421.16
     44.2700	  597.00	  555.88	-1833.21	  421.15
     44.3700	  569.00	  555.39	-1860.73	  421.13
     44.4700	  560.00	  555.03	-1869.36	  421.12
     44.5700	  583.00	  554.76	-1846.09	  421.11
     44.6700	  543.00	  554.56	-1885.89	  421.10
     44.7700	  573.00	  554.64	-1855.97	  421.08
     44.8700	  556.00	  554.56	-1872.89	  421.07
     44.9700	  584.00	  554.52	-1844.86	  421.06
     45.0700	  569.00	  554.53	-1859.86	  421.06
     45.1700	  627.00	  554.58	-1801.92	  421.05
     45.2700	  573.00	  554.66	-1855.99	  421.04
     45.3700	  561.00	  554.76	-1868.10	  421.03
     45.4700	  568.00	  554.90	-1861.24	  421.03
     45.5700	  556.00	  555.07	-1873.40	  421.02
     45.6700	  568.00	  555.36	-1861.69	  421.02
     45.7700	  596.00	  555.59	-1833.92	  421.01
     45.8700	  531.00	  555.85	-1899.19	  421.01
     45.9700	  579.00	  556.15	-1851.49	  421.01
     46.0700	  561.00	  556.49	-1869.82	  421.01
     46.1700	  556.00	  556.87	-1875.20	  421.00
     46.2700	  569.00	  557.30	-1862.63	  421.00
     46.3700	  551.00	  557.86	-1881.20	  421.00
     46.4700	  603.00	  558.23	-1829.56	  421.00
     46.5700	  549.00	  558.84	-1884.17	  421.01
     46.6700	  557.00	  559.53	-1876.86	  421.01
     46.7700	  514.00	  560.32	-1920.66	  421.01
     46.8700	  560.00	  561.24	-1875.58	  421.01
     46.9700	  552.00	  562.34	-1884.67	  421.02
     47.0700	  613.00	  563.69	-1825.02	  421.02
     47.1700	  549.00	  565.42	-1890.75	  421.02
     47.2700	  572.00	  567.79	-1870.13	  421.03
     47.3700	  560.00	  571.19	-1885.53	  421.03
     47.4700	  590.00	  576.18	-1860.51	  421.04
     47.5700	  610.00	  583.43	-1847.76	  421.05
     47.6700	  555.00	  593.56	-1912.89	  421.05
     47.7700	  621.00	  606.86	-1860.19	  421.06
     47.8700	  639.00	  622.90	-1858.23	  421.07
     47.9700	  610.00	  640.07	-1904.41	  421.08
     48.0700	  635.00	  655.19	-1894.53	  421.09
     48.1700	  632.00	  663.97	-1906.31	  421.10
     48.2700	  646.00	  663.33	-1891.66	  421.10
     48.3700	  665.00	  654.60	-1863.93	  421.11
     48.4700	  605.00	  641.17	-1910.50	  421.13
     48.5700	  614.00	  627.66	-1887.99	  421.14
     48.6700	  618.00	  616.58	-1872.91	  421.15
     48.7700	  615.00	  608.96	-1868.30	  421.16
     48.8700	  599.00	  604.94	-1880.28	  421.17
     48.9700	  576.00	  604.15	-1902.49	  421.18
     49.0700	  560.00	  606.09	-1920.43	  421.20
     49.1700	  602.00	  610.41	-1882.74	  421.21
     49.2700	  590.00	  617.05	-1901.39	  421.22
     49.3700	  586.00	  626.54	-1914.88	  421.24
     49.4700	  599.00	  640.39	-1915.73	  421.25
     49.5700	  664.00	  662.09	-1872.42	  421.27
     49.6700	  683.00	  698.67	-1890.00	  421.28
     49.7700	  712.00	  762.66	-1925.00	  421.30
     49.8700	  879.00	  872.91	-1868.24	  421.31
     49.9700	 1039.00	 1052.04	-1887.37	  421.33
     50.0700	 1376.00	 1318.37	-1816.70	  421.34
     50.1700	 1701.00	 1672.37	-1845.70	  421.36
     50.2700	 2241.00	 2081.81	-1715.15	  421.38
     50.3700	 2501.00	 2470.51	-1843.84	  421.39
     50.4700	 2719.00	 2724.16	-1879.49	  421.41
     50.5700	 2769.00	 2738.73	-1844.06	  421.43
     50.6700	 2538.00	 2505.43	-1841.76	  421.44
     50.7700	 2069.00	 2123.87	-1929.21	  421.46
     50.8700	 1640.00	 1715.56	-1949.89	  421.48
     50.9700	 1264.00	 1361.00	-1971.33	  421.50
     51.0700	  976.00	 1095.64	-1993.98	  421.52
     51.1700	  842.00	  920.28	-1952.61	  421.54
     51.2700	  817.00	  815.91	-1873.25	  421.55
     51.3700	  731.00	  757.76	-1901.09	  421.57
     51.4700	  713.00	  724.17	-1885.51	  421.59
     51.5700	  727.00	  701.02	-1848.35	  421.61
     51.6700	  660.00	  681.67	-1896.01	  421.63
     51.7700	  671.00	  664.53	-1867.87	  421.65
     51.8700	  635.00	  649.80	-1889.13	  421.67
     51.9700	  615.00	  637.81	-1897.15	  421.69
     52.0700	  674.00	  628.67	-1829.00	  421.71
     52.1700	  663.00	  622.13	-1833.47	  421.73
     52.2700	  661.00	  617.86	-1831.19	  421.75
     52.3700	  661.00	  615.49	-1828.82	  421.77
     52.4700	  642.00	  614.82	-1847.15	  421.79
     52.5700	  589.00	  615.85	-1901.19	  421.81
     52.6700	  644.00	  618.90	-1849.24	  421.83
     52.7700	  634.00	  624.69	-1865.03	  421.85
     52.8700	  633.00	  634.55	-1875.89	  421.87
     52.9700	  646.00	  650.62	-1878.95	  421.89
     53.0700	  659.00	  675.86	-1891.19	  421.91
     53.1700	  663.00	  713.83	-1925.16	  421.93
     53.2700	  725.00	  767.93	-1917.26	  421.95
     53.3700	  797.00	  840.13	-1917.46	  421.97
     53.4700	  894.00	  929.37	-1909.70	  421.99
     53.5700	 1069.00	 1029.69	-1835.02	  422.01
     53.6700	 1139.00	 1127.83	-1863.16	  422.03
     53.7700	 1229.00	 1203.01	-1848.34	  422.05
     53.8700	 1191.00	 1231.99	-1915.33	  422.07
     53.9700	 1212.00	 1203.60	-1865.94	  422.10
     54.0700	 1196.00	 1128.56	-1806.90	  422.12
     54.1700	 1024.00	 1030.53	-1880.86	  422.14
     54.2700	  925.00	  930.73	-1880.06	  422.16
     54.3700	  808.00	  842.24	-1908.57	  422.18
     54.4700	  757.00	  770.96	-1888.29	  422.20
     54.5700	  724.00	  717.85	-1868.19	  422.22
     54.6700	  692.00	  680.90	-1863.23	  422.24
     54.7700	  625.00	  656.63	-1905.96	  422.26
     54.8700	  675.00	  641.47	-1840.81	  422.28
     54.9700	  680.00	  632.42	-1826.76	  422.30
     55.0700	  609.00	  627.33	-1892.66	  422.32
     55.1700	  655.00	  624.82	-1844.16	  422.34
     55.2700	  620.00	  624.13	-1878.46	  422.35
     55.3700	  683.00	  624.85	-1816.19	  422.37
     55.4700	  623.00	  626.83	-1878.17	  422.39
     55.5700	  564.00	  630.06	-1940.40	  422.41
     55.6700	  678.00	  634.65	-1830.98	  422.43
     55.7700	  647.00	  640.84	-1868.17	  422.45
     55.8700	  655.00	  649.12	-1868.46	  422.47
     55.9700	  663.00	  660.44	-1871.77	  422.49
     56.0700	  673.00	  676.54	-1877.87	  422.50
     56.1700	  718.00	  700.63	-1856.97	  422.52
     56.2700	  740.00	  738.11	-1872.45	  422.54
     56.3700	  791.00	  797.24	-1880.57	  422.56
     56.4700	  869.00	  889.20	-1894.54	  422.58
     56.5700	 1001.00	 1026.76	-1900.09	  422.59
     56.6700	 1212.00	 1220.96	-1883.29	  422.61
     56.7700	 1428.00	 1476.31	-1922.64	  422.63
     56.8700	 1786.00	 1784.65	-1872.99	  422.64
     56.9700	 2240.00	 2119.50	-1753.83	  422.66
     57.0700	 2476.00	 2430.84	-1829.18	  422.68
     57.1700	 2683.00	 2647.35	-1838.68	  422.69
     57.2700	 2681.00	 2700.54	-1893.87	  422.71
     57.3700	 2528.00	 2570.35	-1916.69	  422.72
     57.4700	 2279.00	 2303.26	-1898.59	  422.74
     57.5700	 1930.00	 1975.16	-1919.50	  422.75
     57.6700	 1524.00	 1649.73	-2000.06	  422.77
     57.7700	 1224.00	 1366.06	-2016.39	  422.78
     57.8700	 1129.00	 1141.94	-1887.28	  422.79
     57.9700	  903.00	  979.17	-1950.50	  422.81
     58.0700	  831.00	  870.36	-1913.69	  422.82
     58.1700	  779.00	  804.32	-1899.65	  422.83
     58.2700	  753.00	  770.62	-1891.95	  422.85
     58.3700	  715.00	  761.99	-1921.32	  422.86
     58.4700	  789.00	  774.72	-1860.05	  422.87
     58.5700	  796.00	  807.58	-1885.92	  422.88
     58.6700	  850.00	  860.15	-1884.48	  422.89
     58.7700	  908.00	  930.75	-1897.09	  422.91
     58.8700	 1026.00	 1014.82	-1863.15	  422.92
     58.9700	 1118.00	 1103.56	-1859.89	  422.93
     59.0700	 1283.00	 1184.97	-1776.30	  422.94
     59.1700	 1299.00	 1248.78	-1824.11	  422.95
     59.2700	 1246.00	 1291.00	-1919.33	  422.96
     59.3700	 1373.00	 1310.97	-1812.30	  422.96
     59.4700	 1278.00	 1306.95	-1903.28	  422.97
     59.5700	 1209.00	 1279.93	-1945.26	  422.98
     59.6700	 1287.00	 1239.29	-1826.62	  422.99
     59.7700	 1203.00	 1199.36	-1870.70	  423.00
     59.8700	 1168.00	 1172.37	-1878.70	  423.00
     59.9700	 1236.00	 1166.35	-1804.68	  423.01
     60.0700	 1208.00	 1187.32	-1853.66	  423.02
     60.1700	 1293.00	 1239.42	-1820.75	  423.02
     60.2700	 1380.00	 1321.43	-1815.76	  423.03
     60.3700	 1468.00	 1422.98	-1829.32	  423.03
     60.4700	 1547.00	 1522.98	-1850.32	  423.04
     60.5700	 1614.00	 1591.54	-1851.87	  423.04
     60.6700	 1556.00	 1599.44	-1917.77	  423.04
     60.7700	 1486.00	 1535.64	-1923.97	  423.05
     60.8700	 1409.00	 1415.39	-1880.73	  423.05
     60.9700	 1246.00	 1267.83	-1896.17	  423.05
     61.0700	 1096.00	 1119.63	-1897.96	  423.05
     61.1700	  985.00	  988.78	-1878.11	  423.05
     61.2700	  883.00	  884.77	-1876.10	  423.05
     61.3700	  793.00	  810.45	-1891.78	  423.06
     61.4700	  792.00	  764.56	-1846.89	  423.05
     61.5700	  775.00	  744.36	-1843.70	  423.05
     61.6700	  755.00	  747.86	-1867.19	  423.05
     61.7700	  817.00	  774.91	-1832.25	  423.05
     61.8700	  902.00	  827.09	-1799.43	  423.05
     61.9700	  919.00	  906.30	-1861.63	  423.05
     62.0700	 1091.00	 1012.58	-1795.91	  423.04
     62.1700	 1149.00	 1141.88	-1867.21	  423.04
     62.2700	 1292.00	 1283.80	-1866.13	  423.04
     62.3700	 1463.00	 1420.21	-1831.54	  423.03
     62.4700	 1519.00	 1525.37	-1880.70	  423.03
     62.5700	 1527.00	 1571.79	-1919.13	  423.02
     62.6700	 1475.00	 1544.37	-1943.70	  423.01
     62.7700	 1445.00	 1451.50	-1880.83	  423.01
     62.8700	 1342.00	 1318.64	-1850.97	  423.00
     62.9700	 1196.00	 1173.12	-1851.45	  422.99
     63.0700	  972.00	 1035.40	-1937.73	  422.98
     63.1700	  878.00	  917.65	-1913.98	  422.97
     63.2700	  783.00	  825.10	-1916.44	  422.96
     63.3700	  758.00	  757.55	-1873.88	  422.95
     63.4700	  739.00	  711.59	-1846.92	  422.94
     63.5700	  715.00	  682.48	-1841.82	  422.93
     63.6700	  658.00	  665.67	-1882.00	  422.92
     63.7700	  656.00	  657.78	-1876.12	  422.91
     63.8700	  667.00	  656.83	-1864.17	  422.90
     63.9700	  642.00	  662.31	-1894.64	  422.88
     64.0700	  694.00	  674.96	-1855.30	  422.87
     64.1700	  690.00	  696.57	-1880.90	  422.85
     64.2700	  742.00	  729.51	-1861.84	  422.84
     64.3700	  876.00	  776.25	-1774.58	  422.82
     64.4700	  904.00	  838.57	-1808.90	  422.80
     64.5700	  921.00	  916.17	-1869.50	  422.79
     64.6700	 1024.00	 1007.55	-1857.89	  422.77
     64.7700	 1146.00	 1106.02	-1834.36	  422.75
     64.8700	 1227.00	 1201.08	-1848.41	  422.73
     64.9700	 1353.00	 1278.84	-1800.17	  422.71
     65.0700	 1345.00	 1325.70	-1855.04	  422.69
     65.1700	 1315.00	 1333.18	-1892.51	  422.67
     65.2700	 1281.00	 1300.14	-1893.47	  422.65
     65.3700	 1226.00	 1234.27	-1882.60	  422.63
     65.4700	 1102.00	 1148.92	-1921.25	  422.61
     65.5700	 1003.00	 1057.77	-1929.10	  422.58
     65.6700	  954.00	  971.24	-1891.57	  422.56
     65.7700	  890.00	  894.65	-1878.98	  422.53
     65.8700	  813.00	  830.31	-1891.64	  422.51
     65.9700	  720.00	  778.33	-1932.67	  422.48
     66.0700	  717.00	  737.81	-1895.15	  422.46
     66.1700	  708.00	  707.27	-1873.61	  422.43
     66.2700	  657.00	  684.92	-1902.25	  422.40
     66.3700	  658.00	  669.00	-1885.34	  422.37
     66.4700	  625.00	  658.06	-1907.39	  422.34
     66.5700	  595.00	  651.04	-1930.38	  422.31
     66.6700	  607.00	  647.10	-1914.43	  422.28
     66.7700	  702.00	  645.83	-1818.16	  422.25
     66.8700	  610.00	  647.03	-1911.36	  422.22
     66.9700	  621.00	  650.98	-1904.32	  422.19
     67.0700	  619.00	  657.79	-1913.13	  422.15
     67.1700	  660.00	  668.72	-1883.06	  422.12
     67.2700	  630.00	  685.70	-1930.03	  422.08
     67.3700	  718.00	  711.78	-1868.12	  422.05
     67.4700	  729.00	  751.44	-1896.78	  422.01
     67.5700	  855.00	  810.51	-1829.84	  421.98
     67.6700	  882.00	  895.80	-1888.14	  421.94
     67.7700	  979.00	 1014.13	-1909.46	  421.90
     67.8700	 1165.00	 1170.54	-1879.88	  421.86
     67.9700	 1400.00	 1366.31	-1840.64	  421.82
     68.0700	 1664.00	 1596.66	-1806.99	  421.78
     68.1700	 1918.00	 1848.73	-1805.07	  421.74
     68.2700	 2136.00	 2100.14	-1838.48	  421.70
     68.3700	 2305.00	 2318.14	-1887.47	  421.66
     68.4700	 2472.00	 2463.15	-1865.48	  421.61
     68.5700	 2486.00	 2501.23	-1889.56	  421.57
     68.6700	 2337.00	 2422.21	-1959.55	  421.52
     68.7700	 2302.00	 2246.43	-1818.76	  421.48
     68.8700	 1965.00	 2011.94	-1921.27	  421.43
     68.9700	 1718.00	 1756.83	-1913.16	  421.39
     69.0700	 1592.00	 1510.26	-1792.59	  421.34
     69.1700	 1285.00	 1291.10	-1880.43	  421.29
     69.2700	 1144.00	 1108.98	-1839.31	  421.24
     69.3700	  982.00	  966.34	-1858.67	  421.19
     69.4700	  866.00	  860.27	-1868.61	  421.14
     69.5700	  835.00	  784.87	-1824.21	  421.09
     69.6700	  763.00	  733.15	-1844.48	  421.04
     69.7700	  703.00	  698.50	-1869.83	  420.99
     69.8700	  693.00	  675.52	-1856.86	  420.93
     69.9700	  677.00	  660.21	-1857.55	  420.88
     70.0700	  666.00	  649.82	-1858.16	  420.82
     70.1700	  698.00	  642.63	-1818.97	  420.77
     70.2700	  667.00	  637.62	-1844.95	  420.71
     70.3700	  640.00	  634.20	-1868.53	  420.65
     70.4700	  613.00	  632.06	-1893.39	  420.60
     70.5700	  651.00	  631.07	-1854.40	  420.54
     70.6700	  633.00	  631.23	-1872.56	  420.48
     70.7700	  647.00	  632.65	-1859.98	  420.42
     70.8700	  667.00	  635.44	-1842.77	  420.36
     70.9700	  621.00	  640.51	-1893.85	  420.30
     71.0700	  644.00	  648.60	-1878.93	  420.23
     71.1700	  702.00	  661.13	-1833.46	  420.17
     71.2700	  720.00	  680.18	-1834.52	  420.11
     71.3700	  720.00	  708.66	-1863.00	  420.04
     71.4700	  741.00	  750.17	-1883.50	  419.98
     71.5700	  813.00	  808.78	-1870.11	  419.91
     71.6700	  925.00	  888.47	-1837.80	  419.85
     71.7700	  985.00	  992.21	-1881.54	  419.78
     71.8700	 1133.00	 1121.00	-1862.33	  419.71
     71.9700	 1305.00	 1272.51	-1841.85	  419.64
     72.0700	 1409.00	 1440.34	-1905.67	  419.57
     72.1700	 1594.00	 1613.70	-1894.03	  419.50
     72.2700	 1782.00	 1773.78	-1866.12	  419.43
     72.3700	 1859.00	 1899.30	-1914.64	  419.36
     72.4700	 2041.00	 1967.25	-1800.59	  419.28
     72.5700	 1960.00	 1962.58	-1876.92	  419.21
     72.6700	 1779.00	 1886.32	-1981.65	  419.14
     72.7700	 1703.00	 1755.00	-1926.33	  419.06
     72.8700	 1592.00	 1591.84	-1874.18	  418.99
     72.9700	 1386.00	 1418.56	-1906.89	  418.91
     73.0700	 1243.00	 1251.54	-1882.87	  418.83
     73.1700	 1090.00	 1101.66	-1886.00	  418.75
     73.2700	  995.00	  974.81	-1854.15	  418.67
     73.3700	  848.00	  872.72	-1899.06	  418.59
     73.4700	  812.00	  794.20	-1856.53	  418.51
     73.5700	  738.00	  736.09	-1872.43	  418.43
     73.6700	  706.00	  694.48	-1862.82	  418.35
     73.7700	  731.00	  665.40	-1808.73	  418.27
     73.8700	  602.00	  645.37	-1917.71	  418.18
     73.9700	  679.00	  631.70	-1827.03	  418.10
     74.0700	  625.00	  621.88	-1871.21	  418.02
     74.1700	  636.00	  615.67	-1854.01	  417.93
     74.2700	  639.00	  611.71	-1847.04	  417.84
     74.3700	  632.00	  609.47	-1851.80	  417.76
     74.4700	  631.00	  608.60	-1851.94	  417.67
     74.5700	  695.00	  608.84	-1788.17	  417.58
     74.6700	  616.00	  609.89	-1868.23	  417.49
     74.7700	  643.00	  611.46	-1842.79	  417.40
     74.8700	  616.00	  613.12	-1871.46	  417.31
     74.9700	  634.00	  614.44	-1854.77	  417.22
     75.0700	  655.00	  614.92	-1834.26	  417.12
     75.1700	  691.00	  614.27	-1797.61	  417.03
     75.2700	  680.00	  612.49	-1806.82	  416.94
     75.3700	  716.00	  609.86	-1768.19	  416.84
     75.4700	  691.00	  607.07	-1790.40	  416.75
     75.5700	  671.00	  604.71	-1808.04	  416.65
     75.6700	  694.00	  603.44	-1783.78	  416.55
     75.7700	  649.00	  603.95	-1829.28	  416.45
     75.8700	  645.00	  606.95	-1836.28	  416.36
     75.9700	  663.00	  613.18	-1824.51	  416.26
     76.0700	  643.00	  623.32	-1854.65	  416.16
     76.1700	  659.00	  638.20	-1853.53	  416.06
     76.2700	  661.00	  658.21	-1871.54	  415.95
     76.3700	  722.00	  683.47	-1835.80	  415.85
     76.4700	  747.00	  713.59	-1840.92	  415.75
     76.5700	  757.00	  747.52	-1864.85	  415.65
     76.6700	  779.00	  783.40	-1878.74	  415.54
     76.7700	  888.00	  818.48	-1804.82	  415.44
     76.8700	  822.00	  849.12	-1901.46	  415.33
     76.9700	  881.00	  871.09	-1864.42	  415.22
     77.0700	  864.00	  880.54	-1890.88	  415.12
     77.1700	  792.00	  875.55	-1957.88	  415.01
     77.2700	  850.00	  857.01	-1881.35	  414.90
     77.3700	  803.00	  828.23	-1899.56	  414.79
     77.4700	  800.00	  793.43	-1867.76	  414.68
     77.5700	  781.00	  756.49	-1849.83	  414.57
     77.6700	  714.00	  720.49	-1880.82	  414.46
     77.7700	  691.00	  687.54	-1870.88	  414.34
     77.8700	  636.00	  658.72	-1897.05	  414.23
     77.9700	  615.00	  634.98	-1894.31	  414.12
     78.0700	  575.00	  616.07	-1915.41	  414.00
     78.1700	  648.00	  601.57	-1827.90	  413.89
     78.2700	  583.00	  590.80	-1882.14	  413.77
     78.3700	  542.00	  583.02	-1915.35	  413.65
     78.4700	  559.00	  577.50	-1892.84	  413.54
     78.5700	  566.00	  573.65	-1881.99	  413.42
     78.6700	  616.00	  570.92	-1829.26	  413.30
     78.7700	  542.00	  569.08	-1901.41	  413.18
     78.8700	  534.00	  567.81	-1908.14	  413.06
     78.9700	  593.00	  566.96	-1848.29	  412.94
     79.0700	  558.00	  566.45	-1882.78	  412.82
     79.1700	  536.00	  566.21	-1904.55	  412.70
     79.2700	  570.00	  566.25	-1870.58	  412.57
     79.3700	  543.00	  566.56	-1897.89	  412.45
     79.4700	  579.00	  567.17	-1862.50	  412.32
     79.5700	  559.00	  568.12	-1883.46	  412.20
     79.6700	  561.00	  569.50	-1882.83	  412.07
     79.7700	  536.00	  571.38	-1909.72	  411.95
     79.8700	  575.00	  573.94	-1873.27	  411.82
     79.9700	  599.00	  577.39	-1852.72	  411.69
     80.0700	  582.00	  582.05	-1874.39	  411.56
     80.1700	  570.00	  588.40	-1892.73	  411.44
     80.2700	  571.00	  597.05	-1900.39	  411.31
     80.3700	  618.00	  608.82	-1865.15	  411.18
     80.4700	  591.00	  624.63	-1907.96	  411.04
     80.5700	  678.00	  645.32	-1841.65	  410.91
     80.6700	  663.00	  672.37	-1883.71	  410.78
     80.7700	  698.00	  706.44	-1882.78	  410.65
     80.8700	  784.00	  748.01	-1838.34	  410.51
     80.9700	  832.00	  796.88	-1839.22	  410.38
     81.0700	  833.00	  851.94	-1893.27	  410.25
     81.1700	  939.00	  910.96	-1846.29	  410.11
     81.2700	  948.00	  970.55	-1896.89	  409.97
     81.3700	 1088.00	 1026.30	-1812.64	  409.84
     81.4700	 1049.00	 1073.37	-1898.70	  409.70
     81.5700	 1162.00	 1107.55	-1819.89	  409.56
     81.6700	 1163.00	 1126.27	-1837.60	  409.43
     81.7700	 1113.00	 1128.80	-1890.13	  409.29
     81.8700	 1100.00	 1115.97	-1890.30	  409.15
     81.9700	 1096.00	 1089.88	-1868.22	  409.01
     82.0700	 1067.00	 1053.59	-1860.92	  408.87
     82.1700	 1028.00	 1010.47	-1856.81	  408.72
     82.2700	  961.00	  963.73	-1877.07	  408.58
     82.3700	  923.00	  916.15	-1867.48	  408.44
     82.4700	  809.00	  870.03	-1935.36	  408.30
     82.5700	  873.00	  827.11	-1828.45	  408.15
     82.6700	  783.00	  788.41	-1879.74	  408.01
     82.7700	  774.00	  754.16	-1854.49	  407.86
     82.8700	  693.00	  724.08	-1905.42	  407.72
     82.9700	  685.00	  697.70	-1887.03	  407.57
     83.0700	  691.00	  674.61	-1857.94	  407.43
     83.1700	  620.00	  654.62	-1908.96	  407.28
     83.2700	  594.00	  637.68	-1918.01	  407.13
     83.3700	  575.00	  623.76	-1923.09	  406.98
     83.4700	  668.00	  612.83	-1819.17	  406.84
     83.5700	  567.00	  604.84	-1912.18	  406.69
     83.6700	  571.00	  599.68	-1903.01	  406.54
     83.7700	  587.00	  597.16	-1884.49	  406.39
     83.8700	  594.00	  597.02	-1877.35	  406.24
     83.9700	  611.00	  598.88	-1862.21	  406.08
     84.0700	  576.00	  602.26	-1900.59	  405.93
     84.1700	  579.00	  606.58	-1901.91	  405.78
     84.2700	  603.00	  611.05	-1882.39	  405.63
     84.3700	  604.00	  615.11	-1885.44	  405.48
     84.4700	  553.00	  617.81	-1939.14	  405.32
     84.5700	  597.00	  618.67	-1896.00	  405.17
     84.6700	  639.00	  617.26	-1852.60	  405.01
     84.7700	  606.00	  613.64	-1881.98	  404.86
     84.8700	  599.00	  608.23	-1883.56	  404.70
     84.9700	  611.00	  601.62	-1864.95	  404.55
     85.0700	  544.00	  594.46	-1924.80	  404.39
     85.1700	  582.00	  587.31	-1879.65	  404.23
     85.2700	  601.00	  580.63	-1853.96	  404.08
     85.3700	  597.00	  574.76	-1852.09	  403.92
     85.4700	  567.00	  569.93	-1877.27	  403.76
     85.5700	  566.00	  566.30	-1874.63	  403.60
     85.6700	  568.00	  563.92	-1870.25	  403.44
     85.7700	  597.00	  562.83	-1840.16	  403.28
     85.8700	  584.00	  563.01	-1853.34	  403.12
     85.9700	  548.00	  564.44	-1890.77	  402.96
     86.0700	  623.00	  567.08	-1818.41	  402.80
     86.1700	  587.00	  570.89	-1858.22	  402.64
     86.2700	  571.00	  575.79	-1879.13	  402.48
     86.3700	  571.00	  581.71	-1885.04	  402.32
     86.4700	  608.00	  588.51	-1854.85	  402.16
     86.5700	  578.00	  596.02	-1892.35	  401.99
     86.6700	  582.00	  604.06	-1896.39	  401.83
     86.7700	  565.00	  612.36	-1921.69	  401.67
     86.8700	  592.00	  620.66	-1903.00	  401.51
     86.9700	  628.00	  628.77	-1875.10	  401.34
     87.0700	  636.00	  636.61	-1874.94	  401.18
     87.1700	  623.00	  644.32	-1895.65	  401.01
     87.2700	  605.00	  652.14	-1921.47	  400.85
     87.3700	  686.00	  660.28	-1848.62	  400.68
     87.4700	  641.00	  668.84	-1902.17	  400.52
     87.5700	  683.00	  677.66	-1868.99	  400.35
     87.6700	  670.00	  686.34	-1890.67	  400.19
     87.7700	  669.00	  694.19	-1899.52	  400.02
     87.8700	  672.00	  700.31	-1902.65	  399.85
     87.9700	  762.00	  703.75	-1816.09	  399.69
     88.0700	  725.00	  703.71	-1853.05	  399.52
     88.1700	  675.00	  699.84	-1899.18	  399.35
     88.2700	  675.00	  692.36	-1891.69	  399.18
     88.3700	  717.00	  681.97	-1839.30	  399.02
     88.4700	  655.00	  669.62	-1888.95	  398.85
     88.5700	  670.00	  656.33	-1860.66	  398.68
     88.6700	  608.00	  643.00	-1909.34	  398.51
     88.7700	  600.00	  630.45	-1904.78	  398.34
     88.8700	  622.00	  618.86	-1871.20	  398.17
     88.9700	  607.00	  609.57	-1876.90	  398.00
     89.0700	  585.00	  602.39	-1891.73	  397.83
     89.1700	  613.00	  597.44	-1858.77	  397.67
     89.2700	  597.00	  594.62	-1871.95	  397.50
     89.3700	  624.00	  593.73	-1844.06	  397.33
     89.4700	  566.00	  594.42	-1902.75	  397.16
     89.5700	  643.00	  596.26	-1827.59	  396.99
     89.6700	  581.00	  598.72	-1892.05	  396.81
     89.7700	  610.00	  601.25	-1865.58	  396.64
     89.8700	  634.00	  603.26	-1843.59	  396.47
     89.9700	  656.00	  604.23	-1822.56	  396.30
     90.0700	  657.00	  603.78	-1821.12	  396.13
     90.1700	  641.00	  601.79	-1835.13	  395.96
     90.2700	  650.00	  598.37	-1822.70	  395.79
     90.3700	  612.00	  593.82	-1856.15	  395.62
     90.4700	  676.00	  588.52	-1786.85	  395.45
     90.5700	  585.00	  582.86	-1872.20	  395.28
     90.6700	  589.00	  577.20	-1862.54	  395.10
     90.7700	  528.00	  571.81	-1918.14	  394.93
     90.8700	  565.00	  566.89	-1876.22	  394.76
     90.9700	  522.00	  562.58	-1914.92	  394.59
     91.0700	  549.00	  558.97	-1884.30	  394.42
     91.1700	  558.00	  556.06	-1872.39	  394.25
     91.2700	  593.00	  553.85	-1835.18	  394.07
     91.3700	  514.00	  552.28	-1912.62	  393.90
     91.4700	  580.00	  551.32	-1845.65	  393.73
     91.5700	  537.00	  550.90	-1888.23	  393.56
     91.6700	  579.00	  550.99	-1846.33	  393.39
     91.7700	  535.00	  551.60	-1890.94	  393.22
     91.8700	  584.00	  552.75	-1843.09	  393.04
     91.9700	  591.00	  554.51	-1837.84	  392.87
     92.0700	  570.00	  556.98	-1861.32	  392.70
     92.1700	  537.00	  560.32	-1897.66	  392.53
     92.2700	  531.00	  564.72	-1908.05	  392.36
     92.3700	  536.00	  570.38	-1908.71	  392.19
     92.4700	  566.00	  577.54	-1885.87	  392.02
     92.5700	  563.00	  586.42	-1897.75	  391.84
     92.6700	  596.00	  597.21	-1875.55	  391.67
     92.7700	  602.00	  610.08	-1882.41	  391.50
     92.8700	  602.00	  625.07	-1897.41	  391.33
     92.9700	  662.00	  642.16	-1854.50	  391.16
     93.0700	  626.00	  661.18	-1909.52	  390.99
     93.1700	  648.00	  681.82	-1908.16	  390.82
     93.2700	  718.00	  703.62	-1859.95	  390.65
     93.3700	  691.00	  725.95	-1909.28	  390.48
     93.4700	  664.00	  748.02	-1958.36	  390.31
     93.5700	  678.00	  768.99	-1965.33	  390.14
     93.6700	  736.00	  788.05	-1926.38	  389.97
     93.7700	  728.00	  804.64	-1950.97	  389.80
     93.8700	  817.00	  818.63	-1875.96	  389.63
     93.9700	  778.00	  830.32	-1926.65	  389.46
     94.0700	  804.00	  840.32	-1910.65	  389.29
     94.1700	  771.00	  849.32	-1952.65	  389.13
     94.2700	  840.00	  857.92	-1892.25	  388.96
     94.3700	  865.00	  866.23	-1875.57	  388.79
     94.4700	  844.00	  875.17	-1905.50	  388.62
     94.5700	  869.00	  884.66	-1889.99	  388.46
     94.6700	  895.00	  894.97	-1874.30	  388.29
     94.7700	  936.00	  906.37	-1844.70	  388.12
     94.8700	  862.00	  918.99	-1931.33	  387.96
     94.9700	  959.00	  932.66	-1848.00	  387.79
     95.0700	  885.00	  946.77	-1936.11	  387.62
     95.1700	  948.00	  960.26	-1886.59	  387.46
     95.2700	  986.00	  971.65	-1859.99	  387.29
     95.3700	  954.00	  979.26	-1899.59	  387.13
     95.4700	  995.00	  981.39	-1860.72	  386.96
     95.5700	  974.00	  976.78	-1877.12	  386.80
     95.6700	  984.00	  964.96	-1855.29	  386.64
     95.7700	  951.00	  946.36	-1869.70	  386.47
     95.8700	  871.00	  922.28	-1925.61	  386.31
     95.9700	  950.00	  894.54	-1818.87	  386.15
     96.0700	  863.00	  865.18	-1876.52	  385.99
     96.1700	  800.00	  836.30	-1910.63	  385.83
     96.2700	  840.00	  809.83	-1844.17	  385.67
     96.3700	  786.00	  787.57	-1875.91	  385.51
     96.4700	  774.00	  771.10	-1871.44	  385.35
     96.5700	  783.00	  761.78	-1853.11	  385.19
     96.6700	  730.00	  760.73	-1905.06	  385.03
     96.7700	  778.00	  768.84	-1865.18	  384.87
     96.8700	  806.00	  786.78	-1855.12	  384.71
     96.9700	  872.00	  814.96	-1817.30	  384.55
     97.0700	  846.00	  853.52	-1881.86	  384.40
     97.1700	  943.00	  902.27	-1833.60	  384.24
     97.2700	  983.00	  960.61	-1851.94	  384.09
     97.3700	 1067.00	 1027.50	-1834.84	  383.93
     97.4700	 1100.00	 1101.37	-1875.71	  383.78
     97.5700	 1205.00	 1180.09	-1849.42	  383.62
     97.6700	 1259.00	 1260.87	-1876.20	  383.47
     97.7700	 1368.00	 1340.31	-1846.64	  383.32
     97.8700	 1422.00	 1414.46	-1866.80	  383.17
     97.9700	 1422.00	 1478.92	-1931.26	  383.02
     98.0700	 1532.00	 1529.28	-1871.62	  382.87
     98.1700	 1519.00	 1561.69	-1917.02	  382.72
     98.2700	 1578.00	 1573.59	-1869.92	  382.57
     98.3700	 1520.00	 1564.38	-1918.71	  382.42
     98.4700	 1549.00	 1535.46	-1860.79	  382.27
     98.5700	 1482.00	 1489.83	-1882.16	  382.12
     98.6700	 1446.00	 1431.44	-1859.77	  381.98
     98.7700	 1320.00	 1364.58	-1918.91	  381.83
     98.8700	 1337.00	 1293.38	-1830.71	  381.69
     98.9700	 1208.00	 1221.66	-1888.00	  381.55
     99.0700	 1280.00	 1152.75	-1747.08	  381.40
     99.1700	 1210.00	 1089.50	-1753.84	  381.26
     99.2700	 1071.00	 1034.31	-1837.64	  381.12
     99.3700	  964.00	  989.09	-1899.42	  380.98
     99.4700	  975.00	  955.39	-1854.73	  380.84
     99.5700	  904.00	  934.38	-1904.71	  380.70
     99.6700	  924.00	  926.87	-1877.20	  380.56
     99.7700	  960.00	  933.40	-1847.74	  380.43
     99.8700	  950.00	  954.20	-1878.53	  380.29
     99.9700	 1018.00	  989.20	-1845.53	  380.15
    100.0700	 1043.00	 1038.04	-1869.37	  380.02
    100.1700	 1100.00	 1100.03	-1874.37	  379.89
    100.2700	 1204.00	 1174.11	-1844.45	  379.75
    100.3700	 1226.00	 1258.78	-1907.11	  379.62
    100.4700	 1391.00	 1352.03	-1835.36	  379.49
    100.5700	 1525.00	 1451.32	-1800.65	  379.36
    100.6700	 1538.00	 1553.58	-1889.91	  379.24
    100.7700	 1625.00	 1655.16	-1904.49	  379.11
    100.8700	 1707.00	 1752.30	-1919.63	  378.98
    100.9700	 1882.00	 1841.01	-1833.35	  378.86
    101.0700	 1882.00	 1917.83	-1910.17	  378.73
    101.1700	 1986.00	 1980.08	-1868.42	  378.61
    101.2700	 1981.00	 2025.96	-1919.29	  378.49
    101.3700	 2019.00	 2054.43	-1909.76	  378.37
    101.4700	 2099.00	 2064.96	-1840.29	  378.25
    101.5700	 2088.00	 2057.36	-1843.70	  378.13
    101.6700	 2011.00	 2031.94	-1895.27	  378.01
    101.7700	 1994.00	 1989.72	-1870.05	  377.90
    101.8700	 1927.00	 1932.81	-1880.14	  377.78
    101.9700	 1938.00	 1864.42	-1800.76	  377.67
    102.0700	 1866.00	 1788.50	-1796.84	  377.55
    102.1700	 1668.00	 1709.24	-1915.57	  377.44
    102.2700	 1715.00	 1630.54	-1789.88	  377.33
    102.3700	 1532.00	 1555.70	-1898.03	  377.22
    102.4700	 1514.00	 1487.16	-1847.50	  377.12
    102.5700	 1424.00	 1426.51	-1876.84	  377.01
    102.6700	 1445.00	 1374.46	-1803.80	  376.90
    102.7700	 1338.00	 1331.01	-1867.34	  376.80
    102.8700	 1270.00	 1295.41	-1899.74	  376.70
    102.9700	 1211.00	 1266.34	-1929.67	  376.60
    103.0700	 1184.00	 1241.97	-1932.30	  376.50
    103.1700	 1134.00	 1220.14	-1960.48	  376.40
    103.2700	 1225.00	 1198.65	-1847.98	  376.30
    103.3700	 1181.00	 1175.47	-1868.80	  376.21
    103.4700	 1141.00	 1149.08	-1882.42	  376.11
    103.5700	 1123.00	 1118.67	-1870.00	  376.02
    103.6700	 1079.00	 1084.15	-1879.48	  375.93
    103.7700	  991.00	 1046.06	-1929.40	  375.84
    103.8700	  998.00	 1005.33	-1881.67	  375.75
    103.9700	  959.00	  963.07	-1878.40	  375.66
    104.0700	  940.00	  920.39	-1854.72	  375.58
    104.1700	  936.00	  878.33	-1816.67	  375.49
    104.2700	  905.00	  837.81	-1807.14	  375.41
    104.3700	  796.00	  799.56	-1877.89	  375.33
    104.4700	  779.00	  764.15	-1859.49	  375.25
    104.5700	  724.00	  732.00	-1882.33	  375.17
    104.6700	  708.00	  703.34	-1869.67	  375.10
    104.7700	  692.00	  678.23	-1860.56	  375.02
    104.8700	  696.00	  656.62	-1834.95	  374.95
    104.9700	  654.00	  638.34	-1858.68	  374.88
    105.0700	  623.00	  623.15	-1874.48	  374.81
    105.1700	  676.00	  610.74	-1809.08	  374.74
    105.2700	  633.00	  600.75	-1842.09	  374.67
    105.3700	  649.00	  592.95	-1818.28	  374.61
    105.4700	  628.00	  586.99	-1833.33	  374.55
    105.5700	  612.00	  582.62	-1844.95	  374.49
    105.6700	  578.00	  579.60	-1875.93	  374.43
    105.7700	  626.00	  577.75	-1826.09	  374.37
    105.8700	  603.00	  576.96	-1848.29	  374.31
    105.9700	  579.00	  577.09	-1872.43	  374.26
    106.0700	  595.00	  578.19	-1857.52	  374.21
    106.1700	  574.00	  580.20	-1880.53	  374.16
    106.2700	  545.00	  583.15	-1912.48	  374.11
    106.3700	  591.00	  587.08	-1870.42	  374.06
    106.4700	  614.00	  592.07	-1852.40	  374.02
    106.5700	  581.00	  598.19	-1891.52	  373.98
    106.6700	  658.00	  605.49	-1821.82	  373.94
    106.7700	  591.00	  614.02	-1897.35	  373.90
    106.8700	  638.00	  623.78	-1860.12	  373.86
    106.9700	  635.00	  634.76	-1874.09	  373.83
    107.0700	  626.00	  646.84	-1895.18	  373.79
    107.1700	  648.00	  659.89	-1886.22	  373.76
    107.2700	  643.00	  673.68	-1905.02	  373.73
    107.3700	  687.00	  687.95	-1875.28	  373.71
    107.4700	  699.00	  702.33	-1877.67	  373.68
    107.5700	  707.00	  716.45	-1883.78	  373.66
    107.6700	  716.00	  729.84	-1888.17	  373.64
    107.7700	  722.00	  742.05	-1894.38	  373.62
    107.8700	  763.00	  752.63	-1863.96	  373.61
    107.9700	  742.00	  761.18	-1893.52	  373.59
    108.0700	  721.00	  767.44	-1920.78	  373.58
    108.1700	  743.00	  771.39	-1902.72	  373.57
    108.2700	  736.00	  773.12	-1911.45	  373.56
    108.3700	  750.00	  772.96	-1897.29	  373.56
    108.4700	  769.00	  771.36	-1876.69	  373.55
    108.5700	  705.00	  768.81	-1938.15	  373.55
    108.6700	  796.00	  765.82	-1844.16	  373.56
    108.7700	  714.00	  762.83	-1923.16	  373.56
    108.8700	  729.00	  760.17	-1905.51	  373.57
    108.9700	  755.00	  758.10	-1877.43	  373.57
    109.0700	  720.00	  756.73	-1911.07	  373.58
    109.1700	  702.00	  756.07	-1928.41	  373.60
    109.2700	  779.00	  756.01	-1851.35	  373.61
    109.3700	  758.00	  756.32	-1872.65	  373.63
    109.4700	  766.00	  756.66	-1865.00	  373.65
    109.5700	  718.00	  756.66	-1912.99	  373.68
    109.6700	  728.00	  755.88	-1902.21	  373.70
    109.7700	  743.00	  753.93	-1885.26	  373.73
    109.8700	  671.00	  750.49	-1953.82	  373.76
    109.9700	  712.00	  745.38	-1907.71	  373.79
    110.0700	  715.00	  738.56	-1897.89	  373.83
    110.1700	  723.00	  730.16	-1881.49	  373.87
    110.2700	  652.00	  720.40	-1942.74	  373.91
    110.3700	  764.00	  709.62	-1819.96	  373.95
    110.4700	  677.00	  698.15	-1895.48	  374.00
    110.5700	  647.00	  686.31	-1913.64	  374.04
    110.6700	  656.00	  674.43	-1892.77	  374.10
    110.7700	  690.00	  662.80	-1847.14	  374.15
    110.8700	  685.00	  651.65	-1840.99	  374.21
    110.9700	  687.00	  641.19	-1828.53	  374.26
    111.0700	  622.00	  631.58	-1883.91	  374.33
    111.1700	  607.00	  622.92	-1890.25	  374.39
    111.2700	  595.00	  615.31	-1894.64	  374.46
    111.3700	  641.00	  608.76	-1842.10	  374.53
    111.4700	  635.00	  603.30	-1842.63	  374.60
    111.5700	  604.00	  598.88	-1869.22	  374.68
    111.6700	  594.00	  595.47	-1875.80	  374.76
    111.7700	  591.00	  592.98	-1876.32	  374.84
    111.8700	  584.00	  591.34	-1881.68	  374.92
    111.9700	  563.00	  590.46	-1901.79	  375.01
    112.0700	  602.00	  590.23	-1862.56	  375.10
    112.1700	  605.00	  590.56	-1859.90	  375.19
    112.2700	  601.00	  591.37	-1864.70	  375.29
    112.3700	  584.00	  592.55	-1882.89	  375.39
    112.4700	  582.00	  594.04	-1886.38	  375.49
    112.5700	  624.00	  595.77	-1846.10	  375.60
    112.6700	  574.00	  597.67	-1898.00	  375.71
    112.7700	  621.00	  599.70	-1853.03	  375.82
    112.8700	  610.00	  601.84	-1866.18	  375.93
    112.9700	  607.00	  604.09	-1871.42	  376.05
    113.0700	  549.00	  606.45	-1931.78	  376.17
    113.1700	  626.00	  608.94	-1857.27	  376.30
    113.2700	  597.00	  611.61	-1888.95	  376.42
    113.3700	  546.00	  614.52	-1942.85	  376.55
    113.4700	  605.00	  617.71	-1887.04	  376.69
    113.5700	  625.00	  621.28	-1870.61	  376.82
    113.6700	  578.00	  625.31	-1921.64	  376.96
    113.7700	  578.00	  629.92	-1926.25	  377.11
    113.8700	  619.00	  635.24	-1890.57	  377.25
    113.9700	  663.00	  641.48	-1852.81	  377.41
    114.0700	  616.00	  648.85	-1907.18	  377.56
    114.1700	  594.00	  657.66	-1937.99	  377.72
    114.2700	  639.00	  668.27	-1903.61	  377.88
    114.3700	  637.00	  681.18	-1918.51	  378.04
    114.4700	  694.00	  696.97	-1877.30	  378.21
    114.5700	  717.00	  716.40	-1873.73	  378.38
    114.6700	  765.00	  740.39	-1849.73	  378.55
    114.7700	  788.00	  770.07	-1856.40	  378.73
    114.8700	  868.00	  806.76	-1813.09	  378.91
    114.9700	  879.00	  852.01	-1847.35	  379.09
    115.0700	  893.00	  907.65	-1888.98	  379.28
    115.1700	 1008.00	  975.70	-1842.03	  379.47
    115.2700	 1108.00	 1058.41	-1824.74	  379.67
    115.3700	 1240.00	 1158.18	-1792.51	  379.87
    115.4700	 1366.00	 1277.51	-1785.84	  380.07
    115.5700	 1561.00	 1418.94	-1732.27	  380.28
    115.6700	 1764.00	 1584.93	-1695.26	  380.49
    115.7700	 1904.00	 1777.68	-1748.01	  380.70
    115.8700	 2105.00	 1999.01	-1768.34	  380.92
    115.9700	 2316.00	 2250.18	-1808.51	  381.14
    116.0700	 2643.00	 2531.79	-1763.12	  381.37
    116.1700	 3069.00	 2843.58	-1648.92	  381.60
    116.2700	 3328.00	 3184.18	-1730.52	  381.83
    116.3700	 3819.00	 3551.09	-1606.42	  382.07
    116.4700	 4030.00	 3940.50	-1784.83	  382.31
    116.5700	 4376.00	 4347.38	-1845.71	  382.55
    116.6700	 4665.00	 4765.48	-1974.82	  382.80
    116.7700	 5183.00	 5187.08	-1878.42	  383.05
    116.8700	 5415.00	 5603.33	-2062.67	  383.31
    116.9700	 5910.00	 6004.30	-1968.63	  383.57
    117.0700	 6346.00	 6379.32	-1907.66	  383.83
    117.1700	 6638.00	 6717.26	-1953.59	  384.10
    117.2700	 6749.00	 7006.81	-2132.15	  384.37
    117.3700	 7076.00	 7237.44	-2035.77	  384.65
    117.4700	 7245.00	 7400.01	-2029.34	  384.93
    117.5700	 7249.00	 7487.84	-2113.18	  385.22
    117.6700	 7348.00	 7497.33	-2023.67	  385.51
    117.7700	 7356.00	 7428.45	-1946.79	  385.80
    117.8700	 7137.00	 7284.76	-2022.09	  386.10
    117.9700	 6872.00	 7072.97	-2075.31	  386.40
    118.0700	 6508.00	 6802.08	-2168.41	  386.71
    118.1700	 6168.00	 6482.45	-2188.79	  387.02
    118.2700	 5992.00	 6125.21	-2007.55	  387.33
    118.3700	 5631.00	 5741.38	-1984.72	  387.65
    118.4700	 5390.00	 5341.54	-1825.88	  387.97
    118.5700	 4917.00	 4935.27	-1892.61	  388.30
    118.6700	 4818.00	 4531.13	-1587.46	  388.63
    118.7700	 4199.00	 4136.56	-1811.90	  388.97
    118.8700	 4004.00	 3757.69	-1628.02	  389.31
    118.9700	 3598.00	 3399.38	-1675.71	  389.66
    119.0700	 3288.00	 3065.13	-1651.46	  390.01
    119.1700	 2856.00	 2757.24	-1775.58	  390.36
    119.2700	 2647.00	 2477.06	-1704.40	  390.72
    119.3700	 2428.00	 2224.93	-1671.27	  391.08
    119.4700	 2061.00	 2000.44	-1813.77	  391.45
    119.5700	 1945.00	 1802.45	-1731.79	  391.83
    119.6700	 1708.00	 1629.39	-1795.73	  392.20
    119.7700	 1586.00	 1479.38	-1767.72	  392.59
    119.8700	 1468.00	 1350.31	-1756.64	  392.97
    119.9700	 1445.00	 1239.96	-1669.29	  393.36
    120.0700	 1239.00	 1146.10	-1781.44	  393.76
    120.1700	 1095.00	 1066.61	-1845.94	  394.16
    120.2700	 1038.00	  999.49	-1835.82	  394.57
    120.3700	  983.00	  942.93	-1834.26	  394.98
    120.4700	  986.00	  895.31	-1783.64	  395.40
    120.5700	  912.00	  855.22	-1817.55	  395.82
    120.6700	  912.00	  821.45	-1783.78	  396.24
    120.7700	  821.00	  792.97	-1846.30	  396.67
    120.8700	  765.00	  768.93	-1878.26	  397.11
    120.9700	  751.00	  748.63	-1871.96	  397.55
    121.0700	  746.00	  731.50	-1859.83	  398.00
    121.1700	  706.00	  717.06	-1885.40	  398.45
    121.2700	  721.00	  704.95	-1858.28	  398.90
    121.3700	  664.00	  694.85	-1905.19	  399.36
    121.4700	  683.00	  686.53	-1877.86	  399.83
    121.5700	  686.00	  679.78	-1868.11	  400.30
    121.6700	  637.00	  674.45	-1911.78	  400.78
    121.7700	  672.00	  670.40	-1872.73	  401.26
    121.8700	  655.00	  667.52	-1886.86	  401.74
    121.9700	  671.00	  665.74	-1869.07	  402.24
    122.0700	  656.00	  664.97	-1883.30	  402.73
    122.1700	  631.00	  665.13	-1908.46	  403.24
    122.2700	  669.00	  666.17	-1871.51	  403.74
    122.3700	  667.00	  668.04	-1875.37	  404.26
    122.4700	  657.00	  670.65	-1887.99	  404.78
    122.5700	  636.00	  673.96	-1912.30	  405.30
    122.6700	  685.00	  677.90	-1867.23	  405.83
    122.7700	  680.00	  682.39	-1876.72	  406.37
    122.8700	  698.00	  687.35	-1863.68	  406.91
    122.9700	  729.00	  692.70	-1838.03	  407.45
    123.0700	  671.00	  698.34	-1901.68	  408.00
    123.1700	  666.00	  704.18	-1912.51	  408.56
    123.2700	  692.00	  710.09	-1892.43	  409.12
    123.3700	  701.00	  715.98	-1889.32	  409.69
    123.4700	  723.00	  721.73	-1873.06	  410.27
    123.5700	  725.00	  727.21	-1876.54	  410.85
    123.6700	  760.00	  732.32	-1846.66	  411.43
    123.7700	  682.00	  736.96	-1929.30	  412.02
    123.8700	  716.00	  741.06	-1899.39	  412.62
    123.9700	  752.00	  744.55	-1866.88	  413.22
    124.0700	  742.00	  747.40	-1879.74	  413.83
    124.1700	  676.00	  749.63	-1947.96	  414.45
    124.2700	  739.00	  751.25	-1886.58	  415.07
    124.3700	  683.00	  752.27	-1943.61	  415.69
    124.4700	  751.00	  752.83	-1876.16	  416.33
    124.5700	  708.00	  752.95	-1919.29	  416.97
    124.6700	  713.00	  752.71	-1914.04	  417.61
    124.7700	  716.00	  752.16	-1910.50	  418.26
    124.8700	  732.00	  751.38	-1893.71	  418.92
    124.9700	  707.00	  544.10	-1711.43	  419.58
    125.0700	  695.00	  544.77	-1874.33	  420.25
    125.1700	  676.00	  545.44	-1874.33	  420.92
    125.2700	  746.00	  546.12	-1874.33	  421.60
    125.3700	  681.00	  546.81	-1874.33	  422.29
    125.4700	  697.00	  547.50	-1874.33	  422.98
    125.5700	  735.00	  548.20	-1874.33	  423.68
    125.6700	  677.00	  548.91	-1874.33	  424.39
    125.7700	  733.00	  549.62	-1874.33	  425.10
    125.8700	  674.00	  550.34	-1874.33	  425.82
    125.9700	  680.00	  551.06	-1874.33	  426.55
    126.0700	  713.00	  551.80	-1874.33	  427.28
    126.1700	  702.00	  552.53	-1874.33	  428.02
    126.2700	  664.00	  553.28	-1874.33	  428.76
    126.3700	  679.00	  554.03	-1874.33	  429.51
    126.4700	  671.00	  554.79	-1874.33	  430.27
    126.5700	  630.00	  555.55	-1874.33	  431.03
    126.6700	  653.00	  556.32	-1874.33	  431.80
    126.7700	  645.00	  557.10	-1874.33	  432.58
    126.8700	  646.00	  557.88	-1874.33	  433.36
    126.9700	  631.00	  558.67	-1874.33	  434.15
    127.0700	  607.00	  559.47	-1874.33	  434.95
    127.1700	  647.00	  560.27	-1874.33	  435.76
    127.2700	  626.00	  561.08	-1874.33	  436.57
    127.3700	  583.00	  561.90	-1874.33	  437.38
    127.4700	  565.00	  562.73	-1874.33	  438.21
    127.5700	  606.00	  563.56	-1874.33	  439.04
    127.6700	  596.00	  564.39	-1874.33	  439.88
    127.7700	  618.00	  565.24	-1874.33	  440.72
    127.8700	  521.00	  566.09	-1874.33	  441.57
    127.9700	  611.00	  566.95	-1874.33	  442.43
    128.0700	  625.00	  567.82	-1874.33	  443.30
    128.1700	  643.00	  568.69	-1874.33	  444.17
    128.2700	  644.00	  569.57	-1874.33	  445.05
    128.3700	  647.00	  570.46	-1874.33	  445.94
    128.4700	  658.00	  571.35	-1874.33	  446.83
    128.5700	    0.00	  572.25	-1874.33	  447.74
    128.6700	    0.00	  573.16	-1874.33	  448.64
     12.4045	        	        	        	        	       0	(  0  0  2)	  0  1
     12.4045	        	        	        	        	    -468	(  0  0  2)	  0  1
     25.0534	        	        	        	        	       0	(  0  0  4)	  0  1
     25.0534	        	        	        	        	    -468	(  0  0  4)	  0  1
     28.5107	        	        	        	        	       0	(  1  0  0)	  0  1
     28.5107	        	        	        	        	    -468	(  1  0  0)	  0  1
     29.2117	        	        	        	        	       0	(  1  0  1)	  0  1
     29.2117	        	        	        	        	    -468	(  1  0  1)	  0  1
     31.2290	        	        	        	        	       0	(  1  0  2)	  0  1
     31.2290	        	        	        	        	    -468	(  1  0  2)	  0  1
     34.3547	        	        	        	        	       0	(  1  0  3)	  0  1
     34.3547	        	        	        	        	    -468	(  1  0  3)	  0  1
     38.0234	        	        	        	        	       0	(  0  0  6)	  0  1
     38.0234	        	        	        	        	    -468	(  0  0  6)	  0  1
     38.3544	        	        	        	        	       0	(  1  0  4)	  0  1
     38.3544	        	        	        	        	    -468	(  1  0  4)	  0  1
     43.0315	        	        	        	        	       0	(  1  0  5)	  0  1
     43.0315	        	        	        	        	    -468	(  1  0  5)	  0  1
     48.2467	        	        	        	        	       0	(  1  0  6)	  0  1
     48.2467	        	        	        	        	    -468	(  1  0  6)	  0  1
     50.5713	        	        	        	        	       0	(  1  1  0)	  0  1
     50.5713	        	        	        	        	    -468	(  1  1  0)	  0  1
     51.5247	        	        	        	        	       0	(  0  0  8)	  0  1
     51.5247	        	        	        	        	    -468	(  0  0  8)	  0  1
     52.3052	        	        	        	        	       0	(  1  1  2)	  0  1
     52.3052	        	        	        	        	    -468	(  1  1  2)	  0  1
     53.9123	        	        	        	        	       0	(  1  0  7)	  0  1
     53.9123	        	        	        	        	    -468	(  1  0  7)	  0  1
     57.2853	        	        	        	        	       0	(  1  1  4)	  0  1
     57.2853	        	        	        	        	    -468	(  1  1  4)	  0  1
     59.1220	        	        	        	        	       0	(  2  0  0)	  0  1
     59.1220	        	        	        	        	    -468	(  2  0  0)	  0  1
     59.5162	        	        	        	        	       0	(  2  0  1)	  0  1
     59.5162	        	        	        	        	    -468	(  2  0  1)	  0  1
     59.9823	        	        	        	        	       0	(  1  0  8)	  0  1
     59.9823	        	        	        	        	    -468	(  1  0  8)	  0  1
     60.6896	        	        	        	        	       0	(  2  0  2)	  0  1
     60.6896	        	        	        	        	    -468	(  2  0  2)	  0  1
     62.6161	        	        	        	        	       0	(  2  0  3)	  0  1
     62.6161	        	        	        	        	    -468	(  2  0  3)	  0  1
     65.0330	        	        	        	        	       0	(  1  1  6)	  0  1
     65.0330	        	        	        	        	    -468	(  1  1  6)	  0  1
     65.2588	        	        	        	        	       0	(  2  0  4)	  0  1
     65.2588	        	        	        	        	    -468	(  2  0  4)	  0  1
     65.8486	        	        	        	        	       0	(  0  0 10)	  0  1
     65.8486	        	        	        	        	    -468	(  0  0 10)	  0  1
     66.4434	        	        	        	        	       0	(  1  0  9)	  0  1
     66.4434	        	        	        	        	    -468	(  1  0  9)	  0  1
     68.5772	        	        	        	        	       0	(  2  0  5)	  0  1
     68.5772	        	        	        	        	    -468	(  2  0  5)	  0  1
     72.5346	        	        	        	        	       0	(  2  0  6)	  0  1
     72.5346	        	        	        	        	    -468	(  2  0  6)	  0  1
     73.3108	        	        	        	        	       0	(  1  0 10)	  0  1
     73.3108	        	        	        	        	    -468	(  1  0 10)	  0  1
     75.1469	        	        	        	        	       0	(  1  1  8)	  0  1
     75.1469	        	        	        	        	    -468	(  1  1  8)	  0  1
     77.1053	        	        	        	        	       0	(  2  0  7)	  0  1
     77.1053	        	        	        	        	    -468	(  2  0  7)	  0  1
     80.6284	        	        	        	        	       0	(  1  0 11)	  0  1
     80.6284	        	        	        	        	    -468	(  1  0 11)	  0  1
     81.4513	        	        	        	        	       0	(  0  0 12)	  0  1
     81.4513	        	        	        	        	    -468	(  0  0 12)	  0  1
     81.5300	        	        	        	        	       0	(  2  1  0)	  0  1
     81.5300	        	        	        	        	    -468	(  2  1  0)	  0  1
     81.8729	        	        	        	        	       0	(  2  1  1)	  0  1
     81.8729	        	        	        	        	    -468	(  2  1  1)	  0  1
     82.2797	        	        	        	        	       0	(  2  0  8)	  0  1
     82.2797	        	        	        	        	    -468	(  2  0  8)	  0  1
     82.8999	        	        	        	        	       0	(  2  1  2)	  0  1
     82.8999	        	        	        	        	    -468	(  2  1  2)	  0  1
     84.6067	        	        	        	        	       0	(  2  1  3)	  0  1
     84.6067	        	        	        	        	    -468	(  2  1  3)	  0  1
     86.9886	        	        	        	        	       0	(  2  1  4)	  0  1
     86.9886	        	        	        	        	    -468	(  2  1  4)	  0  1
     87.5265	        	        	        	        	       0	(  1  1 10)	  0  1
     87.5265	        	        	        	        	    -468	(  1  1 10)	  0  1
     88.0713	        	        	        	        	       0	(  2  0  9)	  0  1
     88.0713	        	        	        	        	    -468	(  2  0  9)	  0  1
     88.4744	        	        	        	        	       0	(  1  0 12)	  0  1
     88.4744	        	        	        	        	    -468	(  1  0 12)	  0  1
     90.0443	        	        	        	        	       0	(  2  1  5)	  0  1
     90.0443	        	        	        	        	    -468	(  2  1  5)	  0  1
     93.7804	        	        	        	        	       0	(  2  1  6)	  0  1
     93.7804	        	        	        	        	    -468	(  2  1  6)	  0  1
     94.5247	        	        	        	        	       0	(  2  0 10)	  0  1
     94.5247	        	        	        	        	    -468	(  2  0 10)	  0  1
     95.5542	        	        	        	        	       0	(  3  0  0)	  0  1
     95.5542	        	        	        	        	    -468	(  3  0  0)	  0  1
     95.8953	        	        	        	        	       0	(  3  0  1)	  0  1
     95.8953	        	        	        	        	    -468	(  3  0  1)	  0  1
     96.9200	        	        	        	        	       0	(  3  0  2)	  0  1
     96.9200	        	        	        	        	    -468	(  3  0  2)	  0  1
     96.9769	        	        	        	        	       0	(  1  0 13)	  0  1
     96.9769	        	        	        	        	    -468	(  1  0 13)	  0  1
     98.2184	        	        	        	        	       0	(  2  1  7)	  0  1
     98.2184	        	        	        	        	    -468	(  2  1  7)	  0  1
     98.6331	        	        	        	        	       0	(  3  0  3)	  0  1
     98.6331	        	        	        	        	    -468	(  3  0  3)	  0  1
     99.1698	        	        	        	        	       0	(  0  0 14)	  0  1
     99.1698	        	        	        	        	    -468	(  0  0 14)	  0  1
    101.0451	        	        	        	        	       0	(  3  0  4)	  0  1
    101.0451	        	        	        	        	    -468	(  3  0  4)	  0  1
    101.7304	        	        	        	        	       0	(  2  0 11)	  0  1
    101.7304	        	        	        	        	    -468	(  2  0 11)	  0  1
    102.5624	        	        	        	        	       0	(  1  1 12)	  0  1
    102.5624	        	        	        	        	    -468	(  1  1 12)	  0  1
    103.4044	        	        	        	        	       0	(  2  1  8)	  0  1
    103.4044	        	        	        	        	    -468	(  2  1  8)	  0  1
    104.1765	        	        	        	        	       0	(  3  0  5)	  0  1
    104.1765	        	        	        	        	    -468	(  3  0  5)	  0  1
    106.3468	        	        	        	        	       0	(  1  0 14)	  0  1
    106.3468	        	        	        	        	    -468	(  1  0 14)	  0  1
    108.0650	        	        	        	        	       0	(  3  0  6)	  0  1
    108.0650	        	        	        	        	    -468	(  3  0  6)	  0  1
    109.4246	        	        	        	        	       0	(  2  1  9)	  0  1
    109.4246	        	        	        	        	    -468	(  2  1  9)	  0  1
    109.8527	        	        	        	        	       0	(  2  0 12)	  0  1
    109.8527	        	        	        	        	    -468	(  2  0 12)	  0  1
    112.7769	        	        	        	        	       0	(  3  0  7)	  0  1
    112.7769	        	        	        	        	    -468	(  3  0  7)	  0  1
    116.4352	        	        	        	        	       0	(  2  1 10)	  0  1
    116.4352	        	        	        	        	    -468	(  2  1 10)	  0  1
    116.9578	        	        	        	        	       0	(  1  0 15)	  0  1
    116.9578	        	        	        	        	    -468	(  1  0 15)	  0  1
    117.5870	        	        	        	        	       0	(  2  2  0)	  0  1
    117.5870	        	        	        	        	    -468	(  2  2  0)	  0  1
    118.4285	        	        	        	        	       0	(  3  0  8)	  0  1
    118.4285	        	        	        	        	    -468	(  3  0  8)	  0  1
    119.1310	        	        	        	        	       0	(  2  2  2)	  0  1
    119.1310	        	        	        	        	    -468	(  2  2  2)	  0  1
    119.1957	        	        	        	        	       0	(  2  0 13)	  0  1
    119.1957	        	        	        	        	    -468	(  2  0 13)	  0  1
    120.9952	        	        	        	        	       0	(  0  0 16)	  0  1
    120.9952	        	        	        	        	    -468	(  0  0 16)	  0  1
    121.7163	        	        	        	        	       0	(  1  1 14)	  0  1
    121.7163	        	        	        	        	    -468	(  1  1 14)	  0  1
    123.9147	        	        	        	        	       0	(  2  2  4)	  0  1
    123.9147	        	        	        	        	    -468	(  2  2  4)	  0  1
    124.7288	        	        	        	        	       0	(  2  1 11)	  0  1
    124.7288	        	        	        	        	    -468	(  2  1 11)	  0  1
    125.2299	        	        	        	        	       0	(  3  0  9)	  0  1
    125.2299	        	        	        	        	    -468	(  3  0  9)	  0  1
    125.8214	        	        	        	        	       0	(  3  1  0)	  0  1
    125.8214	        	        	        	        	    -468	(  3  1  0)	  0  1
    126.2416	        	        	        	        	       0	(  3  1  1)	  0  1
    126.2416	        	        	        	        	    -468	(  3  1  1)	  0  1
    127.5160	        	        	        	        	       0	(  3  1  2)	  0  1
    127.5160	        	        	        	        	    -468	(  3  1  2)	  0  1
    129.5797	        	        	        	        	       0	(  1  0 16)	  0  1
    129.5797	        	        	        	        	    -468	(  1  0 16)	  0  1
    129.6902	        	        	        	        	       0	(  3  1  3)	  0  1
    129.6902	        	        	        	        	    -468	(  3  1  3)	  0  1
    130.3836	        	        	        	        	       0	(  2  0 14)	  0  1
    130.3836	        	        	        	        	    -468	(  2  0 14)	  0  1
    132.5765	        	        	        	        	       0	(  2  2  6)	  0  1
    132.5765	        	        	        	        	    -468	(  2  2  6)	  0  1
    132.8560	        	        	        	        	       0	(  3  1  4)	  0  1
    132.8560	        	        	        	        	    -468	(  3  1  4)	  0  1
    133.5945	        	        	        	        	       0	(  3  0 10)	  0  1
    133.5945	        	        	        	        	    -468	(  3  0 10)	  0  1
    134.9194	        	        	        	        	       0	(  2  1 12)	  0  1
    134.9194	        	        	        	        	    -468	(  2  1 12)	  0  1
    137.1852	        	        	        	        	       0	(  3  1  5)	  0  1
    137.1852	        	        	        	        	    -468	(  3  1  5)	  0  1
    143.0191	        	        	        	        	       0	(  3  1  6)	  0  1
    143.0191	        	        	        	        	    -468	(  3  1  6)	  0  1
    144.5054	        	        	        	        	       0	(  3  0 11)	  0  1
    144.5054	        	        	        	        	    -468	(  3  0 11)	  0  1
    145.0830	        	        	        	        	       0	(  2  0 15)	  0  1
    145.0830	        	        	        	        	    -468	(  2  0 15)	  0  1
    146.4049	        	        	        	        	       0	(  1  0 17)	  0  1
    146.4049	        	        	        	        	    -468	(  1  0 17)	  0  1
    147.4311	        	        	        	        	       0	(  2  2  8)	  0  1
    147.4311	        	        	        	        	    -468	(  2  2  8)	  0  1
    148.7042	        	        	        	        	       0	(  2  1 13)	  0  1
    148.7042	        	        	        	        	    -468	(  2  1 13)	  0  1
    151.1672	        	        	        	        	       0	(  3  1  7)	  0  1
    151.1672	        	        	        	        	    -468	(  3  1  7)	  0  1
    151.8507	        	        	        	        	       0	(  1  1 16)	  0  1
    151.8507	        	        	        	        	    -468	(  1  1 16)	  0  1
    156.7069	        	        	        	        	       0	(  0  0 18)	  0  1
    156.7069	        	        	        	        	    -468	(  0  0 18)	  0  1
    161.9604	        	        	        	        	       0	(  3  0 12)	  0  1
    161.9604	        	        	        	        	    -468	(  3  0 12)	  0  1
    162.2149	        	        	        	        	       0	(  4  0  0)	  0  1
    162.2149	        	        	        	        	    -468	(  4  0  0)	  0  1
    163.3681	        	        	        	        	       0	(  4  0  1)	  0  1
    163.3681	        	        	        	        	    -468	(  4  0  1)	  0  1
    164.8481	        	        	        	        	       0	(  3  1  8)	  0  1
    164.8481	        	        	        	        	    -468	(  3  1  8)	  0  1
    167.4335	        	        	        	        	       0	(  4  0  2)	  0  1
    167.4335	        	        	        	        	    -468	(  4  0  2)	  0  1
