MSG Master    CELL:    5.88689   5.88689  23.13487   90.0000   90.0000  120.0000   SPGR: P 63/m m c             TEMP:    619.75
  2   1280     2.52000     0.00000    -0.09869     0.00000     0.00000    0
    96    96     0     0     2
       0.00000      10.00000
     125.00000     130.00000
 2Theta	Yobs	Ycal	Yobs-Ycal	Backg	Posr	(hkl)	K
      0.7700	    0.00	  790.75	-1909.43	  663.45
      0.8700	    0.00	  789.40	-1909.43	  662.10
      0.9700	   40.00	  788.06	-1909.43	  660.75
      1.0700	   46.00	  786.72	-1909.43	  659.41
      1.1700	   35.00	  785.38	-1909.43	  658.08
      1.2700	   51.00	  784.05	-1909.43	  656.75
      1.3700	   43.00	  782.73	-1909.43	  655.42
      1.4700	  101.00	  781.41	-1909.43	  654.10
      1.5700	  302.00	  780.09	-1909.43	  652.78
      1.6700	  422.00	  778.78	-1909.43	  651.47
      1.7700	  541.00	  777.47	-1909.43	  650.16
      1.8700	  656.00	  776.17	-1909.43	  648.86
      1.9700	  655.00	  774.87	-1909.43	  647.56
      2.0700	  756.00	  773.57	-1909.43	  646.27
      2.1700	  771.00	  772.28	-1909.43	  644.98
      2.2700	  760.00	  771.00	-1909.43	  643.70
      2.3700	  750.00	  769.72	-1909.43	  642.42
      2.4700	  754.00	  768.44	-1909.43	  641.14
      2.5700	  684.00	  767.17	-1909.43	  639.87
      2.6700	  675.00	  765.91	-1909.43	  638.60
      2.7700	  705.00	  764.64	-1909.43	  637.34
      2.8700	  636.00	  763.39	-1909.43	  636.08
      2.9700	  632.00	  762.13	-1909.43	  634.83
      3.0700	  600.00	  760.89	-1909.43	  633.58
      3.1700	  602.00	  759.64	-1909.43	  632.34
      3.2700	  745.00	  758.40	-1909.43	  631.10
      3.3700	  907.00	  757.17	-1909.43	  629.86
      3.4700	 1021.00	  755.94	-1909.43	  628.63
      3.5700	 1167.00	  754.71	-1909.43	  627.41
      3.6700	 1335.00	  753.49	-1909.43	  626.19
      3.7700	 1378.00	  752.27	-1909.43	  624.97
      3.8700	 1486.00	  751.06	-1909.43	  623.76
      3.9700	 1610.00	  749.85	-1909.43	  622.55
      4.0700	 1642.00	  748.65	-1909.43	  621.35
      4.1700	 1701.00	  747.45	-1909.43	  620.15
      4.2700	 1644.00	  746.26	-1909.43	  618.95
      4.3700	 1640.00	  745.07	-1909.43	  617.76
      4.4700	 1584.00	  743.88	-1909.43	  616.58
      4.5700	 1518.00	  742.70	-1909.43	  615.40
      4.6700	 1517.00	  741.53	-1909.43	  614.22
      4.7700	 1376.00	  740.35	-1909.43	  613.05
      4.8700	 1404.00	  739.19	-1909.43	  611.88
      4.9700	 1338.00	  738.02	-1909.43	  610.72
      5.0700	 1365.00	  736.87	-1909.43	  609.56
      5.1700	 1250.00	  735.71	-1909.43	  608.41
      5.2700	 1206.00	  734.56	-1909.43	  607.26
      5.3700	 1210.00	  733.42	-1909.43	  606.11
      5.4700	 1129.00	  732.28	-1909.43	  604.97
      5.5700	 1128.00	  731.14	-1909.43	  603.84
      5.6700	 1100.00	  730.01	-1909.43	  602.71
      5.7700	 1058.00	  728.88	-1909.43	  601.58
      5.8700	 1040.00	  727.76	-1909.43	  600.46
      5.9700	 1036.00	  726.64	-1909.43	  599.34
      6.0700	 1069.00	  725.53	-1909.43	  598.22
      6.1700	  940.00	  724.42	-1909.43	  597.12
      6.2700	  996.00	  723.31	-1909.43	  596.01
      6.3700	  995.00	  722.21	-1909.43	  594.91
      6.4700	  967.00	  721.12	-1909.43	  593.81
      6.5700	  976.00	  720.03	-1909.43	  592.72
      6.6700	  968.00	  718.94	-1909.43	  591.63
      6.7700	  890.00	  717.86	-1909.43	  590.55
      6.8700	  874.00	  716.78	-1909.43	  589.47
      6.9700	  872.00	  715.70	-1909.43	  588.40
      7.0700	  896.00	  714.63	-1909.43	  587.33
      7.1700	  829.00	  713.57	-1909.43	  586.26
      7.2700	  851.00	  712.51	-1909.43	  585.20
      7.3700	  835.00	  711.45	-1909.43	  584.15
      7.4700	  836.00	  710.40	-1909.43	  583.09
      7.5700	  761.00	  709.35	-1909.43	  582.05
      7.6700	  777.00	  708.31	-1909.43	  581.00
      7.7700	  811.00	  707.27	-1909.43	  579.96
      7.8700	  815.00	  706.23	-1909.43	  578.93
      7.9700	  837.00	  705.20	-1909.43	  577.90
      8.0700	  748.00	  704.17	-1909.43	  576.87
      8.1700	  773.00	  703.15	-1909.43	  575.85
      8.2700	  760.00	  702.14	-1909.43	  574.83
      8.3700	  807.00	  701.12	-1909.43	  573.82
      8.4700	  740.00	  700.11	-1909.43	  572.81
      8.5700	  751.00	  699.11	-1909.43	  571.80
      8.6700	  765.00	  698.11	-1909.43	  570.80
      8.7700	  799.00	  697.11	-1909.43	  569.81
      8.8700	  781.00	  696.12	-1909.43	  568.82
      8.9700	  677.00	  695.13	-1909.43	  567.83
      9.0700	  736.00	  694.15	-1909.43	  566.84
      9.1700	  741.00	  693.17	-1909.43	  565.87
      9.2700	  741.00	  692.19	-1909.43	  564.89
      9.3700	  746.00	  691.22	-1909.43	  563.92
      9.4700	  677.00	  690.26	-1909.43	  562.95
      9.5700	  691.00	  689.30	-1909.43	  561.99
      9.6700	  701.00	  688.34	-1909.43	  561.03
      9.7700	  724.00	  687.38	-1909.43	  560.08
      9.8700	  725.00	  686.43	-1909.43	  559.13
      9.9700	  714.00	  685.49	-1909.43	  558.19
     10.0700	  733.00	  686.72	-1863.15	  557.24
     10.1700	  748.00	  686.02	-1847.45	  556.31
     10.2700	  713.00	  685.38	-1881.81	  555.37
     10.3700	  703.00	  684.81	-1891.24	  554.45
     10.4700	  722.00	  684.34	-1871.77	  553.52
     10.5700	  684.00	  684.02	-1909.45	  552.60
     10.6700	  692.00	  683.91	-1901.34	  551.69
     10.7700	  708.00	  684.11	-1885.54	  550.77
     10.8700	  708.00	  684.71	-1886.14	  549.87
     10.9700	  724.00	  685.79	-1871.22	  548.96
     11.0700	  693.00	  687.38	-1903.82	  548.06
     11.1700	  733.00	  689.51	-1865.94	  547.17
     11.2700	  699.00	  692.20	-1902.63	  546.28
     11.3700	  690.00	  695.50	-1914.93	  545.39
     11.4700	  725.00	  699.52	-1883.96	  544.51
     11.5700	  642.00	  704.45	-1971.88	  543.63
     11.6700	  689.00	  710.53	-1930.96	  542.76
     11.7700	  791.00	  718.06	-1836.50	  541.89
     11.8700	  783.00	  727.33	-1853.76	  541.02
     11.9700	  784.00	  738.27	-1863.70	  540.16
     12.0700	  731.00	  750.04	-1928.47	  539.30
     12.1700	  800.00	  760.44	-1869.87	  538.45
     12.2700	  852.00	  765.43	-1822.86	  537.60
     12.3700	  790.00	  760.12	-1879.55	  536.75
     12.4700	  767.00	  743.76	-1886.19	  535.91
     12.5700	  731.00	  722.75	-1901.18	  535.07
     12.6700	  683.00	  703.89	-1930.32	  534.24
     12.7700	  648.00	  689.72	-1951.15	  533.41
     12.8700	  685.00	  679.95	-1904.38	  532.58
     12.9700	  622.00	  673.48	-1960.91	  531.76
     13.0700	  636.00	  669.13	-1942.57	  530.94
     13.1700	  707.00	  666.05	-1868.48	  530.13
     13.2700	  639.00	  663.68	-1934.11	  529.32
     13.3700	  637.00	  661.73	-1934.17	  528.51
     13.4700	  635.00	  660.06	-1934.49	  527.71
     13.5700	  639.00	  658.58	-1929.01	  526.91
     13.6700	  620.00	  657.23	-1946.67	  526.12
     13.7700	  632.00	  656.00	-1933.43	  525.33
     13.8700	  677.00	  654.84	-1887.27	  524.54
     13.9700	  612.00	  653.75	-1951.18	  523.76
     14.0700	  620.00	  652.71	-1942.14	  522.99
     14.1700	  632.00	  651.71	-1929.14	  522.21
     14.2700	  614.00	  650.75	-1946.18	  521.44
     14.3700	  592.00	  649.81	-1967.25	  520.68
     14.4700	  679.00	  648.91	-1879.34	  519.91
     14.5700	  626.00	  648.02	-1931.46	  519.15
     14.6700	  604.00	  647.16	-1952.59	  518.40
     14.7700	  656.00	  646.31	-1899.74	  517.65
     14.8700	  596.00	  645.47	-1958.91	  516.90
     14.9700	  651.00	  644.65	-1903.09	  516.16
     15.0700	  651.00	  643.84	-1902.28	  515.42
     15.1700	  642.00	  643.05	-1910.48	  514.69
     15.2700	  600.00	  642.26	-1951.69	  513.96
     15.3700	  665.00	  641.48	-1885.91	  513.23
     15.4700	  654.00	  640.71	-1896.14	  512.51
     15.5700	  622.00	  639.95	-1927.38	  511.79
     15.6700	  617.00	  639.19	-1931.63	  511.07
     15.7700	  619.00	  638.45	-1928.88	  510.36
     15.8700	  597.00	  637.71	-1950.14	  509.65
     15.9700	  639.00	  636.97	-1907.40	  508.95
     16.0700	  658.00	  636.24	-1887.68	  508.25
     16.1700	  624.00	  635.52	-1920.95	  507.55
     16.2700	  629.00	  634.80	-1915.24	  506.86
     16.3700	  645.00	  634.09	-1898.53	  506.17
     16.4700	  644.00	  633.39	-1898.82	  505.48
     16.5700	  647.00	  632.69	-1895.12	  504.80
     16.6700	  623.00	  631.99	-1918.43	  504.12
     16.7700	  590.00	  631.30	-1950.74	  503.45
     16.8700	  650.00	  630.62	-1890.05	  502.78
     16.9700	  621.00	  629.94	-1918.37	  502.11
     17.0700	  623.00	  629.26	-1915.70	  501.45
     17.1700	  624.00	  628.59	-1914.03	  500.79
     17.2700	  653.00	  627.93	-1884.36	  500.13
     17.3700	  615.00	  627.26	-1921.70	  499.48
     17.4700	  628.00	  626.61	-1908.04	  498.83
     17.5700	  623.00	  625.95	-1912.39	  498.19
     17.6700	  604.00	  625.30	-1930.74	  497.55
     17.7700	  580.00	  624.66	-1954.09	  496.91
     17.8700	  618.00	  624.02	-1915.45	  496.27
     17.9700	  623.00	  623.38	-1909.82	  495.64
     18.0700	  641.00	  622.75	-1891.19	  495.02
     18.1700	  589.00	  622.12	-1942.56	  494.40
     18.2700	  629.00	  621.50	-1901.93	  493.78
     18.3700	  599.00	  620.88	-1931.31	  493.16
     18.4700	  641.00	  620.27	-1888.70	  492.55
     18.5700	  592.00	  619.65	-1937.09	  491.94
     18.6700	  617.00	  619.05	-1911.48	  491.34
     18.7700	  641.00	  620.62	-1889.05	  490.73
     18.8700	  593.00	  620.06	-1936.49	  490.14
     18.9700	  597.00	  619.51	-1931.94	  489.54
     19.0700	  624.00	  618.97	-1904.40	  488.95
     19.1700	  597.00	  618.43	-1930.86	  488.36
     19.2700	  587.00	  617.90	-1940.33	  487.78
     19.3700	  600.00	  617.37	-1926.80	  487.20
     19.4700	  603.00	  616.85	-1923.28	  486.62
     19.5700	  636.00	  616.33	-1889.76	  486.05
     19.6700	  603.00	  615.82	-1922.25	  485.48
     19.7700	  639.00	  615.32	-1885.75	  484.92
     19.8700	  589.00	  614.82	-1935.25	  484.35
     19.9700	  628.00	  614.33	-1895.76	  483.79
     20.0700	  612.00	  613.88	-1911.31	  483.24
     20.1700	  576.00	  613.40	-1946.83	  482.69
     20.2700	  599.00	  612.93	-1923.36	  482.14
     20.3700	  587.00	  612.46	-1934.90	  481.59
     20.4700	  657.00	  612.01	-1864.44	  481.05
     20.5700	  627.00	  611.55	-1893.99	  480.51
     20.6700	  590.00	  611.11	-1930.54	  479.98
     20.7700	  634.00	  610.67	-1886.11	  479.44
     20.8700	  574.00	  610.24	-1945.68	  478.92
     20.9700	  569.00	  609.82	-1950.25	  478.39
     21.0700	  612.00	  609.41	-1906.84	  477.87
     21.1700	  642.00	  609.00	-1876.44	  477.35
     21.2700	  536.00	  608.61	-1982.04	  476.84
     21.3700	  624.00	  608.22	-1893.65	  476.33
     21.4700	  599.00	  607.84	-1918.28	  475.82
     21.5700	  603.00	  607.48	-1913.91	  475.31
     21.6700	  615.00	  607.12	-1901.55	  474.81
     21.7700	  591.00	  606.77	-1925.21	  474.31
     21.8700	  610.00	  606.44	-1905.87	  473.82
     21.9700	  636.00	  606.12	-1879.55	  473.33
     22.0700	  599.00	  605.81	-1916.24	  472.84
     22.1700	  622.00	  605.51	-1892.95	  472.35
     22.2700	  573.00	  605.41	-1941.84	  471.87
     22.3700	  640.00	  605.15	-1874.58	  471.39
     22.4700	  604.00	  604.90	-1910.34	  470.92
     22.5700	  629.00	  604.68	-1885.11	  470.44
     22.6700	  622.00	  604.48	-1891.91	  469.98
     22.7700	  609.00	  604.30	-1904.73	  469.51
     22.8700	  602.00	  604.14	-1911.57	  469.05
     22.9700	  587.00	  604.01	-1926.45	  468.59
     23.0700	  587.00	  603.92	-1926.35	  468.13
     23.1700	  631.00	  603.86	-1882.30	  467.68
     23.2700	  614.00	  603.85	-1899.28	  467.23
     23.3700	  659.00	  603.89	-1854.32	  466.78
     23.4700	  570.00	  603.99	-1943.42	  466.34
     23.5700	  645.00	  604.16	-1868.59	  465.90
     23.6700	  620.00	  604.43	-1893.86	  465.46
     23.7700	  586.00	  604.83	-1928.26	  465.03
     23.8700	  636.00	  605.40	-1878.84	  464.60
     23.9700	  650.00	  606.25	-1865.68	  464.17
     24.0700	  589.00	  607.46	-1927.89	  463.74
     24.1700	  583.00	  609.36	-1935.79	  463.32
     24.2700	  616.00	  612.24	-1905.67	  462.90
     24.3700	  666.00	  616.51	-1859.94	  462.49
     24.4700	  637.00	  622.58	-1895.01	  462.07
     24.5700	  703.00	  630.63	-1837.07	  461.66
     24.6700	  658.00	  640.42	-1891.85	  461.26
     24.7700	  674.00	  650.94	-1886.38	  460.85
     24.8700	  760.00	  660.12	-1809.55	  460.45
     24.9700	  692.00	  664.64	-1882.07	  460.06
     25.0700	  682.00	  661.56	-1888.99	  459.66
     25.1700	  713.00	  651.91	-1848.34	  459.27
     25.2700	  652.00	  640.46	-1897.89	  458.88
     25.3700	  686.00	  630.72	-1854.15	  458.50
     25.4700	  638.00	  623.87	-1895.31	  458.11
     25.5700	  608.00	  619.72	-1921.15	  457.73
     25.6700	  628.00	  617.62	-1899.06	  457.36
     25.7700	  644.00	  616.94	-1882.37	  456.98
     25.8700	  661.00	  617.18	-1865.61	  456.61
     25.9700	  662.00	  618.08	-1865.51	  456.24
     26.0700	  629.00	  619.49	-1899.92	  455.88
     26.1700	  641.00	  621.36	-1889.80	  455.52
     26.2700	  640.00	  623.72	-1893.15	  455.16
     26.3700	  654.00	  626.59	-1882.02	  454.80
     26.4700	  665.00	  630.04	-1874.47	  454.45
     26.5700	  642.00	  634.18	-1901.61	  454.09
     26.6700	  640.00	  639.12	-1908.56	  453.75
     26.7700	  612.00	  645.06	-1942.49	  453.40
     26.8700	  625.00	  652.22	-1936.65	  453.06
     26.9700	  693.00	  660.92	-1877.35	  452.72
     27.0700	  705.00	  671.61	-1876.05	  452.38
     27.1700	  703.00	  684.92	-1891.36	  452.05
     27.2700	  704.00	  701.81	-1907.24	  451.72
     27.3700	  691.00	  723.91	-1942.34	  451.39
     27.4700	  738.00	  754.45	-1925.88	  451.06
     27.5700	  675.00	  800.29	-2034.72	  450.74
     27.6700	  779.00	  875.62	-2006.06	  450.42
     27.7700	  812.00	 1007.05	-2104.48	  450.10
     27.8700	  997.00	 1238.03	-2150.46	  449.79
     27.9700	 1234.00	 1626.77	-2302.20	  449.48
     28.0700	 1843.00	 2227.04	-2293.48	  449.17
     28.1700	 2890.00	 3045.99	-2065.42	  448.86
     28.2700	 4255.00	 3979.83	-1634.26	  448.56
     28.3700	 5452.00	 4758.99	-1216.42	  448.25
     28.4700	 5671.00	 4990.01	-1228.44	  447.95
     28.5700	 4814.00	 4485.54	-1580.97	  447.66
     28.6700	 3629.00	 3648.91	-1929.34	  447.37
     28.7700	 2732.00	 3018.68	-2196.11	  447.07
     28.8700	 2550.00	 2800.04	-2159.47	  446.79
     28.9700	 2890.00	 2911.08	-1930.51	  446.50
     29.0700	 3260.00	 3109.13	-1758.56	  446.22
     29.1700	 3309.00	 3103.17	-1703.61	  445.94
     29.2700	 2759.00	 2737.26	-1887.69	  445.66
     29.3700	 2158.00	 2163.18	-1914.61	  445.38
     29.4700	 1462.00	 1625.85	-2073.28	  445.11
     29.5700	 1163.00	 1236.23	-1982.67	  444.84
     29.6700	  963.00	  995.84	-1942.27	  444.57
     29.7700	  889.00	  861.56	-1882.00	  444.31
     29.8700	  787.00	  787.84	-1910.28	  444.04
     29.9700	  729.00	  744.29	-1924.73	  443.78
     30.0700	  776.00	  715.48	-1848.91	  443.53
     30.1700	  683.00	  694.74	-1921.17	  443.27
     30.2700	  731.00	  679.30	-1857.73	  443.02
     30.3700	  701.00	  668.03	-1876.46	  442.77
     30.4700	  634.00	  660.65	-1936.08	  442.52
     30.5700	  683.00	  657.58	-1884.01	  442.27
     30.6700	  657.00	  659.70	-1912.14	  442.03
     30.7700	  701.00	  667.86	-1876.30	  441.79
     30.8700	  724.00	  681.77	-1867.20	  441.55
     30.9700	  730.00	  698.83	-1878.27	  441.32
     31.0700	  756.00	  713.38	-1866.82	  441.08
     31.1700	  727.00	  717.13	-1899.57	  440.85
     31.2700	  753.00	  704.24	-1860.67	  440.62
     31.3700	  711.00	  679.42	-1877.85	  440.40
     31.4700	  662.00	  653.33	-1900.76	  440.17
     31.5700	  653.00	  632.32	-1888.76	  439.95
     31.6700	  649.00	  617.77	-1878.20	  439.73
     31.7700	  634.00	  608.55	-1883.99	  439.52
     31.8700	  579.00	  602.88	-1933.32	  439.30
     31.9700	  609.00	  599.26	-1899.69	  439.09
     32.0700	  645.00	  596.75	-1861.18	  438.88
     32.1700	  613.00	  594.89	-1891.32	  438.67
     32.2700	  630.00	  593.47	-1872.91	  438.46
     32.3700	  605.00	  592.40	-1896.84	  438.26
     32.4700	  638.00	  591.64	-1863.08	  438.06
     32.5700	  620.00	  591.18	-1880.61	  437.86
     32.6700	  590.00	  591.01	-1910.44	  437.66
     32.7700	  577.00	  591.18	-1923.61	  437.47
     32.8700	  638.00	  591.69	-1863.12	  437.28
     32.9700	  612.00	  592.63	-1890.06	  437.09
     33.0700	  608.00	  594.10	-1895.54	  436.90
     33.1700	  586.00	  596.30	-1919.74	  436.71
     33.2700	  592.00	  599.57	-1917.01	  436.53
     33.3700	  612.00	  604.58	-1902.02	  436.35
     33.4700	  623.00	  612.63	-1899.07	  436.17
     33.5700	  666.00	  626.12	-1869.55	  435.99
     33.6700	  642.00	  648.91	-1916.35	  435.82
     33.7700	  683.00	  686.26	-1912.69	  435.64
     33.8700	  775.00	  743.21	-1877.65	  435.47
     33.9700	  867.00	  821.08	-1863.51	  435.30
     34.0700	  987.00	  912.56	-1834.99	  435.14
     34.1700	 1060.00	  998.18	-1847.61	  434.97
     34.2700	 1097.00	 1046.99	-1859.42	  434.81
     34.3700	 1118.00	 1030.40	-1821.83	  434.65
     34.4700	  978.00	  953.01	-1884.45	  434.49
     34.5700	  899.00	  852.91	-1863.35	  434.33
     34.6700	  752.00	  762.81	-1920.24	  434.18
     34.7700	  693.00	  695.41	-1911.85	  434.03
     34.8700	  652.00	  650.86	-1908.29	  433.88
     34.9700	  637.00	  623.75	-1896.19	  433.73
     35.0700	  634.00	  607.81	-1883.25	  433.58
     35.1700	  599.00	  598.18	-1908.62	  433.44
     35.2700	  633.00	  591.90	-1868.34	  433.29
     35.3700	  569.00	  587.44	-1927.87	  433.15
     35.4700	  606.00	  584.04	-1887.48	  433.01
     35.5700	  611.00	  581.37	-1879.80	  432.88
     35.6700	  562.00	  579.21	-1926.64	  432.74
     35.7700	  574.00	  577.43	-1912.87	  432.61
     35.8700	  612.00	  575.97	-1873.40	  432.48
     35.9700	  562.00	  574.75	-1922.18	  432.35
     36.0700	  599.00	  573.73	-1884.16	  432.22
     36.1700	  595.00	  572.88	-1887.31	  432.09
     36.2700	  566.00	  572.18	-1915.61	  431.97
     36.3700	  559.00	  571.61	-1922.04	  431.85
     36.4700	  544.00	  571.16	-1936.60	  431.73
     36.5700	  615.00	  570.84	-1865.27	  431.61
     36.6700	  616.00	  570.63	-1864.07	  431.49
     36.7700	  515.00	  570.56	-1964.99	  431.38
     36.8700	  558.00	  571.12	-1922.55	  431.27
     36.9700	  563.00	  571.59	-1918.02	  431.15
     37.0700	  556.00	  572.11	-1925.54	  431.04
     37.1700	  619.00	  572.95	-1863.38	  430.94
     37.2700	  609.00	  574.36	-1874.79	  430.83
     37.3700	  575.00	  576.59	-1911.03	  430.73
     37.4700	  563.00	  580.16	-1926.59	  430.62
     37.5700	  562.00	  585.74	-1933.17	  430.52
     37.6700	  612.00	  594.27	-1891.70	  430.42
     37.7700	  549.00	  606.73	-1967.17	  430.33
     37.8700	  624.00	  623.68	-1909.11	  430.23
     37.9700	  593.00	  644.56	-1960.99	  430.14
     38.0700	  698.00	  667.07	-1878.50	  430.04
     38.1700	  693.00	  686.89	-1903.33	  429.95
     38.2700	  690.00	  697.45	-1916.88	  429.86
     38.3700	  704.00	  691.45	-1896.88	  429.77
     38.4700	  628.00	  672.10	-1953.54	  429.69
     38.5700	  624.00	  646.26	-1931.69	  429.60
     38.6700	  612.00	  621.75	-1919.19	  429.52
     38.7700	  590.00	  602.30	-1921.73	  429.44
     38.8700	  573.00	  588.55	-1924.98	  429.36
     38.9700	  512.00	  579.61	-1977.04	  429.28
     39.0700	  607.00	  574.07	-1876.50	  429.21
     39.1700	  543.00	  570.65	-1937.09	  429.13
     39.2700	  584.00	  568.45	-1893.89	  429.06
     39.3700	  595.00	  566.93	-1881.36	  428.98
     39.4700	  568.00	  565.80	-1907.23	  428.91
     39.5700	  595.00	  564.92	-1879.35	  428.84
     39.6700	  557.00	  563.42	-1915.85	  428.78
     39.7700	  618.00	  562.85	-1854.29	  428.71
     39.8700	  592.00	  562.39	-1879.82	  428.65
     39.9700	  579.00	  562.00	-1892.44	  428.58
     40.0700	  512.00	  561.69	-1959.12	  428.52
     40.1700	  527.00	  561.43	-1943.86	  428.46
     40.2700	  557.00	  561.21	-1913.65	  428.40
     40.3700	  557.00	  561.04	-1913.48	  428.34
     40.4700	  551.00	  560.91	-1919.34	  428.29
     40.5700	  561.00	  561.35	-1909.78	  428.23
     40.6700	  534.00	  561.29	-1936.73	  428.18
     40.7700	  548.00	  561.27	-1922.71	  428.13
     40.8700	  534.00	  561.29	-1936.72	  428.08
     40.9700	  566.00	  561.33	-1904.77	  428.03
     41.0700	  524.00	  561.42	-1946.86	  427.98
     41.1700	  616.00	  561.55	-1854.99	  427.93
     41.2700	  561.00	  561.79	-1910.22	  427.89
     41.3700	  513.00	  562.03	-1958.46	  427.84
     41.4700	  571.00	  562.34	-1900.77	  427.80
     41.5700	  577.00	  562.74	-1895.17	  427.76
     41.6700	  606.00	  563.24	-1866.68	  427.72
     41.7700	  590.00	  563.90	-1883.33	  427.68
     41.8700	  557.00	  564.77	-1917.21	  427.64
     41.9700	  545.00	  565.99	-1930.42	  427.61
     42.0700	  546.00	  567.79	-1931.23	  427.57
     42.1700	  566.00	  570.60	-1914.03	  427.54
     42.2700	  608.00	  575.07	-1876.50	  427.50
     42.3700	  607.00	  582.10	-1884.53	  427.47
     42.4700	  575.00	  592.63	-1927.06	  427.44
     42.5700	  578.00	  607.41	-1938.84	  427.41
     42.6700	  578.00	  626.16	-1957.59	  427.38
     42.7700	  623.00	  646.93	-1933.36	  427.36
     42.8700	  628.00	  665.44	-1946.87	  427.33
     42.9700	  653.00	  675.51	-1931.94	  427.31
     43.0700	  664.00	  672.35	-1917.79	  427.28
     43.1700	  601.00	  657.34	-1965.77	  427.26
     43.2700	  601.00	  636.57	-1945.00	  427.24
     43.3700	  624.00	  616.17	-1901.60	  427.22
     43.4700	  617.00	  599.26	-1891.69	  427.20
     43.5700	  629.00	  586.73	-1867.16	  427.18
     43.6700	  595.00	  578.21	-1892.64	  427.17
     43.7700	  576.00	  572.96	-1906.40	  427.15
     43.8700	  537.00	  569.59	-1942.03	  427.14
     43.9700	  566.00	  567.49	-1910.93	  427.12
     44.0700	  605.00	  566.13	-1870.57	  427.11
     44.1700	  617.00	  565.20	-1857.63	  427.10
     44.2700	  572.00	  564.52	-1901.95	  427.09
     44.3700	  552.00	  564.01	-1921.45	  427.08
     44.4700	  555.00	  563.63	-1918.07	  427.07
     44.5700	  558.00	  563.35	-1914.78	  427.06
     44.6700	  590.00	  563.14	-1882.57	  427.05
     44.7700	  568.00	  562.99	-1904.43	  427.05
     44.8700	  596.00	  563.12	-1876.56	  427.04
     44.9700	  533.00	  563.08	-1939.51	  427.04
     45.0700	  576.00	  563.09	-1896.53	  427.04
     45.1700	  560.00	  563.13	-1912.56	  427.03
     45.2700	  520.00	  563.19	-1952.63	  427.03
     45.3700	  606.00	  563.29	-1866.72	  427.03
     45.4700	  585.00	  563.42	-1887.85	  427.03
     45.5700	  551.00	  563.57	-1922.01	  427.04
     45.6700	  588.00	  563.85	-1885.29	  427.04
     45.7700	  593.00	  564.07	-1880.50	  427.04
     45.8700	  573.00	  564.32	-1900.75	  427.04
     45.9700	  584.00	  564.60	-1890.03	  427.05
     46.0700	  569.00	  564.91	-1905.35	  427.06
     46.1700	  552.00	  565.27	-1922.71	  427.06
     46.2700	  572.00	  565.67	-1903.10	  427.07
     46.3700	  532.00	  566.04	-1943.47	  427.08
     46.4700	  555.00	  566.54	-1920.97	  427.09
     46.5700	  556.00	  567.10	-1920.53	  427.10
     46.6700	  547.00	  567.73	-1930.17	  427.11
     46.7700	  572.00	  568.46	-1905.89	  427.12
     46.8700	  580.00	  569.29	-1898.72	  427.13
     46.9700	  612.00	  570.27	-1867.70	  427.14
     47.0700	  565.00	  571.45	-1915.88	  427.16
     47.1700	  570.00	  572.94	-1912.37	  427.17
     47.2700	  607.00	  574.93	-1877.37	  427.19
     47.3700	  549.00	  577.74	-1938.17	  427.20
     47.4700	  652.00	  581.79	-1839.22	  427.22
     47.5700	  630.00	  587.64	-1867.08	  427.23
     47.6700	  624.00	  595.87	-1881.30	  427.25
     47.7700	  610.00	  606.81	-1906.25	  427.27
     47.8700	  676.00	  620.30	-1853.73	  427.29
     47.9700	  620.00	  635.26	-1924.69	  427.31
     48.0700	  672.00	  649.37	-1886.81	  427.33
     48.1700	  659.00	  659.05	-1909.49	  427.35
     48.2700	  653.00	  661.09	-1917.52	  427.37
     48.3700	  645.00	  655.17	-1919.60	  427.39
     48.4700	  620.00	  644.84	-1934.27	  427.42
     48.5700	  647.00	  633.10	-1895.53	  427.44
     48.6700	  599.00	  622.99	-1933.42	  427.46
     48.7700	  604.00	  615.74	-1921.17	  427.49
     48.8700	  598.00	  611.66	-1923.10	  427.51
     48.9700	  635.00	  610.56	-1885.00	  427.54
     49.0700	  645.00	  612.05	-1876.48	  427.56
     49.1700	  552.00	  615.79	-1973.23	  427.59
     49.2700	  647.00	  621.70	-1884.14	  427.62
     49.3700	  611.00	  630.13	-1928.57	  427.65
     49.4700	  645.00	  642.27	-1906.70	  427.67
     49.5700	  591.00	  660.96	-1979.40	  427.70
     49.6700	  708.00	  692.29	-1893.72	  427.73
     49.7700	  722.00	  747.66	-1935.09	  427.76
     49.8700	  822.00	  845.35	-1932.79	  427.79
     49.9700	 1012.00	 1009.17	-1906.60	  427.82
     50.0700	 1322.00	 1261.31	-1848.74	  427.85
     50.1700	 1658.00	 1608.69	-1860.12	  427.88
     50.2700	 2136.00	 2026.53	-1799.96	  427.92
     50.3700	 2605.00	 2444.60	-1749.04	  427.95
     50.4700	 2859.00	 2748.57	-1799.00	  427.98
     50.5700	 2843.00	 2819.76	-1886.19	  428.01
     50.6700	 2667.00	 2622.90	-1865.33	  428.05
     50.7700	 2214.00	 2245.26	-1940.69	  428.08
     50.8700	 1727.00	 1817.68	-2000.11	  428.12
     50.9700	 1302.00	 1435.17	-2042.60	  428.15
     51.0700	 1051.00	 1143.67	-2002.11	  428.18
     51.1700	  909.00	  949.10	-1949.54	  428.22
     51.2700	  851.00	  833.41	-1891.85	  428.26
     51.3700	  769.00	  770.52	-1910.95	  428.29
     51.4700	  733.00	  736.92	-1913.35	  428.33
     51.5700	  709.00	  716.58	-1917.01	  428.36
     51.6700	  687.00	  701.70	-1924.13	  428.40
     51.7700	  699.00	  690.15	-1900.58	  428.44
     51.8700	  652.00	  682.19	-1939.62	  428.48
     51.9700	  642.00	  678.01	-1945.45	  428.51
     52.0700	  624.00	  676.85	-1962.28	  428.55
     52.1700	  659.00	  676.78	-1927.21	  428.59
     52.2700	  651.00	  675.28	-1933.71	  428.63
     52.3700	  664.00	  670.63	-1916.07	  428.67
     52.4700	  651.00	  663.40	-1921.83	  428.71
     52.5700	  639.00	  655.78	-1926.21	  428.74
     52.6700	  675.00	  650.04	-1884.47	  428.78
     52.7700	  663.00	  648.00	-1894.43	  428.82
     52.8700	  645.00	  651.25	-1915.69	  428.86
     52.9700	  663.00	  661.58	-1908.01	  428.90
     53.0700	  674.00	  681.28	-1916.71	  428.94
     53.1700	  716.00	  713.25	-1906.68	  428.98
     53.2700	  787.00	  760.54	-1882.97	  429.02
     53.3700	  831.00	  825.37	-1903.80	  429.06
     53.4700	  931.00	  907.68	-1886.12	  429.11
     53.5700	  962.00	 1003.42	-1950.86	  429.15
     53.6700	 1082.00	 1102.21	-1929.64	  429.19
     53.7700	 1211.00	 1186.21	-1884.64	  429.23
     53.8700	 1265.00	 1232.40	-1876.83	  429.27
     53.9700	 1270.00	 1224.09	-1863.52	  429.31
     54.0700	 1183.00	 1164.29	-1890.72	  429.35
     54.1700	 1102.00	 1073.43	-1880.87	  429.39
     54.2700	  940.00	  974.21	-1943.64	  429.44
     54.3700	  805.00	  882.26	-1986.69	  429.48
     54.4700	  791.00	  805.54	-1923.97	  429.52
     54.5700	  755.00	  746.57	-1901.01	  429.56
     54.6700	  713.00	  704.31	-1900.74	  429.60
     54.7700	  691.00	  675.79	-1894.23	  429.64
     54.8700	  652.00	  657.54	-1914.97	  429.69
     54.9700	  672.00	  646.38	-1883.81	  429.73
     55.0700	  623.00	  639.88	-1926.31	  429.77
     55.1700	  667.00	  636.43	-1878.87	  429.81
     55.2700	  621.00	  635.07	-1923.50	  429.85
     55.3700	  643.00	  635.26	-1901.69	  429.90
     55.4700	  653.00	  636.76	-1893.20	  429.94
     55.5700	  648.00	  639.53	-1900.96	  429.98
     55.6700	  651.00	  643.61	-1902.04	  430.02
     55.7700	  647.00	  649.22	-1911.65	  430.06
     55.8700	  621.00	  656.74	-1945.17	  430.10
     55.9700	  684.00	  666.96	-1892.39	  430.15
     56.0700	  691.00	  681.33	-1899.76	  430.19
     56.1700	  711.00	  702.56	-1901.00	  430.23
     56.2700	  716.00	  735.34	-1928.77	  430.27
     56.3700	  770.00	  787.07	-1926.50	  430.31
     56.4700	  801.00	  868.20	-1976.63	  430.35
     56.5700	  984.00	  991.22	-1916.66	  430.39
     56.6700	 1156.00	 1168.25	-1921.68	  430.44
     56.7700	 1360.00	 1406.21	-1955.64	  430.48
     56.8700	 1766.00	 1701.19	-1844.63	  430.52
     56.9700	 2114.00	 2032.45	-1827.88	  430.56
     57.0700	 2443.00	 2356.79	-1823.23	  430.60
     57.1700	 2607.00	 2607.95	-1910.38	  430.64
     57.2700	 2690.00	 2712.23	-1931.66	  430.68
     57.3700	 2586.00	 2631.66	-1955.09	  430.72
     57.4700	 2315.00	 2395.81	-1990.24	  430.76
     57.5700	 2036.00	 2077.54	-1950.97	  430.80
     57.6700	 1676.00	 1746.34	-1979.77	  430.84
     57.7700	 1322.00	 1448.39	-2035.82	  430.88
     57.8700	 1147.00	 1206.80	-1969.23	  430.92
     57.9700	  988.00	 1027.38	-1948.81	  430.95
     58.0700	  825.00	  904.73	-1989.16	  430.99
     58.1700	  786.00	  828.13	-1951.56	  431.03
     58.2700	  758.00	  786.65	-1938.08	  431.07
     58.3700	  799.00	  772.24	-1882.68	  431.11
     58.4700	  774.00	  780.51	-1915.94	  431.15
     58.5700	  824.00	  809.90	-1895.34	  431.18
     58.6700	  796.00	  860.02	-1973.46	  431.22
     58.7700	  922.00	  929.49	-1916.92	  431.26
     58.8700	  997.00	 1013.98	-1926.42	  431.29
     58.9700	 1099.00	 1104.89	-1915.32	  431.33
     59.0700	 1196.00	 1189.54	-1902.97	  431.37
     59.1700	 1180.00	 1255.80	-1985.24	  431.40
     59.2700	 1309.00	 1298.22	-1898.65	  431.44
     59.3700	 1283.00	 1317.08	-1943.52	  431.47
     59.4700	 1256.00	 1312.46	-1965.89	  431.51
     59.5700	 1254.00	 1285.18	-1940.61	  431.54
     59.6700	 1249.00	 1242.96	-1903.39	  431.57
     59.7700	 1279.00	 1199.90	-1830.33	  431.61
     59.8700	 1184.00	 1169.21	-1894.64	  431.64
     59.9700	 1246.00	 1159.66	-1823.10	  431.68
     60.0700	 1220.00	 1177.04	-1866.48	  431.71
     60.1700	 1263.00	 1225.39	-1871.82	  431.74
     60.2700	 1378.00	 1304.87	-1836.30	  431.77
     60.3700	 1466.00	 1407.47	-1850.90	  431.80
     60.4700	 1536.00	 1514.71	-1888.14	  431.83
     60.5700	 1598.00	 1598.14	-1909.57	  431.87
     60.6700	 1605.00	 1626.28	-1930.71	  431.90
     60.7700	 1497.00	 1581.25	-1993.68	  431.93
     60.8700	 1416.00	 1471.92	-1965.35	  431.96
     60.9700	 1290.00	 1326.23	-1945.66	  431.98
     61.0700	 1128.00	 1173.31	-1954.74	  432.01
     61.1700	  970.00	 1034.25	-1973.68	  432.04
     61.2700	  899.00	  920.92	-1931.35	  432.07
     61.3700	  839.00	  837.80	-1908.23	  432.10
     61.4700	  794.00	  784.27	-1899.71	  432.12
     61.5700	  764.00	  757.56	-1902.99	  432.15
     61.6700	  777.00	  755.18	-1887.61	  432.18
     61.7700	  790.00	  776.46	-1895.89	  432.20
     61.8700	  819.00	  822.78	-1913.21	  432.23
     61.9700	  930.00	  896.39	-1875.82	  432.25
     62.0700	  990.00	  998.38	-1917.81	  432.28
     62.1700	 1193.00	 1126.17	-1842.60	  432.30
     62.2700	 1348.00	 1271.20	-1832.63	  432.32
     62.3700	 1464.00	 1417.15	-1862.58	  432.35
     62.4700	 1564.00	 1539.35	-1884.78	  432.37
     62.5700	 1587.00	 1608.57	-1931.01	  432.39
     62.6700	 1573.00	 1603.54	-1939.97	  432.41
     62.7700	 1431.00	 1525.35	-2003.78	  432.43
     62.8700	 1334.00	 1396.87	-1972.30	  432.45
     62.9700	 1187.00	 1247.39	-1969.82	  432.47
     63.0700	 1019.00	 1100.67	-1991.11	  432.49
     63.1700	  943.00	  971.92	-1938.35	  432.51
     63.2700	  873.00	  868.50	-1904.93	  432.53
     63.3700	  777.00	  791.66	-1924.09	  432.54
     63.4700	  763.00	  738.51	-1884.94	  432.56
     63.5700	  712.00	  704.25	-1901.69	  432.58
     63.6700	  690.00	  684.02	-1903.45	  432.59
     63.7700	  697.00	  673.80	-1886.23	  432.61
     63.8700	  647.00	  671.08	-1933.52	  432.62
     63.9700	  699.00	  674.92	-1885.35	  432.63
     64.0700	  679.00	  685.75	-1916.18	  432.65
     64.1700	  735.00	  705.15	-1879.58	  432.66
     64.2700	  779.00	  735.53	-1865.96	  432.67
     64.3700	  857.00	  779.58	-1832.01	  432.68
     64.4700	  822.00	  839.17	-1926.60	  432.69
     64.5700	  960.00	  916.28	-1865.72	  432.70
     64.6700	 1020.00	 1009.08	-1898.51	  432.71
     64.7700	 1056.00	 1112.61	-1966.05	  432.72
     64.8700	 1211.00	 1217.51	-1915.94	  432.73
     64.9700	 1372.00	 1309.99	-1847.42	  432.74
     65.0700	 1375.00	 1374.73	-1909.16	  432.74
     65.1700	 1342.00	 1399.79	-1967.23	  432.75
     65.2700	 1294.00	 1380.28	-1995.71	  432.76
     65.3700	 1288.00	 1321.06	-1942.49	  432.76
     65.4700	 1227.00	 1234.86	-1917.30	  432.77
     65.5700	 1118.00	 1137.38	-1928.81	  432.77
     65.6700	  989.00	 1041.17	-1961.60	  432.77
     65.7700	  926.00	  954.35	-1937.78	  432.77
     65.8700	  860.00	  880.56	-1929.99	  432.78
     65.9700	  797.00	  820.49	-1932.92	  432.78
     66.0700	  731.00	  773.31	-1951.74	  432.78
     66.1700	  752.00	  737.46	-1894.89	  432.78
     66.2700	  667.00	  711.01	-1953.44	  432.77
     66.3700	  677.00	  692.05	-1924.48	  432.77
     66.4700	  600.00	  678.72	-1988.16	  432.77
     66.5700	  684.00	  669.77	-1895.20	  432.77
     66.6700	  597.00	  664.28	-1976.71	  432.76
     66.7700	  636.00	  661.68	-1935.11	  432.76
     66.8700	  645.00	  661.65	-1926.09	  432.75
     66.9700	  617.00	  664.18	-1956.61	  432.74
     67.0700	  625.00	  669.65	-1954.08	  432.74
     67.1700	  679.00	  678.84	-1909.27	  432.73
     67.2700	  674.00	  693.16	-1928.59	  432.72
     67.3700	  679.00	  715.36	-1945.79	  432.71
     67.4700	  753.00	  749.35	-1905.78	  432.70
     67.5700	  786.00	  800.50	-1923.93	  432.69
     67.6700	  855.00	  875.36	-1929.80	  432.68
     67.7700	  997.00	  980.91	-1893.34	  432.67
     67.8700	 1155.00	 1123.14	-1877.57	  432.65
     67.9700	 1361.00	 1304.98	-1853.41	  432.64
     68.0700	 1505.00	 1524.15	-1928.58	  432.62
     68.1700	 1762.00	 1771.00	-1918.43	  432.61
     68.2700	 2108.00	 2026.76	-1828.19	  432.59
     68.3700	 2339.00	 2262.42	-1832.86	  432.58
     68.4700	 2515.00	 2439.92	-1834.35	  432.56
     68.5700	 2478.00	 2521.07	-1952.50	  432.54
     68.6700	 2421.00	 2484.89	-1973.32	  432.52
     68.7700	 2341.00	 2340.95	-1909.38	  432.50
     68.8700	 2190.00	 2122.98	-1842.42	  432.48
     68.9700	 1871.00	 1870.85	-1909.29	  432.46
     69.0700	 1685.00	 1617.50	-1841.94	  432.43
     69.1700	 1384.00	 1385.66	-1911.09	  432.41
     69.2700	 1243.00	 1188.39	-1854.82	  432.39
     69.3700	 1021.00	 1030.54	-1918.98	  432.36
     69.4700	 1035.00	  910.99	-1785.42	  432.33
     69.5700	  891.00	  824.63	-1843.06	  432.31
     69.6700	  820.00	  764.67	-1854.10	  432.28
     69.7700	  765.00	  724.22	-1868.66	  432.25
     69.8700	  735.00	  697.35	-1871.78	  432.22
     69.9700	  771.00	  679.51	-1817.94	  432.19
     70.0700	  718.00	  667.49	-1858.92	  432.16
     70.1700	  631.00	  659.25	-1937.68	  432.13
     70.2700	  625.00	  653.49	-1937.92	  432.09
     70.3700	  702.00	  649.50	-1856.93	  432.06
     70.4700	  687.00	  646.88	-1869.32	  432.03
     70.5700	  656.00	  645.45	-1898.88	  431.99
     70.6700	  675.00	  645.14	-1879.57	  431.96
     70.7700	  664.00	  645.81	-1891.25	  431.92
     70.8700	  660.00	  648.10	-1897.53	  431.88
     70.9700	  646.00	  652.21	-1915.64	  431.84
     71.0700	  714.00	  658.87	-1854.30	  431.80
     71.1700	  672.00	  669.27	-1906.70	  431.76
     71.2700	  640.00	  685.19	-1954.62	  431.72
     71.3700	  750.00	  709.17	-1868.60	  431.68
     71.4700	  803.00	  744.46	-1850.89	  431.63
     71.5700	  816.00	  794.93	-1888.36	  431.59
     71.6700	  899.00	  864.65	-1875.08	  431.54
     71.7700	  983.00	  957.07	-1883.51	  431.50
     71.8700	 1079.00	 1074.10	-1904.54	  431.45
     71.9700	 1252.00	 1214.94	-1872.37	  431.40
     72.0700	 1417.00	 1375.08	-1867.51	  431.36
     72.1700	 1520.00	 1545.35	-1934.78	  431.31
     72.2700	 1637.00	 1711.14	-1983.57	  431.26
     72.3700	 1759.00	 1852.44	-2002.88	  431.20
     72.4700	 1917.00	 1946.13	-1938.56	  431.15
     72.5700	 1902.00	 1973.61	-1981.05	  431.10
     72.6700	 1884.00	 1927.07	-1952.50	  431.05
     72.7700	 1834.00	 1817.80	-1893.23	  430.99
     72.8700	 1701.00	 1667.14	-1875.57	  430.93
     72.9700	 1438.00	 1497.86	-1969.29	  430.88
     73.0700	 1373.00	 1328.52	-1864.95	  430.82
     73.1700	 1104.00	 1172.14	-1977.57	  430.76
     73.2700	 1027.00	 1036.54	-1918.97	  430.70
     73.3700	  865.00	  925.08	-1969.52	  430.64
     73.4700	  822.00	  837.73	-1925.16	  430.58
     73.5700	  816.00	  772.05	-1865.48	  430.52
     73.6700	  736.00	  724.39	-1897.82	  430.46
     73.7700	  706.00	  690.77	-1894.20	  430.39
     73.8700	  670.00	  667.52	-1906.95	  430.33
     73.9700	  652.00	  651.09	-1908.52	  430.26
     74.0700	  645.00	  640.31	-1904.74	  430.19
     74.1700	  605.00	  633.08	-1937.52	  430.13
     74.2700	  696.00	  628.40	-1841.84	  430.06
     74.3700	  626.00	  625.65	-1909.08	  429.99
     74.4700	  631.00	  624.41	-1902.84	  429.92
     74.5700	  678.00	  624.40	-1855.84	  429.85
     74.6700	  604.00	  625.36	-1930.79	  429.77
     74.7700	  616.00	  626.99	-1920.42	  429.70
     74.8700	  619.00	  628.92	-1919.35	  429.63
     74.9700	  692.00	  630.70	-1848.13	  429.55
     75.0700	  701.00	  631.84	-1840.28	  429.48
     75.1700	  692.00	  631.85	-1849.28	  429.40
     75.2700	  691.00	  630.67	-1849.11	  429.32
     75.3700	  680.00	  628.45	-1857.88	  429.24
     75.4700	  725.00	  625.67	-1810.10	  429.16
     75.5700	  659.00	  622.99	-1873.43	  429.08
     75.6700	  656.00	  621.11	-1874.54	  429.00
     75.7700	  620.00	  620.71	-1910.14	  428.92
     75.8700	  641.00	  622.53	-1890.96	  428.84
     75.9700	  629.00	  627.25	-1907.68	  428.75
     76.0700	  677.00	  635.81	-1868.24	  428.67
     76.1700	  647.00	  648.88	-1911.31	  428.58
     76.2700	  664.00	  667.04	-1912.48	  428.49
     76.3700	  719.00	  690.63	-1881.06	  428.40
     76.4700	  769.00	  719.49	-1859.92	  428.32
     76.5700	  778.00	  752.89	-1884.33	  428.23
     76.6700	  780.00	  789.33	-1918.76	  428.13
     76.7700	  806.00	  826.42	-1929.85	  428.04
     76.8700	  849.00	  860.84	-1921.27	  427.95
     76.9700	  875.00	  888.44	-1922.87	  427.86
     77.0700	  881.00	  904.90	-1933.33	  427.76
     77.1700	  895.00	  907.08	-1921.51	  427.67
     77.2700	  884.00	  894.45	-1919.89	  427.57
     77.3700	  853.00	  869.38	-1925.81	  427.47
     77.4700	  825.00	  835.94	-1920.37	  427.37
     77.5700	  791.00	  798.42	-1916.85	  427.28
     77.6700	  788.00	  760.43	-1881.86	  427.18
     77.7700	  704.00	  724.42	-1929.86	  427.07
     77.8700	  685.00	  692.53	-1916.96	  426.97
     77.9700	  678.00	  665.46	-1896.89	  426.87
     78.0700	  629.00	  643.46	-1923.89	  426.77
     78.1700	  681.00	  626.26	-1854.69	  426.66
     78.2700	  648.00	  613.27	-1874.71	  426.56
     78.3700	  609.00	  603.76	-1904.19	  426.45
     78.4700	  607.00	  596.95	-1899.39	  426.34
     78.5700	  593.00	  592.12	-1908.55	  426.23
     78.6700	  623.00	  588.79	-1875.23	  426.12
     78.7700	  586.00	  586.50	-1909.93	  426.01
     78.8700	  584.00	  584.92	-1910.35	  425.90
     78.9700	  553.00	  583.85	-1940.29	  425.79
     79.0700	  581.00	  583.18	-1911.61	  425.68
     79.1700	  590.00	  582.82	-1902.25	  425.57
     79.2700	  602.00	  582.74	-1890.17	  425.45
     79.3700	  578.00	  582.95	-1914.38	  425.33
     79.4700	  588.00	  583.46	-1904.89	  425.22
     79.5700	  596.00	  584.30	-1897.73	  425.10
     79.6700	  599.00	  585.55	-1895.98	  424.98
     79.7700	  571.00	  587.29	-1925.73	  424.86
     79.8700	  594.00	  589.67	-1905.10	  424.74
     79.9700	  576.00	  592.89	-1926.33	  424.62
     80.0700	  569.00	  597.28	-1937.71	  424.50
     80.1700	  617.00	  603.29	-1895.73	  424.38
     80.2700	  595.00	  611.57	-1926.00	  424.26
     80.3700	  652.00	  622.96	-1880.39	  424.13
     80.4700	  641.00	  638.27	-1906.70	  424.01
     80.5700	  636.00	  659.14	-1932.58	  423.88
     80.6700	  702.00	  686.59	-1894.02	  423.75
     80.7700	  751.00	  721.72	-1880.15	  423.63
     80.8700	  771.00	  765.30	-1903.74	  423.50
     80.9700	  829.00	  817.45	-1897.89	  423.37
     81.0700	  922.00	  877.30	-1864.73	  423.24
     81.1700	  962.00	  942.77	-1890.20	  423.11
     81.2700	 1031.00	 1010.44	-1888.87	  422.97
     81.3700	 1152.00	 1075.60	-1833.03	  422.84
     81.4700	 1210.00	 1132.69	-1832.13	  422.71
     81.5700	 1172.00	 1176.41	-1913.84	  422.57
     81.6700	 1124.00	 1202.92	-1988.36	  422.44
     81.7700	 1197.00	 1210.63	-1923.06	  422.30
     81.8700	 1216.00	 1199.97	-1893.40	  422.17
     81.9700	 1204.00	 1172.99	-1878.42	  422.03
     82.0700	 1076.00	 1133.05	-1966.48	  421.89
     82.1700	 1094.00	 1084.21	-1899.64	  421.75
     82.2700	 1034.00	 1030.50	-1905.93	  421.61
     82.3700	  919.00	  975.38	-1965.81	  421.47
     82.4700	  923.00	  921.66	-1908.09	  421.33
     82.5700	  849.00	  871.51	-1931.94	  421.18
     82.6700	  806.00	  826.30	-1929.74	  421.04
     82.7700	  810.00	  786.59	-1886.02	  420.90
     82.8700	  713.00	  752.18	-1948.62	  420.75
     82.9700	  743.00	  722.54	-1888.97	  420.60
     83.0700	  651.00	  697.04	-1955.47	  420.46
     83.1700	  633.00	  675.24	-1951.67	  420.31
     83.2700	  655.00	  656.84	-1911.28	  420.16
     83.3700	  598.00	  641.67	-1953.10	  420.01
     83.4700	  640.00	  629.58	-1899.02	  419.86
     83.5700	  624.00	  620.45	-1905.88	  419.71
     83.6700	  627.00	  614.12	-1896.56	  419.56
     83.7700	  615.00	  610.42	-1904.86	  419.41
     83.8700	  636.00	  609.10	-1882.54	  419.26
     83.9700	  621.00	  609.84	-1898.28	  419.10
     84.0700	  607.00	  612.23	-1914.66	  418.95
     84.1700	  653.00	  615.75	-1872.18	  418.80
     84.2700	  652.00	  619.71	-1877.15	  418.64
     84.3700	  607.00	  623.56	-1925.99	  418.48
     84.4700	  659.00	  626.66	-1877.10	  418.33
     84.5700	  617.00	  628.28	-1920.71	  418.17
     84.6700	  601.00	  627.93	-1936.37	  418.01
     84.7700	  624.00	  625.51	-1910.94	  417.85
     84.8700	  607.00	  621.25	-1923.68	  417.69
     84.9700	  588.00	  615.65	-1937.08	  417.53
     85.0700	  591.00	  609.29	-1927.72	  417.37
     85.1700	  600.00	  602.73	-1912.16	  417.21
     85.2700	  544.00	  596.44	-1961.87	  417.05
     85.3700	  583.00	  590.78	-1917.21	  416.88
     85.4700	  557.00	  586.03	-1938.46	  416.72
     85.5700	  607.00	  582.36	-1884.80	  416.55
     85.6700	  625.00	  579.89	-1864.33	  416.39
     85.7700	  554.00	  578.68	-1934.11	  416.22
     85.8700	  592.00	  578.74	-1896.17	  416.06
     85.9700	  578.00	  580.07	-1911.51	  415.89
     86.0700	  600.00	  582.68	-1892.11	  415.72
     86.1700	  573.00	  586.54	-1922.97	  415.55
     86.2700	  587.00	  591.60	-1914.03	  415.39
     86.3700	  608.00	  597.80	-1899.23	  415.22
     86.4700	  571.00	  605.01	-1943.45	  415.05
     86.5700	  597.00	  613.06	-1925.50	  414.87
     86.6700	  590.00	  621.76	-1941.19	  414.70
     86.7700	  576.00	  630.80	-1964.24	  414.53
     86.8700	  626.00	  639.88	-1923.31	  414.36
     86.9700	  645.00	  648.69	-1913.12	  414.19
     87.0700	  581.00	  657.05	-1985.48	  414.01
     87.1700	  681.00	  664.98	-1893.41	  413.84
     87.2700	  692.00	  672.68	-1890.11	  413.66
     87.3700	  649.00	  680.44	-1940.88	  413.49
     87.4700	  673.00	  688.47	-1924.91	  413.31
     87.5700	  687.00	  696.80	-1919.23	  413.14
     87.6700	  734.00	  705.18	-1880.62	  412.96
     87.7700	  703.00	  713.13	-1919.56	  412.78
     87.8700	  736.00	  719.90	-1893.33	  412.60
     87.9700	  654.00	  724.55	-1979.98	  412.43
     88.0700	  744.00	  726.16	-1891.59	  412.25
     88.1700	  722.00	  724.08	-1911.51	  412.07
     88.2700	  640.00	  718.18	-1987.61	  411.89
     88.3700	  694.00	  708.88	-1924.32	  411.71
     88.4700	  681.00	  697.03	-1925.46	  411.53
     88.5700	  660.00	  683.61	-1933.04	  411.35
     88.6700	  696.00	  669.62	-1883.05	  411.17
     88.7700	  657.00	  655.50	-1907.93	  410.98
     88.8700	  618.00	  642.84	-1934.28	  410.80
     88.9700	  630.00	  631.78	-1911.21	  410.62
     89.0700	  695.00	  622.67	-1837.10	  410.44
     89.1700	  651.00	  615.73	-1874.16	  410.25
     89.2700	  601.00	  610.97	-1919.40	  410.07
     89.3700	  597.00	  608.26	-1920.70	  409.88
     89.4700	  624.00	  607.35	-1892.78	  409.70
     89.5700	  628.00	  607.86	-1889.29	  409.51
     89.6700	  613.00	  609.33	-1905.76	  409.33
     89.7700	  625.00	  611.26	-1895.69	  409.14
     89.8700	  658.00	  613.09	-1864.52	  408.96
     89.9700	  684.00	  614.29	-1839.72	  408.77
     90.0700	  623.00	  614.42	-1900.85	  408.58
     90.1700	  658.00	  613.22	-1864.65	  408.40
     90.2700	  637.00	  610.66	-1883.10	  408.21
     90.3700	  662.00	  606.94	-1854.37	  408.02
     90.4700	  680.00	  602.35	-1831.78	  407.83
     90.5700	  613.00	  597.26	-1893.69	  407.64
     90.6700	  623.00	  592.01	-1878.44	  407.46
     90.7700	  569.00	  586.88	-1927.31	  407.27
     90.8700	  562.00	  582.10	-1929.53	  407.08
     90.9700	  556.00	  577.82	-1931.25	  406.89
     91.0700	  572.00	  574.15	-1911.58	  406.70
     91.1700	  568.00	  571.12	-1912.55	  406.51
     91.2700	  570.00	  568.74	-1908.18	  406.32
     91.3700	  568.00	  566.99	-1908.42	  406.13
     91.4700	  554.00	  565.80	-1921.24	  405.94
     91.5700	  540.00	  565.15	-1934.58	  405.75
     91.6700	  548.00	  564.98	-1926.42	  405.56
     91.7700	  532.00	  565.28	-1942.72	  405.37
     91.8700	  556.00	  566.06	-1919.50	  405.18
     91.9700	  559.00	  567.36	-1917.79	  404.99
     92.0700	  551.00	  569.26	-1927.69	  404.79
     92.1700	  603.00	  571.88	-1878.31	  404.60
     92.2700	  522.00	  575.37	-1962.80	  404.41
     92.3700	  569.00	  579.92	-1920.36	  404.22
     92.4700	  598.00	  585.74	-1897.18	  404.03
     92.5700	  605.00	  593.05	-1897.48	  403.84
     92.6700	  627.00	  602.05	-1884.48	  403.64
     92.7700	  578.00	  612.90	-1944.33	  403.45
     92.8700	  611.00	  625.73	-1924.17	  403.26
     92.9700	  589.00	  640.57	-1961.00	  403.07
     93.0700	  633.00	  657.34	-1933.78	  402.88
     93.1700	  655.00	  675.85	-1930.29	  402.68
     93.2700	  647.00	  695.77	-1958.20	  402.49
     93.3700	  697.00	  716.61	-1929.04	  402.30
     93.4700	  691.00	  737.74	-1956.18	  402.11
     93.5700	  734.00	  758.44	-1933.87	  401.92
     93.6700	  808.00	  777.91	-1879.34	  401.73
     93.7700	  773.00	  795.51	-1931.94	  401.53
     93.8700	  828.00	  810.89	-1892.33	  401.34
     93.9700	  799.00	  824.13	-1934.56	  401.15
     94.0700	  806.00	  835.68	-1939.11	  400.96
     94.1700	  825.00	  846.20	-1930.63	  400.77
     94.2700	  869.00	  856.03	-1896.46	  400.58
     94.3700	  863.00	  866.31	-1912.75	  400.38
     94.4700	  908.00	  877.07	-1878.50	  400.19
     94.5700	  914.00	  888.52	-1883.95	  400.00
     94.6700	  955.00	  900.83	-1855.26	  399.81
     94.7700	  947.00	  914.18	-1876.62	  399.62
     94.8700	  895.00	  928.72	-1943.15	  399.43
     94.9700	  953.00	  944.36	-1900.79	  399.24
     95.0700	  988.00	  960.67	-1882.11	  399.05
     95.1700	  926.00	  976.79	-1960.22	  398.86
     95.2700	  971.00	  991.38	-1929.81	  398.67
     95.3700	 1074.00	 1002.77	-1838.21	  398.48
     95.4700	 1058.00	 1009.18	-1860.61	  398.29
     95.5700	 1023.00	 1009.02	-1895.45	  398.11
     95.6700	 1007.00	 1001.32	-1903.75	  397.92
     95.7700	  959.00	  986.04	-1936.47	  397.73
     95.8700	  927.00	  964.08	-1946.51	  397.54
     95.9700	  924.00	  937.11	-1922.54	  397.35
     96.0700	  938.00	  907.17	-1878.61	  397.17
     96.1700	  931.00	  876.47	-1854.90	  396.98
     96.2700	  857.00	  847.12	-1899.55	  396.79
     96.3700	  826.00	  821.08	-1904.51	  396.61
     96.4700	  828.00	  800.11	-1881.55	  396.42
     96.5700	  785.00	  785.71	-1910.15	  396.24
     96.6700	  809.00	  779.14	-1879.57	  396.05
     96.7700	  820.00	  781.40	-1870.84	  395.87
     96.8700	  833.00	  793.27	-1869.71	  395.69
     96.9700	  814.00	  815.28	-1910.72	  395.50
     97.0700	  866.00	  847.72	-1891.16	  395.32
     97.1700	  855.00	  890.59	-1945.03	  395.14
     97.2700	  922.00	  943.56	-1930.99	  394.96
     97.3700	  996.00	 1005.90	-1919.33	  394.77
     97.4700	 1030.00	 1076.39	-1955.82	  394.59
     97.5700	 1096.00	 1153.27	-1966.71	  394.41
     97.6700	 1204.00	 1234.19	-1939.62	  394.23
     97.7700	 1314.00	 1316.12	-1911.55	  394.06
     97.8700	 1370.00	 1395.45	-1934.88	  393.88
     97.9700	 1473.00	 1467.98	-1904.41	  393.70
     98.0700	 1568.00	 1529.21	-1870.64	  393.52
     98.1700	 1520.00	 1574.73	-1964.17	  393.35
     98.2700	 1658.00	 1600.98	-1852.41	  393.17
     98.3700	 1589.00	 1605.96	-1926.39	  393.00
     98.4700	 1629.00	 1589.70	-1870.13	  392.82
     98.5700	 1613.00	 1554.19	-1850.62	  392.65
     98.6700	 1442.00	 1502.89	-1970.32	  392.47
     98.7700	 1379.00	 1440.01	-1970.45	  392.30
     98.8700	 1310.00	 1369.90	-1969.34	  392.13
     98.9700	 1240.00	 1296.72	-1966.16	  391.96
     99.0700	 1229.00	 1224.19	-1904.62	  391.79
     99.1700	 1159.00	 1155.56	-1905.99	  391.62
     99.2700	 1145.00	 1093.57	-1858.00	  391.45
     99.3700	 1035.00	 1040.46	-1914.89	  391.29
     99.4700	 1064.00	  998.07	-1843.50	  391.12
     99.5700	  964.00	  967.80	-1913.24	  390.95
     99.6700	  979.00	  950.72	-1881.15	  390.79
     99.7700	  970.00	  947.56	-1886.99	  390.62
     99.8700	  954.00	  958.73	-1914.16	  390.46
     99.9700	 1006.00	  984.36	-1887.79	  390.30
    100.0700	 1066.00	 1024.27	-1867.71	  390.14
    100.1700	 1106.00	 1077.97	-1881.41	  389.98
    100.2700	 1174.00	 1144.61	-1880.04	  389.82
    100.3700	 1240.00	 1222.94	-1892.37	  389.66
    100.4700	 1299.00	 1311.24	-1921.67	  389.50
    100.5700	 1394.00	 1407.31	-1922.75	  389.35
    100.6700	 1524.00	 1508.32	-1893.75	  389.19
    100.7700	 1635.00	 1611.10	-1885.53	  389.04
    100.8700	 1673.00	 1711.89	-1948.32	  388.89
    100.9700	 1761.00	 1806.73	-1955.17	  388.74
    101.0700	 1855.00	 1891.87	-1946.31	  388.58
    101.1700	 1944.00	 1964.12	-1929.55	  388.44
    101.2700	 2056.00	 2021.21	-1874.64	  388.29
    101.3700	 2088.00	 2061.76	-1883.19	  388.14
    101.4700	 2116.00	 2085.06	-1878.49	  387.99
    101.5700	 2077.00	 2090.74	-1923.18	  387.85
    101.6700	 2094.00	 2078.75	-1894.18	  387.71
    101.7700	 2037.00	 2049.47	-1921.90	  387.56
    101.8700	 2072.00	 2004.04	-1841.47	  387.42
    101.9700	 1959.00	 1944.69	-1895.12	  387.28
    102.0700	 2001.00	 1874.64	-1783.08	  387.15
    102.1700	 1852.00	 1797.87	-1855.30	  387.01
    102.2700	 1761.00	 1718.46	-1866.90	  386.87
    102.3700	 1653.00	 1640.17	-1896.60	  386.74
    102.4700	 1521.00	 1566.10	-1954.54	  386.61
    102.5700	 1514.00	 1498.52	-1893.95	  386.47
    102.6700	 1507.00	 1438.82	-1841.26	  386.34
    102.7700	 1384.00	 1387.61	-1913.04	  386.22
    102.8700	 1369.00	 1344.71	-1885.14	  386.09
    102.9700	 1331.00	 1309.30	-1887.73	  385.96
    103.0700	 1273.00	 1279.98	-1916.41	  385.84
    103.1700	 1258.00	 1254.91	-1906.34	  385.72
    103.2700	 1216.00	 1231.96	-1925.40	  385.59
    103.3700	 1187.00	 1208.99	-1931.42	  385.47
    103.4700	 1177.00	 1184.09	-1916.53	  385.36
    103.5700	 1168.00	 1155.94	-1897.37	  385.24
    103.6700	 1139.00	 1123.88	-1894.31	  385.13
    103.7700	 1051.00	 1087.98	-1946.42	  385.01
    103.8700	 1021.00	 1048.87	-1937.30	  384.90
    103.9700	 1021.00	 1007.50	-1895.93	  384.79
    104.0700	  978.00	  964.96	-1896.40	  384.68
    104.1700	  949.00	  922.34	-1882.78	  384.58
    104.2700	  891.00	  880.62	-1899.05	  384.47
    104.3700	  874.00	  840.63	-1876.06	  384.37
    104.4700	  755.00	  803.07	-1957.50	  384.27
    104.5700	  788.00	  768.47	-1889.90	  384.17
    104.6700	  734.00	  737.17	-1912.60	  384.07
    104.7700	  741.00	  709.37	-1877.80	  383.98
    104.8700	  711.00	  685.09	-1883.53	  383.88
    104.9700	  708.00	  664.27	-1865.70	  383.79
    105.0700	  650.00	  646.66	-1906.09	  383.70
    105.1700	  649.00	  632.10	-1892.53	  383.61
    105.2700	  635.00	  620.25	-1894.68	  383.53
    105.3700	  669.00	  610.77	-1851.21	  383.44
    105.4700	  606.00	  603.37	-1906.80	  383.36
    105.5700	  644.00	  597.75	-1863.18	  383.28
    105.6700	  626.00	  593.66	-1877.09	  383.20
    105.7700	  595.00	  590.88	-1905.31	  383.13
    105.8700	  559.00	  589.21	-1939.65	  383.05
    105.9700	  605.00	  588.62	-1893.05	  382.98
    106.0700	  553.00	  588.98	-1945.42	  382.91
    106.1700	  566.00	  590.27	-1933.70	  382.84
    106.2700	  597.00	  592.48	-1904.92	  382.78
    106.3700	  595.00	  595.65	-1910.08	  382.71
    106.4700	  601.00	  599.81	-1908.24	  382.65
    106.5700	  609.00	  605.04	-1905.48	  382.59
    106.6700	  621.00	  611.41	-1899.84	  382.54
    106.7700	  608.00	  618.97	-1920.40	  382.48
    106.8700	  642.00	  627.76	-1895.19	  382.43
    106.9700	  672.00	  637.77	-1875.21	  382.38
    107.0700	  701.00	  648.97	-1857.40	  382.33
    107.1700	  652.00	  661.25	-1918.68	  382.29
    107.2700	  662.00	  674.44	-1921.87	  382.25
    107.3700	  688.00	  688.31	-1909.74	  382.21
    107.4700	  653.00	  702.57	-1959.00	  382.17
    107.5700	  692.00	  716.84	-1934.28	  382.13
    107.6700	  679.00	  730.75	-1961.18	  382.10
    107.7700	  728.00	  743.82	-1925.25	  382.07
    107.8700	  751.00	  755.57	-1914.01	  382.04
    107.9700	  756.00	  765.58	-1919.01	  382.02
    108.0700	  724.00	  773.44	-1958.87	  382.00
    108.1700	  742.00	  779.00	-1946.43	  381.98
    108.2700	  758.00	  782.19	-1933.62	  381.96
    108.3700	  766.00	  783.20	-1926.63	  381.94
    108.4700	  704.00	  782.38	-1987.81	  381.93
    108.5700	  756.00	  780.20	-1933.63	  381.92
    108.6700	  788.00	  777.17	-1898.60	  381.92
    108.7700	  736.00	  773.80	-1947.23	  381.91
    108.8700	  753.00	  770.51	-1926.94	  381.91
    108.9700	  763.00	  767.64	-1914.07	  381.91
    109.0700	  731.00	  765.43	-1943.86	  381.92
    109.1700	  715.00	  763.99	-1958.43	  381.93
    109.2700	  675.00	  763.33	-1997.76	  381.94
    109.3700	  760.00	  763.31	-1912.74	  381.95
    109.4700	  755.00	  763.71	-1918.14	  381.97
    109.5700	  730.00	  764.19	-1943.63	  381.99
    109.6700	  712.00	  764.37	-1961.80	  382.01
    109.7700	  739.00	  763.80	-1934.23	  382.03
    109.8700	  737.00	  762.09	-1934.52	  382.06
    109.9700	  732.00	  758.91	-1936.34	  382.09
    110.0700	  731.00	  754.08	-1932.51	  382.13
    110.1700	  736.00	  747.53	-1920.96	  382.16
    110.2700	  727.00	  739.40	-1921.83	  382.20
    110.3700	  713.00	  729.91	-1926.35	  382.25
    110.4700	  702.00	  719.37	-1926.80	  382.30
    110.5700	  673.00	  708.10	-1944.53	  382.35
    110.6700	  724.00	  696.45	-1881.88	  382.40
    110.7700	  699.00	  684.72	-1895.16	  382.46
    110.8700	  644.00	  673.21	-1938.64	  382.52
    110.9700	  606.00	  662.16	-1965.59	  382.58
    111.0700	  661.00	  651.76	-1900.19	  382.65
    111.1700	  665.00	  642.17	-1886.61	  382.72
    111.2700	  642.00	  633.53	-1900.96	  382.79
    111.3700	  620.00	  625.89	-1915.32	  382.87
    111.4700	  642.00	  619.31	-1886.75	  382.95
    111.5700	  604.00	  613.80	-1919.23	  383.03
    111.6700	  635.00	  609.31	-1883.75	  383.12
    111.7700	  560.00	  605.82	-1955.25	  383.21
    111.8700	  607.00	  603.25	-1905.68	  383.30
    111.9700	  569.00	  601.52	-1941.96	  383.40
    112.0700	  585.00	  600.54	-1924.98	  383.50
    112.1700	  525.00	  600.22	-1984.65	  383.61
    112.2700	  582.00	  600.46	-1927.89	  383.72
    112.3700	  609.00	  601.16	-1901.59	  383.83
    112.4700	  609.00	  602.25	-1902.68	  383.95
    112.5700	  620.00	  603.63	-1893.06	  384.07
    112.6700	  602.00	  605.24	-1912.68	  384.19
    112.7700	  560.00	  607.03	-1956.46	  384.32
    112.8700	  602.00	  608.94	-1916.38	  384.45
    112.9700	  591.00	  610.96	-1929.40	  384.59
    113.0700	  603.00	  613.08	-1919.51	  384.73
    113.1700	  616.00	  615.30	-1908.74	  384.87
    113.2700	  607.00	  617.66	-1920.09	  385.02
    113.3700	  615.00	  620.19	-1914.62	  385.17
    113.4700	  589.00	  622.95	-1943.38	  385.32
    113.5700	  574.00	  625.99	-1961.42	  385.48
    113.6700	  622.00	  629.40	-1916.83	  385.65
    113.7700	  624.00	  633.26	-1918.69	  385.82
    113.8700	  654.00	  637.70	-1893.13	  385.99
    113.9700	  609.00	  642.86	-1943.30	  386.16
    114.0700	  670.00	  648.93	-1888.36	  386.34
    114.1700	  621.00	  656.14	-1944.57	  386.53
    114.2700	  652.00	  664.78	-1922.22	  386.72
    114.3700	  694.00	  675.26	-1890.69	  386.91
    114.4700	  708.00	  688.06	-1889.49	  387.11
    114.5700	  697.00	  703.80	-1916.23	  387.31
    114.6700	  735.00	  723.25	-1897.68	  387.52
    114.7700	  747.00	  747.38	-1909.81	  387.73
    114.8700	  829.00	  777.34	-1857.77	  387.94
    114.9700	  842.00	  814.52	-1881.96	  388.16
    115.0700	  896.00	  860.56	-1874.00	  388.38
    115.1700	 1001.00	  917.33	-1825.76	  388.61
    115.2700	 1058.00	  986.95	-1838.38	  388.85
    115.3700	 1190.00	 1071.77	-1791.21	  389.08
    115.4700	 1285.00	 1174.31	-1798.75	  389.33
    115.5700	 1420.00	 1297.19	-1786.63	  389.57
    115.6700	 1494.00	 1443.03	-1858.46	  389.83
    115.7700	 1823.00	 1614.37	-1700.81	  390.08
    115.8700	 1984.00	 1813.54	-1738.98	  390.34
    115.9700	 2224.00	 2042.40	-1727.84	  390.61
    116.0700	 2480.00	 2302.25	-1731.68	  390.88
    116.1700	 2878.00	 2593.58	-1625.02	  391.16
    116.2700	 3084.00	 2916.03	-1741.46	  391.44
    116.3700	 3477.00	 3268.16	-1700.59	  391.72
    116.4700	 3712.00	 3647.16	-1844.60	  392.01
    116.5700	 4157.00	 4049.06	-1801.49	  392.31
    116.6700	 4421.00	 4468.34	-1956.77	  392.61
    116.7700	 4795.00	 4898.28	-2012.72	  392.91
    116.8700	 5234.00	 5330.85	-2006.28	  393.22
    116.9700	 5605.00	 5756.66	-2061.09	  393.54
    117.0700	 6037.00	 6165.35	-2037.79	  393.86
    117.1700	 6360.00	 6545.72	-2095.15	  394.19
    117.2700	 6706.00	 6886.25	-2089.68	  394.52
    117.3700	 6860.00	 7175.51	-2224.95	  394.86
    117.4700	 7298.00	 7402.77	-2014.20	  395.20
    117.5700	 7332.00	 7559.01	-2136.44	  395.55
    117.6700	 7480.00	 7637.73	-2067.17	  395.90
    117.7700	 7363.00	 7635.79	-2182.23	  396.26
    117.8700	 7322.00	 7553.67	-2141.11	  396.62
    117.9700	 7320.00	 7395.48	-1984.91	  396.99
    118.0700	 7131.00	 7168.43	-1946.86	  397.36
    118.1700	 6728.00	 6882.05	-2063.49	  397.74
    118.2700	 6432.00	 6547.18	-2024.62	  398.13
    118.3700	 5988.00	 6175.18	-2096.61	  398.52
    118.4700	 5608.00	 5777.41	-2078.84	  398.92
    118.5700	 5216.00	 5364.68	-2058.11	  399.32
    118.6700	 4929.00	 4946.93	-1927.36	  399.73
    118.7700	 4631.00	 4532.86	-1811.29	  400.14
    118.8700	 4317.00	 4129.92	-1722.35	  400.56
    118.9700	 3931.00	 3744.33	-1722.76	  400.99
    119.0700	 3655.00	 3380.91	-1635.35	  401.42
    119.1700	 3309.00	 3043.20	-1643.63	  401.85
    119.2700	 2875.00	 2733.35	-1767.79	  402.30
    119.3700	 2647.00	 2452.46	-1714.89	  402.75
    119.4700	 2417.00	 2200.71	-1693.15	  403.20
    119.5700	 2142.00	 1977.45	-1744.88	  403.66
    119.6700	 1966.00	 1781.41	-1724.85	  404.13
    119.7700	 1734.00	 1610.80	-1786.23	  404.60
    119.8700	 1590.00	 1463.51	-1782.94	  405.08
    119.9700	 1479.00	 1337.29	-1767.73	  405.57
    120.0700	 1302.00	 1229.81	-1837.25	  406.06
    120.1700	 1228.00	 1138.77	-1820.20	  406.56
    120.2700	 1161.00	 1061.93	-1810.37	  407.06
    120.3700	 1038.00	  997.27	-1868.70	  407.57
    120.4700	 1039.00	  942.94	-1813.37	  408.09
    120.5700	  910.00	  897.31	-1896.74	  408.61
    120.6700	  891.00	  858.98	-1877.41	  409.14
    120.7700	  868.00	  826.73	-1868.16	  409.68
    120.8700	  839.00	  799.57	-1870.00	  410.22
    120.9700	  797.00	  776.65	-1889.09	  410.77
    121.0700	  803.00	  757.31	-1863.74	  411.32
    121.1700	  734.00	  740.98	-1916.42	  411.89
    121.2700	  745.00	  727.23	-1891.66	  412.46
    121.3700	  706.00	  715.69	-1919.12	  413.03
    121.4700	  724.00	  706.08	-1891.52	  413.61
    121.5700	  676.00	  698.18	-1931.61	  414.20
    121.6700	  637.00	  691.79	-1964.22	  414.80
    121.7700	  620.00	  686.77	-1976.20	  415.40
    121.8700	  685.00	  683.00	-1907.43	  416.01
    121.9700	  679.00	  680.38	-1910.81	  416.63
    122.0700	  659.00	  678.82	-1929.26	  417.25
    122.1700	  639.00	  678.26	-1948.69	  417.88
    122.2700	  685.00	  678.63	-1903.06	  418.52
    122.3700	  650.00	  679.86	-1939.30	  419.17
    122.4700	  632.00	  681.91	-1959.35	  419.82
    122.5700	  656.00	  684.72	-1938.15	  420.48
    122.6700	  672.00	  688.22	-1925.65	  421.14
    122.7700	  685.00	  692.35	-1916.78	  421.82
    122.8700	  635.00	  697.04	-1971.47	  422.50
    122.9700	  670.00	  702.21	-1941.65	  423.18
    123.0700	  679.00	  707.79	-1938.23	  423.88
    123.1700	  706.00	  713.69	-1917.12	  424.58
    123.2700	  700.00	  719.80	-1929.24	  425.29
    123.3700	  739.00	  726.03	-1896.47	  426.01
    123.4700	  714.00	  732.27	-1927.70	  426.74
    123.5700	  734.00	  738.40	-1913.84	  427.47
    123.6700	  675.00	  744.33	-1978.76	  428.21
    123.7700	  760.00	  749.93	-1899.37	  428.96
    123.8700	  784.00	  755.13	-1880.56	  429.71
    123.9700	  735.00	  759.83	-1934.27	  430.48
    124.0700	  762.00	  764.00	-1911.43	  431.25
    124.1700	  775.00	  767.59	-1902.02	  432.03
    124.2700	  776.00	  770.58	-1904.01	  432.81
    124.3700	  719.00	  773.04	-1963.48	  433.61
    124.4700	  764.00	  774.99	-1920.43	  434.41
    124.5700	  776.00	  776.48	-1909.91	  435.22
    124.6700	  757.00	  777.57	-1930.00	  436.04
    124.7700	  711.00	  778.30	-1976.74	  436.87
    124.8700	  804.00	  778.75	-1884.18	  437.70
    124.9700	  756.00	  565.85	-1719.28	  438.54
    125.0700	  745.00	  566.70	-1909.43	  439.39
    125.1700	  693.00	  567.56	-1909.43	  440.25
    125.2700	  770.00	  568.42	-1909.43	  441.12
    125.3700	  748.00	  569.30	-1909.43	  442.00
    125.4700	  717.00	  570.18	-1909.43	  442.88
    125.5700	  696.00	  571.08	-1909.43	  443.77
    125.6700	  723.00	  571.98	-1909.43	  444.67
    125.7700	  726.00	  572.89	-1909.43	  445.58
    125.8700	  776.00	  573.80	-1909.43	  446.50
    125.9700	  721.00	  574.73	-1909.43	  447.43
    126.0700	  706.00	  575.67	-1909.43	  448.36
    126.1700	  685.00	  576.61	-1909.43	  449.31
    126.2700	  658.00	  577.56	-1909.43	  450.26
    126.3700	  699.00	  578.52	-1909.43	  451.22
    126.4700	  667.00	  579.49	-1909.43	  452.19
    126.5700	  648.00	  580.47	-1909.43	  453.17
    126.6700	  688.00	  581.46	-1909.43	  454.16
    126.7700	  634.00	  582.46	-1909.43	  455.15
    126.8700	  613.00	  583.46	-1909.43	  456.16
    126.9700	  685.00	  584.48	-1909.43	  457.17
    127.0700	  630.00	  585.50	-1909.43	  458.20
    127.1700	  647.00	  586.53	-1909.43	  459.23
    127.2700	  595.00	  587.57	-1909.43	  460.27
    127.3700	  648.00	  588.63	-1909.43	  461.32
    127.4700	  573.00	  589.69	-1909.43	  462.38
    127.5700	  586.00	  590.75	-1909.43	  463.45
    127.6700	  602.00	  591.83	-1909.43	  464.53
    127.7700	  665.00	  592.92	-1909.43	  465.62
    127.8700	  616.00	  594.02	-1909.43	  466.72
    127.9700	  622.00	  595.13	-1909.43	  467.82
    128.0700	  652.00	  596.24	-1909.43	  468.94
    128.1700	  643.00	  597.37	-1909.43	  470.06
    128.2700	  652.00	  598.50	-1909.43	  471.20
    128.3700	  653.00	  599.65	-1909.43	  472.35
    128.4700	  625.00	  600.80	-1909.43	  473.50
    128.5700	    0.00	  601.97	-1909.43	  474.67
    128.6700	    0.00	  603.14	-1909.43	  475.84
     12.4082	        	        	        	        	       0	(  0  0  2)	  0  1
     12.4082	        	        	        	        	    -477	(  0  0  2)	  0  1
     25.0672	        	        	        	        	       0	(  0  0  4)	  0  1
     25.0672	        	        	        	        	    -477	(  0  0  4)	  0  1
     28.5188	        	        	        	        	       0	(  1  0  0)	  0  1
     28.5188	        	        	        	        	    -477	(  1  0  0)	  0  1
     29.2206	        	        	        	        	       0	(  1  0  1)	  0  1
     29.2206	        	        	        	        	    -477	(  1  0  1)	  0  1
     31.2401	        	        	        	        	       0	(  1  0  2)	  0  1
     31.2401	        	        	        	        	    -477	(  1  0  2)	  0  1
     34.3691	        	        	        	        	       0	(  1  0  3)	  0  1
     34.3691	        	        	        	        	    -477	(  1  0  3)	  0  1
     38.0482	        	        	        	        	       0	(  0  0  6)	  0  1
     38.0482	        	        	        	        	    -477	(  0  0  6)	  0  1
     38.3728	        	        	        	        	       0	(  1  0  4)	  0  1
     38.3728	        	        	        	        	    -477	(  1  0  4)	  0  1
     43.0547	        	        	        	        	       0	(  1  0  5)	  0  1
     43.0547	        	        	        	        	    -477	(  1  0  5)	  0  1
     48.2752	        	        	        	        	       0	(  1  0  6)	  0  1
     48.2752	        	        	        	        	    -477	(  1  0  6)	  0  1
     50.5916	        	        	        	        	       0	(  1  1  0)	  0  1
     50.5916	        	        	        	        	    -477	(  1  1  0)	  0  1
     51.5618	        	        	        	        	       0	(  0  0  8)	  0  1
     51.5618	        	        	        	        	    -477	(  0  0  8)	  0  1
     52.3276	        	        	        	        	       0	(  1  1  2)	  0  1
     52.3276	        	        	        	        	    -477	(  1  1  2)	  0  1
     53.9466	        	        	        	        	       0	(  1  0  7)	  0  1
     53.9466	        	        	        	        	    -477	(  1  0  7)	  0  1
     57.3135	        	        	        	        	       0	(  1  1  4)	  0  1
     57.3135	        	        	        	        	    -477	(  1  1  4)	  0  1
     59.1476	        	        	        	        	       0	(  2  0  0)	  0  1
     59.1476	        	        	        	        	    -477	(  2  0  0)	  0  1
     59.5423	        	        	        	        	       0	(  2  0  1)	  0  1
     59.5423	        	        	        	        	    -477	(  2  0  1)	  0  1
     60.0231	        	        	        	        	       0	(  1  0  8)	  0  1
     60.0231	        	        	        	        	    -477	(  1  0  8)	  0  1
     60.7171	        	        	        	        	       0	(  2  0  2)	  0  1
     60.7171	        	        	        	        	    -477	(  2  0  2)	  0  1
     62.6460	        	        	        	        	       0	(  2  0  3)	  0  1
     62.6460	        	        	        	        	    -477	(  2  0  3)	  0  1
     65.0704	        	        	        	        	       0	(  1  1  6)	  0  1
     65.0704	        	        	        	        	    -477	(  1  1  6)	  0  1
     65.2920	        	        	        	        	       0	(  2  0  4)	  0  1
     65.2920	        	        	        	        	    -477	(  2  0  4)	  0  1
     65.9004	        	        	        	        	       0	(  0  0 10)	  0  1
     65.9004	        	        	        	        	    -477	(  0  0 10)	  0  1
     66.4915	        	        	        	        	       0	(  1  0  9)	  0  1
     66.4915	        	        	        	        	    -477	(  1  0  9)	  0  1
     68.6145	        	        	        	        	       0	(  2  0  5)	  0  1
     68.6145	        	        	        	        	    -477	(  2  0  5)	  0  1
     72.5771	        	        	        	        	       0	(  2  0  6)	  0  1
     72.5771	        	        	        	        	    -477	(  2  0  6)	  0  1
     73.3671	        	        	        	        	       0	(  1  0 10)	  0  1
     73.3671	        	        	        	        	    -477	(  1  0 10)	  0  1
     75.1969	        	        	        	        	       0	(  1  1  8)	  0  1
     75.1969	        	        	        	        	    -477	(  1  1  8)	  0  1
     77.1537	        	        	        	        	       0	(  2  0  7)	  0  1
     77.1537	        	        	        	        	    -477	(  2  0  7)	  0  1
     80.6941	        	        	        	        	       0	(  1  0 11)	  0  1
     80.6941	        	        	        	        	    -477	(  1  0 11)	  0  1
     81.5223	        	        	        	        	       0	(  0  0 12)	  0  1
     81.5223	        	        	        	        	    -477	(  0  0 12)	  0  1
     81.5721	        	        	        	        	       0	(  2  1  0)	  0  1
     81.5721	        	        	        	        	    -477	(  2  1  0)	  0  1
     81.9155	        	        	        	        	       0	(  2  1  1)	  0  1
     81.9155	        	        	        	        	    -477	(  2  1  1)	  0  1
     82.3353	        	        	        	        	       0	(  2  0  8)	  0  1
     82.3353	        	        	        	        	    -477	(  2  0  8)	  0  1
     82.9440	        	        	        	        	       0	(  2  1  2)	  0  1
     82.9440	        	        	        	        	    -477	(  2  1  2)	  0  1
     84.6533	        	        	        	        	       0	(  2  1  3)	  0  1
     84.6533	        	        	        	        	    -477	(  2  1  3)	  0  1
     87.0387	        	        	        	        	       0	(  2  1  4)	  0  1
     87.0387	        	        	        	        	    -477	(  2  1  4)	  0  1
     87.5938	        	        	        	        	       0	(  1  1 10)	  0  1
     87.5938	        	        	        	        	    -477	(  1  1 10)	  0  1
     88.1354	        	        	        	        	       0	(  2  0  9)	  0  1
     88.1354	        	        	        	        	    -477	(  2  0  9)	  0  1
     88.5514	        	        	        	        	       0	(  1  0 12)	  0  1
     88.5514	        	        	        	        	    -477	(  1  0 12)	  0  1
     90.0991	        	        	        	        	       0	(  2  1  5)	  0  1
     90.0991	        	        	        	        	    -477	(  2  1  5)	  0  1
     93.8412	        	        	        	        	       0	(  2  1  6)	  0  1
     93.8412	        	        	        	        	    -477	(  2  1  6)	  0  1
     94.5991	        	        	        	        	       0	(  2  0 10)	  0  1
     94.5991	        	        	        	        	    -477	(  2  0 10)	  0  1
     95.6097	        	        	        	        	       0	(  3  0  0)	  0  1
     95.6097	        	        	        	        	    -477	(  3  0  0)	  0  1
     95.9514	        	        	        	        	       0	(  3  0  1)	  0  1
     95.9514	        	        	        	        	    -477	(  3  0  1)	  0  1
     96.9779	        	        	        	        	       0	(  3  0  2)	  0  1
     96.9779	        	        	        	        	    -477	(  3  0  2)	  0  1
     97.0679	        	        	        	        	       0	(  1  0 13)	  0  1
     97.0679	        	        	        	        	    -477	(  1  0 13)	  0  1
     98.2868	        	        	        	        	       0	(  2  1  7)	  0  1
     98.2868	        	        	        	        	    -477	(  2  1  7)	  0  1
     98.6939	        	        	        	        	       0	(  3  0  3)	  0  1
     98.6939	        	        	        	        	    -477	(  3  0  3)	  0  1
     99.2690	        	        	        	        	       0	(  0  0 14)	  0  1
     99.2690	        	        	        	        	    -477	(  0  0 14)	  0  1
    101.1101	        	        	        	        	       0	(  3  0  4)	  0  1
    101.1101	        	        	        	        	    -477	(  3  0  4)	  0  1
    101.8176	        	        	        	        	       0	(  2  0 11)	  0  1
    101.8176	        	        	        	        	    -477	(  2  0 11)	  0  1
    102.6554	        	        	        	        	       0	(  1  1 12)	  0  1
    102.6554	        	        	        	        	    -477	(  1  1 12)	  0  1
    103.4823	        	        	        	        	       0	(  2  1  8)	  0  1
    103.4823	        	        	        	        	    -477	(  2  1  8)	  0  1
    104.2474	        	        	        	        	       0	(  3  0  5)	  0  1
    104.2474	        	        	        	        	    -477	(  3  0  5)	  0  1
    106.4561	        	        	        	        	       0	(  1  0 14)	  0  1
    106.4561	        	        	        	        	    -477	(  1  0 14)	  0  1
    108.1436	        	        	        	        	       0	(  3  0  6)	  0  1
    108.1436	        	        	        	        	    -477	(  3  0  6)	  0  1
    109.5147	        	        	        	        	       0	(  2  1  9)	  0  1
    109.5147	        	        	        	        	    -477	(  2  1  9)	  0  1
    109.9568	        	        	        	        	       0	(  2  0 12)	  0  1
    109.9568	        	        	        	        	    -477	(  2  0 12)	  0  1
    112.8656	        	        	        	        	       0	(  3  0  7)	  0  1
    112.8656	        	        	        	        	    -477	(  3  0  7)	  0  1
    116.5417	        	        	        	        	       0	(  2  1 10)	  0  1
    116.5417	        	        	        	        	    -477	(  2  1 10)	  0  1
    117.0933	        	        	        	        	       0	(  1  0 15)	  0  1
    117.0933	        	        	        	        	    -477	(  1  0 15)	  0  1
    117.6733	        	        	        	        	       0	(  2  2  0)	  0  1
    117.6733	        	        	        	        	    -477	(  2  2  0)	  0  1
    118.5309	        	        	        	        	       0	(  3  0  8)	  0  1
    118.5309	        	        	        	        	    -477	(  3  0  8)	  0  1
    119.2211	        	        	        	        	       0	(  2  2  2)	  0  1
    119.2211	        	        	        	        	    -477	(  2  2  2)	  0  1
    119.3236	        	        	        	        	       0	(  2  0 13)	  0  1
    119.3236	        	        	        	        	    -477	(  2  0 13)	  0  1
    121.1476	        	        	        	        	       0	(  0  0 16)	  0  1
    121.1476	        	        	        	        	    -477	(  0  0 16)	  0  1
    121.8566	        	        	        	        	       0	(  1  1 14)	  0  1
    121.8566	        	        	        	        	    -477	(  1  1 14)	  0  1
    124.0176	        	        	        	        	       0	(  2  2  4)	  0  1
    124.0176	        	        	        	        	    -477	(  2  2  4)	  0  1
    124.8590	        	        	        	        	       0	(  2  1 11)	  0  1
    124.8590	        	        	        	        	    -477	(  2  1 11)	  0  1
    125.3517	        	        	        	        	       0	(  3  0  9)	  0  1
    125.3517	        	        	        	        	    -477	(  3  0  9)	  0  1
    125.9248	        	        	        	        	       0	(  3  1  0)	  0  1
    125.9248	        	        	        	        	    -477	(  3  1  0)	  0  1
    126.3462	        	        	        	        	       0	(  3  1  1)	  0  1
    126.3462	        	        	        	        	    -477	(  3  1  1)	  0  1
    127.6245	        	        	        	        	       0	(  3  1  2)	  0  1
    127.6245	        	        	        	        	    -477	(  3  1  2)	  0  1
    129.7589	        	        	        	        	       0	(  1  0 16)	  0  1
    129.7589	        	        	        	        	    -477	(  1  0 16)	  0  1
    129.8058	        	        	        	        	       0	(  3  1  3)	  0  1
    129.8058	        	        	        	        	    -477	(  3  1  3)	  0  1
    130.5501	        	        	        	        	       0	(  2  0 14)	  0  1
    130.5501	        	        	        	        	    -477	(  2  0 14)	  0  1
    132.7077	        	        	        	        	       0	(  2  2  6)	  0  1
    132.7077	        	        	        	        	    -477	(  2  2  6)	  0  1
    132.9827	        	        	        	        	       0	(  3  1  4)	  0  1
    132.9827	        	        	        	        	    -477	(  3  1  4)	  0  1
    133.7467	        	        	        	        	       0	(  3  0 10)	  0  1
    133.7467	        	        	        	        	    -477	(  3  0 10)	  0  1
    135.0890	        	        	        	        	       0	(  2  1 12)	  0  1
    135.0890	        	        	        	        	    -477	(  2  1 12)	  0  1
    137.3294	        	        	        	        	       0	(  3  1  5)	  0  1
    137.3294	        	        	        	        	    -477	(  3  1  5)	  0  1
    143.1928	        	        	        	        	       0	(  3  1  6)	  0  1
    143.1928	        	        	        	        	    -477	(  3  1  6)	  0  1
    144.7165	        	        	        	        	       0	(  3  0 11)	  0  1
    144.7165	        	        	        	        	    -477	(  3  0 11)	  0  1
    145.3342	        	        	        	        	       0	(  2  0 15)	  0  1
    145.3342	        	        	        	        	    -477	(  2  0 15)	  0  1
    146.6897	        	        	        	        	       0	(  1  0 17)	  0  1
    146.6897	        	        	        	        	    -477	(  1  0 17)	  0  1
    147.6412	        	        	        	        	       0	(  2  2  8)	  0  1
    147.6412	        	        	        	        	    -477	(  2  2  8)	  0  1
    148.9641	        	        	        	        	       0	(  2  1 13)	  0  1
    148.9641	        	        	        	        	    -477	(  2  1 13)	  0  1
    151.4003	        	        	        	        	       0	(  3  1  7)	  0  1
    151.4003	        	        	        	        	    -477	(  3  1  7)	  0  1
    152.1783	        	        	        	        	       0	(  1  1 16)	  0  1
    152.1783	        	        	        	        	    -477	(  1  1 16)	  0  1
    157.1405	        	        	        	        	       0	(  0  0 18)	  0  1
    157.1405	        	        	        	        	    -477	(  0  0 18)	  0  1
    162.4066	        	        	        	        	       0	(  3  0 12)	  0  1
    162.4066	        	        	        	        	    -477	(  3  0 12)	  0  1
    162.5714	        	        	        	        	       0	(  4  0  0)	  0  1
    162.5714	        	        	        	        	    -477	(  4  0  0)	  0  1
    163.7516	        	        	        	        	       0	(  4  0  1)	  0  1
    163.7516	        	        	        	        	    -477	(  4  0  1)	  0  1
    165.3212	        	        	        	        	       0	(  3  1  8)	  0  1
    165.3212	        	        	        	        	    -477	(  3  1  8)	  0  1
    167.9532	        	        	        	        	       0	(  4  0  2)	  0  1
    167.9532	        	        	        	        	    -477	(  4  0  2)	  0  1
