MSG Master    CELL:    5.87453   5.87453  23.06242   90.0000   90.0000  120.0000   SPGR: P 63/m m c             TEMP:    435.65
  2   1280     2.52000     0.00000    -0.08737     0.00000     0.00000    0
    95    95     0     0     2
       0.00000      10.00000
     125.00000     130.00000
 2Theta	Yobs	Ycal	Yobs-Ycal	Backg	Posr	(hkl)	K
      0.7700	    0.00	 1044.86	-2338.50	  898.60
      0.8700	    0.00	 1041.14	-2338.50	  894.88
      0.9700	   53.00	 1037.45	-2338.50	  891.19
      1.0700	   40.00	 1033.78	-2338.50	  887.51
      1.1700	   53.00	 1030.13	-2338.50	  883.87
      1.2700	   50.00	 1026.50	-2338.50	  880.24
      1.3700	   56.00	 1022.90	-2338.50	  876.64
      1.4700	   93.00	 1019.33	-2338.50	  873.06
      1.5700	  317.00	 1015.77	-2338.50	  869.51
      1.6700	  435.00	 1012.24	-2338.50	  865.98
      1.7700	  604.00	 1008.73	-2338.50	  862.47
      1.8700	  682.00	 1005.25	-2338.50	  858.99
      1.9700	  741.00	 1001.79	-2338.50	  855.53
      2.0700	  790.00	  998.35	-2338.50	  852.09
      2.1700	  810.00	  994.93	-2338.50	  848.67
      2.2700	  768.00	  991.54	-2338.50	  845.28
      2.3700	  736.00	  988.17	-2338.50	  841.91
      2.4700	  732.00	  984.82	-2338.50	  838.56
      2.5700	  673.00	  981.50	-2338.50	  835.24
      2.6700	  675.00	  978.19	-2338.50	  831.93
      2.7700	  646.00	  974.91	-2338.50	  828.65
      2.8700	  612.00	  971.65	-2338.50	  825.39
      2.9700	  649.00	  968.42	-2338.50	  822.15
      3.0700	  583.00	  965.20	-2338.50	  818.94
      3.1700	  578.00	  962.01	-2338.50	  815.75
      3.2700	  732.00	  958.84	-2338.50	  812.57
      3.3700	  944.00	  955.68	-2338.50	  809.42
      3.4700	 1061.00	  952.56	-2338.50	  806.29
      3.5700	 1238.00	  949.45	-2338.50	  803.19
      3.6700	 1305.00	  946.36	-2338.50	  800.10
      3.7700	 1451.00	  943.30	-2338.50	  797.04
      3.8700	 1440.00	  940.25	-2338.50	  793.99
      3.9700	 1627.00	  937.23	-2338.50	  790.97
      4.0700	 1637.00	  934.23	-2338.50	  787.97
      4.1700	 1740.00	  931.25	-2338.50	  784.99
      4.2700	 1726.00	  928.29	-2338.50	  782.03
      4.3700	 1660.00	  925.35	-2338.50	  779.09
      4.4700	 1595.00	  922.43	-2338.50	  776.17
      4.5700	 1580.00	  919.53	-2338.50	  773.27
      4.6700	 1533.00	  916.65	-2338.50	  770.39
      4.7700	 1526.00	  913.79	-2338.50	  767.53
      4.8700	 1429.00	  910.96	-2338.50	  764.69
      4.9700	 1436.00	  908.14	-2338.50	  761.88
      5.0700	 1414.00	  905.34	-2338.50	  759.08
      5.1700	 1354.00	  902.56	-2338.50	  756.30
      5.2700	 1304.00	  899.81	-2338.50	  753.54
      5.3700	 1305.00	  897.07	-2338.50	  750.80
      5.4700	 1243.00	  894.35	-2338.50	  748.09
      5.5700	 1220.00	  891.65	-2338.50	  745.39
      5.6700	 1244.00	  888.97	-2338.50	  742.71
      5.7700	 1162.00	  886.31	-2338.50	  740.05
      5.8700	 1190.00	  883.67	-2338.50	  737.41
      5.9700	 1149.00	  881.05	-2338.50	  734.78
      6.0700	 1136.00	  878.44	-2338.50	  732.18
      6.1700	 1116.00	  875.86	-2338.50	  729.60
      6.2700	 1128.00	  873.29	-2338.50	  727.03
      6.3700	 1094.00	  870.75	-2338.50	  724.49
      6.4700	 1017.00	  868.22	-2338.50	  721.96
      6.5700	 1035.00	  865.71	-2338.50	  719.45
      6.6700	  955.00	  863.22	-2338.50	  716.96
      6.7700	 1051.00	  860.75	-2338.50	  714.49
      6.8700	  947.00	  858.30	-2338.50	  712.04
      6.9700	 1029.00	  855.86	-2338.50	  709.60
      7.0700	 1013.00	  853.45	-2338.50	  707.18
      7.1700	  889.00	  851.05	-2338.50	  704.78
      7.2700	  938.00	  848.67	-2338.50	  702.40
      7.3700	  903.00	  846.30	-2338.50	  700.04
      7.4700	  886.00	  843.96	-2338.50	  697.70
      7.5700	  856.00	  841.63	-2338.50	  695.37
      7.6700	  915.00	  839.32	-2338.50	  693.06
      7.7700	  903.00	  837.03	-2338.50	  690.77
      7.8700	  905.00	  834.76	-2338.50	  688.49
      7.9700	  891.00	  832.50	-2338.50	  686.24
      8.0700	  808.00	  830.26	-2338.50	  684.00
      8.1700	  842.00	  828.04	-2338.50	  681.78
      8.2700	  861.00	  825.83	-2338.50	  679.57
      8.3700	  838.00	  823.64	-2338.50	  677.38
      8.4700	  857.00	  821.47	-2338.50	  675.21
      8.5700	  877.00	  819.32	-2338.50	  673.06
      8.6700	  802.00	  817.18	-2338.50	  670.92
      8.7700	  843.00	  815.06	-2338.50	  668.80
      8.8700	  845.00	  812.96	-2338.50	  666.70
      8.9700	  800.00	  810.87	-2338.50	  664.61
      9.0700	  788.00	  808.80	-2338.50	  662.54
      9.1700	  828.00	  806.75	-2338.50	  660.48
      9.2700	  842.00	  804.71	-2338.50	  658.45
      9.3700	  789.00	  802.69	-2338.50	  656.43
      9.4700	  805.00	  800.68	-2338.50	  654.42
      9.5700	  809.00	  798.69	-2338.50	  652.43
      9.6700	  808.00	  796.72	-2338.50	  650.46
      9.7700	  774.00	  794.76	-2338.50	  648.50
      9.8700	  807.00	  792.82	-2338.50	  646.56
      9.9700	  828.00	  790.89	-2338.50	  644.63
     10.0700	  815.00	  790.98	-2314.48	  642.72
     10.1700	  827.00	  789.30	-2300.80	  640.83
     10.2700	  783.00	  787.68	-2343.18	  638.95
     10.3700	  798.00	  786.13	-2326.63	  637.09
     10.4700	  777.00	  784.67	-2346.17	  635.24
     10.5700	  763.00	  783.34	-2358.84	  633.41
     10.6700	  798.00	  782.19	-2322.69	  631.59
     10.7700	  783.00	  781.29	-2336.79	  629.79
     10.8700	  741.00	  780.74	-2378.24	  628.00
     10.9700	  744.00	  780.63	-2375.13	  626.23
     11.0700	  784.00	  781.01	-2335.51	  624.47
     11.1700	  755.00	  781.92	-2365.42	  622.73
     11.2700	  820.00	  783.36	-2301.86	  621.00
     11.3700	  747.00	  785.38	-2376.88	  619.29
     11.4700	  784.00	  788.05	-2342.55	  617.59
     11.5700	  834.00	  791.50	-2296.00	  615.90
     11.6700	  823.00	  795.95	-2311.45	  614.23
     11.7700	  818.00	  801.65	-2322.15	  612.58
     11.8700	  807.00	  808.89	-2340.39	  610.94
     11.9700	  799.00	  817.81	-2357.31	  609.31
     12.0700	  896.00	  828.03	-2270.53	  607.70
     12.1700	  887.00	  838.16	-2289.66	  606.10
     12.2700	  901.00	  845.28	-2282.78	  604.52
     12.3700	  941.00	  844.88	-2242.38	  602.95
     12.4700	  905.00	  833.53	-2267.03	  601.39
     12.5700	  784.00	  814.10	-2368.60	  599.85
     12.6700	  787.00	  793.82	-2345.32	  598.32
     12.7700	  734.00	  777.21	-2381.71	  596.80
     12.8700	  773.00	  765.06	-2330.56	  595.30
     12.9700	  742.00	  756.63	-2353.13	  593.81
     13.0700	  695.00	  750.80	-2394.30	  592.34
     13.1700	  728.00	  746.58	-2357.08	  590.88
     13.2700	  722.00	  743.29	-2359.79	  589.43
     13.3700	  737.00	  740.56	-2342.06	  587.99
     13.4700	  696.00	  738.16	-2380.66	  586.57
     13.5700	  774.00	  736.00	-2300.50	  585.16
     13.6700	  716.00	  734.00	-2356.50	  583.77
     13.7700	  682.00	  732.13	-2388.63	  582.38
     13.8700	  704.00	  730.36	-2364.86	  581.01
     13.9700	  757.00	  728.67	-2310.17	  579.66
     14.0700	  748.00	  727.05	-2317.55	  578.31
     14.1700	  763.00	  725.48	-2300.98	  576.98
     14.2700	  736.00	  723.96	-2326.46	  575.66
     14.3700	  737.00	  722.47	-2323.97	  574.35
     14.4700	  699.00	  721.03	-2360.53	  573.06
     14.5700	  746.00	  719.61	-2312.11	  571.77
     14.6700	  711.00	  718.23	-2345.73	  570.50
     14.7700	  681.00	  716.86	-2374.36	  569.25
     14.8700	  656.00	  715.53	-2398.03	  568.00
     14.9700	  702.00	  714.21	-2350.71	  566.77
     15.0700	  684.00	  712.92	-2367.42	  565.54
     15.1700	  742.00	  711.64	-2308.14	  564.33
     15.2700	  712.00	  710.39	-2336.89	  563.14
     15.3700	  690.00	  709.15	-2357.65	  561.95
     15.4700	  735.00	  707.92	-2311.42	  560.78
     15.5700	  705.00	  706.72	-2340.22	  559.61
     15.6700	  675.00	  705.53	-2369.03	  558.46
     15.7700	  672.00	  704.35	-2370.85	  557.32
     15.8700	  712.00	  703.19	-2329.69	  556.19
     15.9700	  676.00	  702.04	-2364.54	  555.08
     16.0700	  684.00	  700.91	-2355.41	  553.97
     16.1700	  666.00	  699.79	-2372.29	  552.88
     16.2700	  677.00	  698.68	-2360.18	  551.79
     16.3700	  722.00	  697.59	-2314.09	  550.72
     16.4700	  706.00	  696.50	-2329.00	  549.66
     16.5700	  723.00	  695.44	-2310.94	  548.61
     16.6700	  730.00	  694.38	-2302.88	  547.57
     16.7700	  692.00	  693.33	-2339.83	  546.54
     16.8700	  719.00	  692.30	-2311.80	  545.52
     16.9700	  690.00	  691.28	-2339.78	  544.52
     17.0700	  673.00	  690.27	-2355.77	  543.52
     17.1700	  658.00	  689.28	-2369.78	  542.54
     17.2700	  741.00	  688.29	-2285.79	  541.56
     17.3700	  700.00	  687.31	-2325.81	  540.60
     17.4700	  733.00	  686.35	-2291.85	  539.64
     17.5700	  701.00	  685.40	-2322.90	  538.70
     17.6700	  718.00	  684.46	-2304.96	  537.76
     17.7700	  680.00	  683.53	-2342.03	  536.84
     17.8700	  642.00	  682.61	-2379.11	  535.93
     17.9700	  673.00	  681.70	-2347.20	  535.02
     18.0700	  741.00	  680.80	-2278.30	  534.13
     18.1700	  672.00	  679.91	-2346.41	  533.25
     18.2700	  704.00	  679.03	-2313.53	  532.37
     18.3700	  683.00	  678.16	-2333.66	  531.51
     18.4700	  626.00	  677.31	-2389.81	  530.66
     18.5700	  678.00	  676.46	-2336.96	  529.81
     18.6700	  584.00	  675.62	-2430.12	  528.98
     18.7700	  666.00	  674.80	-2347.30	  528.15
     18.8700	  709.00	  673.98	-2303.48	  527.34
     18.9700	  690.00	  673.17	-2321.67	  526.53
     19.0700	  657.00	  672.37	-2353.87	  525.74
     19.1700	  660.00	  675.17	-2353.67	  524.95
     19.2700	  661.00	  674.47	-2351.97	  524.17
     19.3700	  660.00	  673.78	-2352.28	  523.40
     19.4700	  643.00	  673.10	-2368.60	  522.65
     19.5700	  677.00	  672.44	-2333.94	  521.90
     19.6700	  691.00	  671.79	-2319.29	  521.15
     19.7700	  691.00	  671.15	-2318.65	  520.42
     19.8700	  666.00	  670.52	-2343.02	  519.70
     19.9700	  674.00	  669.90	-2334.40	  518.98
     20.0700	  707.00	  669.30	-2300.80	  518.28
     20.1700	  642.00	  668.71	-2365.21	  517.58
     20.2700	  669.00	  668.19	-2337.69	  516.89
     20.3700	  627.00	  667.63	-2379.13	  516.21
     20.4700	  672.00	  667.08	-2333.58	  515.54
     20.5700	  691.00	  666.54	-2314.04	  514.88
     20.6700	  682.00	  666.02	-2322.52	  514.23
     20.7700	  646.00	  665.51	-2358.01	  513.58
     20.8700	  696.00	  665.01	-2307.51	  512.95
     20.9700	  638.00	  664.53	-2365.03	  512.32
     21.0700	  687.00	  664.07	-2315.57	  511.70
     21.1700	  676.00	  663.62	-2326.12	  511.08
     21.2700	  669.00	  663.18	-2332.68	  510.48
     21.3700	  694.00	  662.76	-2307.26	  509.88
     21.4700	  651.00	  662.36	-2349.86	  509.30
     21.5700	  685.00	  661.97	-2315.47	  508.72
     21.6700	  697.00	  661.61	-2303.11	  508.14
     21.7700	  669.00	  661.25	-2330.75	  507.58
     21.8700	  635.00	  660.92	-2364.42	  507.02
     21.9700	  666.00	  660.61	-2333.11	  506.47
     22.0700	  688.00	  660.32	-2310.82	  505.93
     22.1700	  606.00	  660.04	-2392.54	  505.40
     22.2700	  670.00	  659.79	-2328.29	  504.87
     22.3700	  680.00	  659.57	-2318.07	  504.35
     22.4700	  665.00	  659.58	-2333.07	  503.84
     22.5700	  669.00	  659.40	-2328.90	  503.34
     22.6700	  672.00	  659.26	-2325.76	  502.84
     22.7700	  630.00	  659.15	-2367.65	  502.36
     22.8700	  636.00	  659.06	-2361.56	  501.87
     22.9700	  702.00	  659.02	-2295.52	  501.40
     23.0700	  686.00	  659.01	-2311.51	  500.93
     23.1700	  656.00	  659.05	-2341.55	  500.47
     23.2700	  638.00	  659.14	-2359.64	  500.02
     23.3700	  684.00	  659.28	-2313.78	  499.57
     23.4700	  590.00	  659.48	-2407.98	  499.13
     23.5700	  690.00	  659.76	-2308.26	  498.70
     23.6700	  611.00	  660.13	-2387.63	  498.28
     23.7700	  692.00	  660.61	-2307.11	  497.86
     23.8700	  663.00	  661.23	-2336.73	  497.45
     23.9700	  644.00	  662.06	-2356.56	  497.04
     24.0700	  628.00	  663.17	-2373.67	  496.64
     24.1700	  666.00	  664.72	-2337.22	  496.25
     24.2700	  640.00	  666.94	-2365.44	  495.87
     24.3700	  677.00	  670.15	-2331.65	  495.49
     24.4700	  713.00	  674.71	-2300.21	  495.11
     24.5700	  704.00	  681.10	-2315.60	  494.75
     24.6700	  721.00	  689.41	-2306.91	  494.39
     24.7700	  784.00	  699.34	-2253.84	  494.04
     24.8700	  785.00	  709.86	-2263.36	  493.69
     24.9700	  768.00	  718.88	-2289.38	  493.35
     25.0700	  768.00	  723.21	-2293.71	  493.01
     25.1700	  715.00	  720.26	-2343.76	  492.68
     25.2700	  781.00	  711.42	-2268.92	  492.36
     25.3700	  737.00	  701.21	-2302.71	  492.04
     25.4700	  701.00	  692.93	-2330.43	  491.73
     25.5700	  693.00	  687.41	-2332.91	  491.43
     25.6700	  695.00	  684.49	-2327.99	  491.13
     25.7700	  716.00	  683.59	-2306.09	  490.84
     25.8700	  717.00	  684.12	-2305.62	  490.55
     25.9700	  673.00	  685.65	-2351.15	  490.27
     26.0700	  711.00	  687.95	-2315.45	  489.99
     26.1700	  711.00	  690.91	-2318.41	  489.72
     26.2700	  726.00	  694.53	-2307.03	  489.46
     26.3700	  713.00	  698.84	-2324.34	  489.20
     26.4700	  706.00	  703.94	-2336.44	  488.94
     26.5700	  685.00	  709.95	-2363.45	  488.70
     26.6700	  711.00	  717.04	-2344.54	  488.45
     26.7700	  729.00	  725.43	-2334.93	  488.22
     26.8700	  718.00	  735.42	-2355.92	  487.98
     26.9700	  743.00	  747.41	-2342.91	  487.76
     27.0700	  722.00	  761.93	-2378.43	  487.53
     27.1700	  730.00	  779.75	-2388.25	  487.32
     27.2700	  744.00	  801.95	-2396.45	  487.11
     27.3700	  800.00	  830.18	-2368.68	  486.90
     27.4700	  775.00	  867.41	-2430.91	  486.70
     27.5700	  823.00	  919.76	-2435.26	  486.50
     27.6700	  905.00	 1000.92	-2434.42	  486.31
     27.7700	  926.00	 1139.99	-2552.49	  486.12
     27.8700	 1100.00	 1391.65	-2630.15	  485.94
     27.9700	 1393.00	 1844.12	-2789.62	  485.77
     28.0700	 2036.00	 2612.14	-2914.64	  485.59
     28.1700	 3206.00	 3795.43	-2927.93	  485.43
     28.2700	 5499.00	 5385.31	-2224.81	  485.26
     28.3700	 7796.00	 7119.34	-1661.84	  485.11
     28.4700	 9354.00	 8386.36	-1370.86	  484.95
     28.5700	 9277.00	 8422.02	-1483.52	  484.80
     28.6700	 7602.00	 7138.23	-1874.73	  484.66
     28.7700	 5228.00	 5540.22	-2650.72	  484.52
     28.8700	 4152.00	 4531.11	-2717.61	  484.38
     28.9700	 4174.00	 4326.16	-2490.66	  484.25
     29.0700	 4962.00	 4654.20	-2030.70	  484.13
     29.1700	 5477.00	 5009.14	-1870.64	  484.00
     29.2700	 5156.00	 4875.65	-2058.15	  483.89
     29.3700	 3997.00	 4099.70	-2441.20	  483.77
     29.4700	 2888.00	 3066.64	-2517.14	  483.66
     29.5700	 2047.00	 2180.89	-2472.39	  483.56
     29.6700	 1436.00	 1580.31	-2482.81	  483.45
     29.7700	 1198.00	 1231.89	-2372.39	  483.36
     29.8700	 1007.00	 1046.17	-2377.67	  483.26
     29.9700	  959.00	  945.68	-2325.18	  483.17
     30.0700	  946.00	  885.21	-2277.71	  483.09
     30.1700	  837.00	  844.12	-2345.62	  483.01
     30.2700	  824.00	  814.05	-2328.55	  482.93
     30.3700	  811.00	  791.53	-2319.03	  482.86
     30.4700	  787.00	  775.09	-2326.59	  482.79
     30.5700	  765.00	  764.46	-2337.96	  482.72
     30.6700	  759.00	  760.32	-2339.82	  482.66
     30.7700	  773.00	  764.07	-2329.57	  482.60
     30.8700	  777.00	  776.91	-2338.41	  482.54
     30.9700	  761.00	  798.11	-2375.61	  482.49
     31.0700	  820.00	  823.26	-2341.76	  482.44
     31.1700	  852.00	  843.20	-2329.70	  482.40
     31.2700	  818.00	  845.34	-2365.84	  482.36
     31.3700	  816.00	  822.72	-2345.22	  482.32
     31.4700	  817.00	  784.92	-2306.42	  482.29
     31.5700	  837.00	  747.54	-2249.04	  482.25
     31.6700	  755.00	  718.58	-2302.08	  482.23
     31.7700	  774.00	  699.15	-2263.65	  482.20
     31.8700	  724.00	  687.16	-2301.66	  482.18
     31.9700	  724.00	  679.87	-2294.37	  482.16
     32.0700	  687.00	  675.19	-2326.69	  482.15
     32.1700	  708.00	  671.91	-2302.41	  482.14
     32.2700	  744.00	  669.46	-2263.96	  482.13
     32.3700	  695.00	  667.58	-2311.08	  482.12
     32.4700	  696.00	  666.16	-2308.66	  482.12
     32.5700	  734.00	  665.15	-2269.65	  482.12
     32.6700	  722.00	  664.51	-2281.01	  482.13
     32.7700	  695.00	  664.25	-2307.75	  482.13
     32.8700	  694.00	  664.40	-2308.90	  482.14
     32.9700	  717.00	  665.02	-2286.52	  482.15
     33.0700	  638.00	  666.14	-2366.64	  482.17
     33.1700	  727.00	  667.91	-2279.41	  482.19
     33.2700	  671.00	  670.56	-2338.06	  482.21
     33.3700	  727.00	  674.49	-2285.99	  482.23
     33.4700	  680.00	  680.49	-2338.99	  482.26
     33.5700	  703.00	  690.15	-2325.65	  482.29
     33.6700	  715.00	  706.38	-2329.88	  482.32
     33.7700	  757.00	  733.95	-2315.45	  482.35
     33.8700	  786.00	  779.39	-2331.89	  482.39
     33.9700	  901.00	  849.05	-2286.55	  482.43
     34.0700	 1032.00	  944.59	-2251.09	  482.47
     34.1700	 1115.00	 1056.88	-2280.38	  482.52
     34.2700	 1324.00	 1161.59	-2176.09	  482.56
     34.3700	 1403.00	 1220.21	-2155.71	  482.61
     34.4700	 1269.00	 1197.84	-2267.34	  482.66
     34.5700	 1159.00	 1101.59	-2281.09	  482.72
     34.6700	  981.00	  979.02	-2336.52	  482.77
     34.7700	  864.00	  869.81	-2344.31	  482.83
     34.8700	  814.00	  789.00	-2313.50	  482.89
     34.9700	  745.00	  736.22	-2329.72	  482.95
     35.0700	  700.00	  704.55	-2343.05	  483.02
     35.1700	  703.00	  686.17	-2321.67	  483.09
     35.2700	  748.00	  675.19	-2265.69	  483.15
     35.3700	  684.00	  668.15	-2322.65	  483.23
     35.4700	  666.00	  663.15	-2335.65	  483.30
     35.5700	  666.00	  659.39	-2331.89	  483.37
     35.6700	  630.00	  656.47	-2364.97	  483.45
     35.7700	  705.00	  654.15	-2287.65	  483.53
     35.8700	  641.00	  652.29	-2349.79	  483.61
     35.9700	  716.00	  650.80	-2273.30	  483.70
     36.0700	  608.00	  649.59	-2380.09	  483.78
     36.1700	  624.00	  648.63	-2363.13	  483.87
     36.2700	  647.00	  647.87	-2339.37	  483.96
     36.3700	  673.00	  647.28	-2312.78	  484.05
     36.4700	  690.00	  646.86	-2295.36	  484.14
     36.5700	  665.00	  646.59	-2320.09	  484.23
     36.6700	  650.00	  646.47	-2334.97	  484.33
     36.7700	  683.00	  646.51	-2302.01	  484.42
     36.8700	  681.00	  646.70	-2304.20	  484.52
     36.9700	  636.00	  647.09	-2349.59	  484.62
     37.0700	  677.00	  647.90	-2309.40	  484.73
     37.1700	  674.00	  648.82	-2313.32	  484.83
     37.2700	  689.00	  650.67	-2300.17	  484.93
     37.3700	  674.00	  652.62	-2317.12	  485.04
     37.4700	  644.00	  655.56	-2350.06	  485.15
     37.5700	  665.00	  660.10	-2333.60	  485.26
     37.6700	  690.00	  667.21	-2315.71	  485.37
     37.7700	  670.00	  678.40	-2346.90	  485.48
     37.8700	  692.00	  695.36	-2341.86	  485.60
     37.9700	  679.00	  719.52	-2379.02	  485.71
     38.0700	  733.00	  748.75	-2354.25	  485.83
     38.1700	  753.00	  784.45	-2369.95	  485.94
     38.2700	  847.00	  817.92	-2309.42	  486.06
     38.3700	  788.00	  838.86	-2389.36	  486.18
     38.4700	  854.00	  836.83	-2321.33	  486.30
     38.5700	  730.00	  810.81	-2419.31	  486.43
     38.6700	  782.00	  772.42	-2328.92	  486.55
     38.7700	  704.00	  734.58	-2369.08	  486.68
     38.8700	  630.00	  703.97	-2412.47	  486.80
     38.9700	  669.00	  682.12	-2351.62	  486.93
     39.0700	  682.00	  667.91	-2324.41	  487.06
     39.1700	  648.00	  659.21	-2349.71	  487.18
     39.2700	  643.00	  653.98	-2349.48	  487.31
     39.3700	  660.00	  650.74	-2329.24	  487.45
     39.4700	  680.00	  648.60	-2307.10	  487.58
     39.5700	  669.00	  645.80	-2315.30	  487.71
     39.6700	  642.00	  644.70	-2341.20	  487.84
     39.7700	  659.00	  643.86	-2323.36	  487.98
     39.8700	  616.00	  643.21	-2365.71	  488.11
     39.9700	  676.00	  642.71	-2305.21	  488.25
     40.0700	  653.00	  642.34	-2327.84	  488.39
     40.1700	  630.00	  642.05	-2350.55	  488.52
     40.2700	  695.00	  641.85	-2285.35	  488.66
     40.3700	  679.00	  641.72	-2301.22	  488.80
     40.4700	  648.00	  641.64	-2332.14	  488.94
     40.5700	  635.00	  641.61	-2345.11	  489.08
     40.6700	  617.00	  641.63	-2363.13	  489.22
     40.7700	  595.00	  641.69	-2385.19	  489.37
     40.8700	  621.00	  642.32	-2359.82	  489.51
     40.9700	  642.00	  642.47	-2338.97	  489.65
     41.0700	  662.00	  642.65	-2319.15	  489.79
     41.1700	  586.00	  642.88	-2395.38	  489.94
     41.2700	  668.00	  643.15	-2313.65	  490.08
     41.3700	  686.00	  643.47	-2295.97	  490.23
     41.4700	  666.00	  643.91	-2316.41	  490.37
     41.5700	  632.00	  644.35	-2350.85	  490.52
     41.6700	  614.00	  644.88	-2369.38	  490.67
     41.7700	  650.00	  645.51	-2334.01	  490.81
     41.8700	  599.00	  646.28	-2385.78	  490.96
     41.9700	  608.00	  647.23	-2377.73	  491.11
     42.0700	  630.00	  648.48	-2356.98	  491.26
     42.1700	  621.00	  650.22	-2367.72	  491.41
     42.2700	  617.00	  652.79	-2374.29	  491.55
     42.3700	  644.00	  656.79	-2351.29	  491.70
     42.4700	  653.00	  662.98	-2348.48	  491.85
     42.5700	  605.00	  672.46	-2405.96	  492.00
     42.6700	  658.00	  686.01	-2366.51	  492.15
     42.7700	  720.00	  703.75	-2322.25	  492.30
     42.8700	  699.00	  724.40	-2363.90	  492.45
     42.9700	  678.00	  744.45	-2404.95	  492.60
     43.0700	  756.00	  758.16	-2340.66	  492.75
     43.1700	  755.00	  759.71	-2343.21	  492.90
     43.2700	  737.00	  748.08	-2349.58	  493.05
     43.3700	  735.00	  728.53	-2332.03	  493.21
     43.4700	  691.00	  707.68	-2355.18	  493.36
     43.5700	  710.00	  689.60	-2318.10	  493.51
     43.6700	  683.00	  675.92	-2331.42	  493.66
     43.7700	  628.00	  666.34	-2376.84	  493.81
     43.8700	  668.00	  660.18	-2330.68	  493.96
     43.9700	  654.00	  656.40	-2340.90	  494.11
     44.0700	  680.00	  654.12	-2312.62	  494.26
     44.1700	  673.00	  652.91	-2318.41	  494.41
     44.2700	  683.00	  652.03	-2307.53	  494.56
     44.3700	  671.00	  651.44	-2318.94	  494.71
     44.4700	  640.00	  651.05	-2349.55	  494.86
     44.5700	  683.00	  650.80	-2306.30	  495.02
     44.6700	  591.00	  650.64	-2398.14	  495.17
     44.7700	  643.00	  650.57	-2346.07	  495.32
     44.8700	  632.00	  650.57	-2357.07	  495.47
     44.9700	  632.00	  650.62	-2357.12	  495.62
     45.0700	  659.00	  650.73	-2330.23	  495.76
     45.1700	  714.00	  651.14	-2275.64	  495.91
     45.2700	  683.00	  651.32	-2306.82	  496.06
     45.3700	  642.00	  651.53	-2348.03	  496.21
     45.4700	  688.00	  651.77	-2302.27	  496.36
     45.5700	  649.00	  652.04	-2341.54	  496.51
     45.6700	  682.00	  652.35	-2308.85	  496.66
     45.7700	  634.00	  652.68	-2357.18	  496.80
     45.8700	  686.00	  653.13	-2305.63	  496.95
     45.9700	  672.00	  653.52	-2320.02	  497.10
     46.0700	  685.00	  653.94	-2307.44	  497.24
     46.1700	  648.00	  654.40	-2344.90	  497.39
     46.2700	  669.00	  654.92	-2324.42	  497.53
     46.3700	  668.00	  655.46	-2325.96	  497.68
     46.4700	  712.00	  656.05	-2282.55	  497.82
     46.5700	  678.00	  656.49	-2316.99	  497.97
     46.6700	  620.00	  657.19	-2375.69	  498.11
     46.7700	  661.00	  658.13	-2335.63	  498.26
     46.8700	  641.00	  658.99	-2356.49	  498.40
     46.9700	  641.00	  659.97	-2357.47	  498.54
     47.0700	  634.00	  661.07	-2365.57	  498.68
     47.1700	  666.00	  662.37	-2334.87	  498.82
     47.2700	  632.00	  663.94	-2370.44	  498.96
     47.3700	  653.00	  665.95	-2351.45	  499.10
     47.4700	  651.00	  668.67	-2356.17	  499.24
     47.5700	  696.00	  672.52	-2315.02	  499.38
     47.6700	  671.00	  678.07	-2345.57	  499.52
     47.7700	  673.00	  685.98	-2351.48	  499.66
     47.8700	  678.00	  696.80	-2357.30	  499.79
     47.9700	  635.00	  710.70	-2414.20	  499.93
     48.0700	  719.00	  727.05	-2346.55	  500.07
     48.1700	  747.00	  744.04	-2335.54	  500.20
     48.2700	  760.00	  758.27	-2336.77	  500.34
     48.3700	  749.00	  765.57	-2355.07	  500.47
     48.4700	  754.00	  763.48	-2347.98	  500.60
     48.5700	  731.00	  753.66	-2361.16	  500.73
     48.6700	  723.00	  740.44	-2355.94	  500.87
     48.7700	  683.00	  728.08	-2383.58	  501.00
     48.8700	  667.00	  717.93	-2389.43	  501.13
     48.9700	  690.00	  711.26	-2359.76	  501.25
     49.0700	  688.00	  708.13	-2358.63	  501.38
     49.1700	  691.00	  708.16	-2355.66	  501.51
     49.2700	  695.00	  710.93	-2354.43	  501.64
     49.3700	  685.00	  716.17	-2369.67	  501.76
     49.4700	  689.00	  724.01	-2373.51	  501.89
     49.5700	  681.00	  735.31	-2392.81	  502.01
     49.6700	  741.00	  752.49	-2349.99	  502.13
     49.7700	  729.00	  781.15	-2390.65	  502.26
     49.8700	  852.00	  832.78	-2319.28	  502.38
     49.9700	  899.00	  927.65	-2367.15	  502.50
     50.0700	 1200.00	 1095.23	-2233.73	  502.62
     50.1700	 1480.00	 1367.72	-2226.22	  502.74
     50.2700	 1870.00	 1764.29	-2232.79	  502.85
     50.3700	 2452.00	 2268.01	-2154.51	  502.97
     50.4700	 2926.00	 2805.44	-2217.94	  503.09
     50.5700	 3306.00	 3241.90	-2274.40	  503.20
     50.6700	 3369.00	 3417.53	-2387.03	  503.31
     50.7700	 3045.00	 3249.24	-2542.74	  503.43
     50.8700	 2727.00	 2813.35	-2424.85	  503.54
     50.9700	 2198.00	 2275.38	-2415.88	  503.65
     51.0700	 1645.00	 1773.95	-2467.45	  503.76
     51.1700	 1334.00	 1383.33	-2387.83	  503.87
     51.2700	 1120.00	 1119.25	-2337.75	  503.97
     51.3700	  948.00	  962.04	-2352.54	  504.08
     51.4700	  919.00	  877.89	-2297.39	  504.19
     51.5700	  833.00	  835.35	-2340.85	  504.29
     51.6700	  785.00	  812.35	-2365.85	  504.39
     51.7700	  783.00	  796.09	-2351.59	  504.50
     51.8700	  795.00	  781.42	-2324.92	  504.60
     51.9700	  791.00	  767.65	-2315.15	  504.70
     52.0700	  764.00	  755.56	-2330.06	  504.80
     52.1700	  713.00	  745.74	-2371.24	  504.90
     52.2700	  780.00	  738.24	-2296.74	  504.99
     52.3700	  726.00	  732.64	-2345.14	  505.09
     52.4700	  749.00	  728.43	-2317.93	  505.18
     52.5700	  781.00	  725.38	-2282.88	  505.28
     52.6700	  739.00	  723.61	-2323.11	  505.37
     52.7700	  763.00	  723.48	-2298.98	  505.46
     52.8700	  759.00	  725.50	-2305.00	  505.55
     52.9700	  741.00	  730.43	-2327.93	  505.64
     53.0700	  805.00	  739.53	-2273.03	  505.72
     53.1700	  729.00	  754.72	-2364.22	  505.81
     53.2700	  816.00	  778.72	-2301.22	  505.90
     53.3700	  816.00	  814.76	-2337.26	  505.98
     53.4700	  850.00	  866.00	-2354.50	  506.06
     53.5700	  929.00	  934.37	-2343.87	  506.14
     53.6700	  998.00	 1019.11	-2359.61	  506.22
     53.7700	 1185.00	 1115.09	-2268.59	  506.30
     53.8700	 1234.00	 1210.42	-2314.92	  506.38
     53.9700	 1299.00	 1286.13	-2325.63	  506.46
     54.0700	 1350.00	 1319.92	-2308.42	  506.53
     54.1700	 1355.00	 1299.19	-2282.69	  506.60
     54.2700	 1232.00	 1231.74	-2338.24	  506.68
     54.3700	 1171.00	 1139.29	-2306.79	  506.75
     54.4700	 1023.00	 1042.76	-2358.26	  506.82
     54.5700	  892.00	  955.59	-2402.09	  506.89
     54.6700	  843.00	  884.19	-2379.69	  506.95
     54.7700	  845.00	  830.11	-2323.61	  507.02
     54.8700	  768.00	  791.83	-2362.33	  507.08
     54.9700	  728.00	  766.29	-2376.79	  507.15
     55.0700	  755.00	  750.09	-2333.59	  507.21
     55.1700	  755.00	  740.29	-2323.79	  507.27
     55.2700	  714.00	  734.70	-2359.20	  507.33
     55.3700	  767.00	  731.87	-2303.37	  507.39
     55.4700	  726.00	  730.96	-2343.46	  507.44
     55.5700	  718.00	  731.53	-2352.03	  507.50
     55.6700	  708.00	  733.40	-2363.90	  507.55
     55.7700	  723.00	  736.54	-2352.04	  507.61
     55.8700	  723.00	  741.05	-2356.55	  507.66
     55.9700	  738.00	  747.19	-2347.69	  507.71
     56.0700	  749.00	  755.47	-2344.97	  507.76
     56.1700	  753.00	  766.88	-2352.38	  507.80
     56.2700	  760.00	  783.31	-2361.81	  507.85
     56.3700	  792.00	  808.22	-2354.72	  507.89
     56.4700	  766.00	  847.46	-2419.96	  507.94
     56.5700	  911.00	  909.98	-2337.48	  507.98
     56.6700	 1041.00	 1007.80	-2305.30	  508.02
     56.7700	 1162.00	 1154.39	-2330.89	  508.06
     56.8700	 1342.00	 1360.99	-2357.49	  508.09
     56.9700	 1669.00	 1631.11	-2300.61	  508.13
     57.0700	 1964.00	 1954.13	-2328.63	  508.16
     57.1700	 2420.00	 2299.17	-2217.67	  508.20
     57.2700	 2642.00	 2610.68	-2307.18	  508.23
     57.3700	 2829.00	 2812.92	-2322.42	  508.26
     57.4700	 2817.00	 2839.18	-2360.68	  508.29
     57.5700	 2656.00	 2679.37	-2361.87	  508.31
     57.6700	 2316.00	 2389.43	-2411.93	  508.34
     57.7700	 1963.00	 2048.00	-2423.50	  508.36
     57.8700	 1622.00	 1717.47	-2433.97	  508.39
     57.9700	 1350.00	 1434.84	-2423.34	  508.41
     58.0700	 1165.00	 1215.41	-2388.91	  508.43
     58.1700	 1046.00	 1059.02	-2351.52	  508.45
     58.2700	  906.00	  956.54	-2389.04	  508.47
     58.3700	  853.00	  895.98	-2381.48	  508.48
     58.4700	  862.00	  867.00	-2343.50	  508.50
     58.5700	  837.00	  863.08	-2364.58	  508.51
     58.6700	  907.00	  881.35	-2312.85	  508.52
     58.7700	  952.00	  921.19	-2307.69	  508.53
     58.8700	 1020.00	  982.27	-2300.77	  508.54
     58.9700	 1041.00	 1061.97	-2359.47	  508.54
     59.0700	 1139.00	 1153.79	-2353.29	  508.55
     59.1700	 1192.00	 1246.41	-2392.91	  508.55
     59.2700	 1298.00	 1326.10	-2366.60	  508.56
     59.3700	 1295.00	 1383.02	-2426.52	  508.56
     59.4700	 1425.00	 1414.78	-2328.28	  508.56
     59.5700	 1446.00	 1421.43	-2313.93	  508.55
     59.6700	 1401.00	 1402.18	-2339.68	  508.55
     59.7700	 1334.00	 1360.95	-2365.45	  508.55
     59.8700	 1309.00	 1310.54	-2340.04	  508.54
     59.9700	 1295.00	 1267.26	-2310.76	  508.53
     60.0700	 1324.00	 1243.68	-2258.18	  508.52
     60.1700	 1303.00	 1246.98	-2282.48	  508.51
     60.2700	 1360.00	 1280.67	-2259.17	  508.50
     60.3700	 1436.00	 1345.73	-2248.23	  508.48
     60.4700	 1509.00	 1438.37	-2267.87	  508.47
     60.5700	 1639.00	 1546.21	-2245.71	  508.45
     60.6700	 1590.00	 1646.35	-2394.85	  508.43
     60.7700	 1673.00	 1707.85	-2373.35	  508.41
     60.8700	 1652.00	 1703.17	-2389.67	  508.39
     60.9700	 1491.00	 1625.87	-2473.37	  508.37
     61.0700	 1410.00	 1495.65	-2424.15	  508.35
     61.1700	 1303.00	 1343.13	-2378.63	  508.32
     61.2700	 1185.00	 1194.68	-2348.18	  508.29
     61.3700	 1027.00	 1067.45	-2378.95	  508.26
     61.4700	  935.00	  969.76	-2373.26	  508.23
     61.5700	  916.00	  903.36	-2325.86	  508.20
     61.6700	  939.00	  866.28	-2265.78	  508.17
     61.7700	  906.00	  855.88	-2288.38	  508.13
     61.8700	  933.00	  871.27	-2276.77	  508.10
     61.9700	  934.00	  914.23	-2318.73	  508.06
     62.0700	 1025.00	  988.65	-2302.15	  508.02
     62.1700	 1201.00	 1098.50	-2236.00	  507.98
     62.2700	 1250.00	 1244.73	-2333.23	  507.94
     62.3700	 1398.00	 1422.07	-2362.57	  507.89
     62.4700	 1663.00	 1616.13	-2291.63	  507.85
     62.5700	 1849.00	 1801.54	-2291.04	  507.80
     62.6700	 1920.00	 1942.81	-2361.31	  507.75
     62.7700	 1949.00	 2002.71	-2392.21	  507.70
     62.8700	 1935.00	 1961.86	-2365.36	  507.65
     62.9700	 1855.00	 1833.04	-2316.54	  507.60
     63.0700	 1604.00	 1651.71	-2386.21	  507.54
     63.1700	 1378.00	 1454.90	-2415.40	  507.49
     63.2700	 1249.00	 1270.26	-2359.76	  507.43
     63.3700	 1103.00	 1114.06	-2349.56	  507.37
     63.4700	  958.00	  992.80	-2373.30	  507.31
     63.5700	  922.00	  905.67	-2322.17	  507.25
     63.6700	  875.00	  847.40	-2310.90	  507.19
     63.7700	  797.00	  811.10	-2352.60	  507.12
     63.8700	  767.00	  790.40	-2361.90	  507.06
     63.9700	  818.00	  780.56	-2301.06	  506.99
     64.0700	  750.00	  778.80	-2367.30	  506.92
     64.1700	  785.00	  783.82	-2337.32	  506.85
     64.2700	  849.00	  797.51	-2287.01	  506.78
     64.3700	  802.00	  821.67	-2358.17	  506.71
     64.4700	  881.00	  859.72	-2317.22	  506.63
     64.5700	  957.00	  915.71	-2297.21	  506.55
     64.6700	  988.00	  993.36	-2343.86	  506.48
     64.7700	 1126.00	 1094.84	-2307.34	  506.40
     64.8700	 1237.00	 1219.22	-2320.72	  506.32
     64.9700	 1414.00	 1360.67	-2285.17	  506.23
     65.0700	 1538.00	 1507.28	-2307.78	  506.15
     65.1700	 1637.00	 1640.73	-2342.23	  506.07
     65.2700	 1778.00	 1739.16	-2299.66	  505.98
     65.3700	 1702.00	 1782.92	-2419.42	  505.89
     65.4700	 1611.00	 1761.89	-2489.39	  505.80
     65.5700	 1669.00	 1680.57	-2350.06	  505.71
     65.6700	 1482.00	 1557.85	-2414.35	  505.62
     65.7700	 1380.00	 1417.47	-2375.97	  505.53
     65.8700	 1100.00	 1278.71	-2517.21	  505.43
     65.9700	 1088.00	 1154.26	-2404.76	  505.34
     66.0700	 1024.00	 1050.11	-2364.61	  505.24
     66.1700	  881.00	  967.36	-2424.86	  505.14
     66.2700	  871.00	  904.24	-2371.74	  505.04
     66.3700	  857.00	  857.54	-2339.04	  504.94
     66.4700	  769.00	  823.90	-2393.40	  504.83
     66.5700	  773.00	  800.07	-2365.57	  504.73
     66.6700	  741.00	  783.43	-2380.93	  504.62
     66.7700	  708.00	  772.04	-2402.54	  504.52
     66.8700	  723.00	  764.63	-2380.13	  504.41
     66.9700	  775.00	  760.41	-2323.91	  504.30
     67.0700	  756.00	  758.99	-2341.49	  504.18
     67.1700	  750.00	  760.30	-2348.80	  504.07
     67.2700	  731.00	  764.62	-2372.12	  503.96
     67.3700	  802.00	  772.85	-2309.35	  503.84
     67.4700	  761.00	  786.40	-2363.90	  503.72
     67.5700	  856.00	  808.10	-2290.60	  503.61
     67.6700	  821.00	  841.77	-2359.27	  503.49
     67.7700	  879.00	  893.02	-2352.52	  503.37
     67.8700	 1040.00	  968.60	-2267.10	  503.24
     67.9700	 1062.00	 1075.70	-2352.20	  503.12
     68.0700	 1182.00	 1220.44	-2376.94	  502.99
     68.1700	 1493.00	 1405.74	-2251.24	  502.87
     68.2700	 1619.00	 1629.04	-2348.54	  502.74
     68.3700	 1831.00	 1880.12	-2387.62	  502.61
     68.4700	 2159.00	 2139.26	-2318.76	  502.48
     68.5700	 2518.00	 2376.38	-2196.88	  502.35
     68.6700	 2504.00	 2552.58	-2387.08	  502.22
     68.7700	 2558.00	 2629.43	-2409.93	  502.08
     68.8700	 2448.00	 2586.91	-2477.41	  501.95
     68.9700	 2474.00	 2436.25	-2300.75	  501.81
     69.0700	 2178.00	 2212.33	-2372.83	  501.67
     69.1700	 1905.00	 1955.40	-2388.90	  501.53
     69.2700	 1750.00	 1698.69	-2287.19	  501.39
     69.3700	 1464.00	 1464.95	-2339.45	  501.25
     69.4700	 1350.00	 1267.10	-2255.60	  501.11
     69.5700	 1155.00	 1109.66	-2293.16	  500.96
     69.6700	 1028.00	  991.08	-2301.58	  500.82
     69.7700	 1031.00	  905.97	-2213.47	  500.67
     69.8700	  936.00	  847.25	-2249.75	  500.52
     69.9700	  917.00	  807.86	-2229.36	  500.37
     70.0700	  868.00	  781.81	-2252.31	  500.22
     70.1700	  829.00	  764.54	-2274.04	  500.07
     70.2700	  829.00	  752.92	-2262.42	  499.92
     70.3700	  752.00	  744.91	-2331.41	  499.77
     70.4700	  763.00	  739.30	-2314.80	  499.61
     70.5700	  751.00	  735.39	-2322.89	  499.45
     70.6700	  746.00	  732.80	-2325.30	  499.30
     70.7700	  739.00	  731.35	-2330.85	  499.14
     70.8700	  745.00	  730.98	-2324.48	  498.98
     70.9700	  715.00	  731.75	-2355.25	  498.82
     71.0700	  735.00	  733.88	-2337.38	  498.66
     71.1700	  767.00	  737.74	-2309.24	  498.49
     71.2700	  698.00	  743.85	-2384.35	  498.33
     71.3700	  745.00	  753.74	-2347.24	  498.16
     71.4700	  765.00	  768.96	-2342.46	  498.00
     71.5700	  820.00	  791.99	-2310.49	  497.83
     71.6700	  828.00	  826.15	-2336.65	  497.66
     71.7700	  912.00	  875.44	-2301.94	  497.49
     71.8700	  968.00	  944.08	-2314.58	  497.32
     71.9700	 1044.00	 1035.90	-2330.40	  497.15
     72.0700	 1182.00	 1153.23	-2309.73	  496.97
     72.1700	 1333.00	 1295.81	-2301.31	  496.80
     72.2700	 1558.00	 1459.60	-2240.10	  496.62
     72.3700	 1617.00	 1635.80	-2357.29	  496.45
     72.4700	 1841.00	 1810.06	-2307.56	  496.27
     72.5700	 2009.00	 1962.39	-2291.89	  496.09
     72.6700	 2057.00	 2069.01	-2350.51	  495.91
     72.7700	 2018.00	 2108.57	-2429.07	  495.73
     72.8700	 2011.00	 2071.93	-2399.43	  495.55
     72.9700	 1908.00	 1967.48	-2397.98	  495.36
     73.0700	 1708.00	 1816.26	-2446.76	  495.18
     73.1700	 1561.00	 1642.85	-2420.35	  495.00
     73.2700	 1455.00	 1466.00	-2349.50	  494.81
     73.3700	 1312.00	 1300.93	-2327.43	  494.62
     73.4700	 1168.00	 1156.59	-2327.09	  494.44
     73.5700	 1057.00	 1037.16	-2318.66	  494.25
     73.6700	  911.00	  942.99	-2370.49	  494.06
     73.7700	  902.00	  871.80	-2308.30	  493.87
     73.8700	  838.00	  819.92	-2320.42	  493.68
     73.9700	  821.00	  783.20	-2300.70	  493.48
     74.0700	  763.00	  757.75	-2333.25	  493.29
     74.1700	  767.00	  739.80	-2311.30	  493.10
     74.2700	  746.00	  727.99	-2320.49	  492.90
     74.3700	  723.00	  720.09	-2335.59	  492.70
     74.4700	  746.00	  715.03	-2307.53	  492.51
     74.5700	  768.00	  712.12	-2282.62	  492.31
     74.6700	  701.00	  710.96	-2348.46	  492.11
     74.7700	  690.00	  711.24	-2359.74	  491.91
     74.8700	  689.00	  712.71	-2362.21	  491.71
     74.9700	  745.00	  715.01	-2308.51	  491.51
     75.0700	  777.00	  717.87	-2279.37	  491.31
     75.1700	  738.00	  720.77	-2321.27	  491.10
     75.2700	  740.00	  723.12	-2321.61	  490.90
     75.3700	  770.00	  724.36	-2292.86	  490.70
     75.4700	  762.00	  724.14	-2300.64	  490.49
     75.5700	  819.00	  722.52	-2242.02	  490.28
     75.6700	  783.00	  719.99	-2275.49	  490.08
     75.7700	  766.00	  717.33	-2289.83	  489.87
     75.8700	  737.00	  715.37	-2316.87	  489.66
     75.9700	  721.00	  715.21	-2332.71	  489.45
     76.0700	  801.00	  717.78	-2255.28	  489.24
     76.1700	  776.00	  724.17	-2286.67	  489.03
     76.2700	  730.00	  735.55	-2344.05	  488.82
     76.3700	  787.00	  753.07	-2304.57	  488.60
     76.4700	  779.00	  777.75	-2337.25	  488.39
     76.5700	  775.00	  810.29	-2373.79	  488.18
     76.6700	  830.00	  850.82	-2359.32	  487.96
     76.7700	  879.00	  898.60	-2358.10	  487.75
     76.8700	  941.00	  951.90	-2349.40	  487.53
     76.9700	  985.00	 1007.68	-2361.18	  487.31
     77.0700	  991.00	 1061.55	-2409.05	  487.10
     77.1700	 1057.00	 1107.75	-2389.25	  486.88
     77.2700	 1153.00	 1139.78	-2325.28	  486.66
     77.3700	 1134.00	 1151.98	-2356.48	  486.44
     77.4700	 1090.00	 1141.86	-2390.36	  486.22
     77.5700	 1165.00	 1111.31	-2284.81	  486.00
     77.6700	  991.00	 1065.48	-2412.98	  485.78
     77.7700	 1078.00	 1011.23	-2271.73	  485.56
     77.8700	  924.00	  954.23	-2368.73	  485.33
     77.9700	  929.00	  899.06	-2308.56	  485.11
     78.0700	  815.00	  848.82	-2372.32	  484.89
     78.1700	  850.00	  805.38	-2293.88	  484.66
     78.2700	  763.00	  769.49	-2344.99	  484.44
     78.3700	  697.00	  741.01	-2382.51	  484.21
     78.4700	  772.00	  719.23	-2285.73	  483.99
     78.5700	  690.00	  703.11	-2351.61	  483.76
     78.6700	  719.00	  691.48	-2310.98	  483.53
     78.7700	  667.00	  683.26	-2354.76	  483.31
     78.8700	  685.00	  677.53	-2331.03	  483.08
     78.9700	  663.00	  673.55	-2349.05	  482.85
     79.0700	  662.00	  670.79	-2347.29	  482.62
     79.1700	  645.00	  668.84	-2362.34	  482.39
     79.2700	  654.00	  667.57	-2352.07	  482.16
     79.3700	  599.00	  666.78	-2406.28	  481.93
     79.4700	  669.00	  666.40	-2335.90	  481.70
     79.5700	  653.00	  666.41	-2351.91	  481.47
     79.6700	  734.00	  666.81	-2271.31	  481.24
     79.7700	  651.00	  667.65	-2355.15	  481.01
     79.8700	  648.00	  669.01	-2359.51	  480.78
     79.9700	  659.00	  671.02	-2350.52	  480.54
     80.0700	  673.00	  673.89	-2339.39	  480.31
     80.1700	  721.00	  677.95	-2295.45	  480.08
     80.2700	  700.00	  683.69	-2322.19	  479.84
     80.3700	  732.00	  691.89	-2298.39	  479.61
     80.4700	  749.00	  703.62	-2293.12	  479.37
     80.5700	  756.00	  720.06	-2302.56	  479.14
     80.6700	  796.00	  743.61	-2286.11	  478.90
     80.7700	  826.00	  776.12	-2288.62	  478.67
     80.8700	  880.00	  819.84	-2278.34	  478.43
     80.9700	  962.00	  876.79	-2253.29	  478.20
     81.0700	  992.00	  948.37	-2294.87	  477.96
     81.1700	 1088.00	 1034.83	-2285.33	  477.72
     81.2700	 1216.00	 1134.78	-2257.28	  477.49
     81.3700	 1352.00	 1244.67	-2231.17	  477.25
     81.4700	 1430.00	 1358.61	-2267.11	  477.01
     81.5700	 1484.00	 1468.44	-2322.94	  476.77
     81.6700	 1573.00	 1564.49	-2329.99	  476.54
     81.7700	 1634.00	 1637.17	-2341.67	  476.30
     81.8700	 1667.00	 1679.31	-2350.81	  476.06
     81.9700	 1721.00	 1687.81	-2305.31	  475.82
     82.0700	 1694.00	 1663.50	-2308.00	  475.58
     82.1700	 1532.00	 1610.34	-2416.84	  475.34
     82.2700	 1468.00	 1534.80	-2405.30	  475.11
     82.3700	 1352.00	 1444.88	-2431.38	  474.87
     82.4700	 1354.00	 1348.57	-2333.07	  474.63
     82.5700	 1274.00	 1252.59	-2317.09	  474.39
     82.6700	 1153.00	 1161.83	-2347.33	  474.15
     82.7700	 1065.00	 1079.56	-2353.06	  473.91
     82.8700	  974.00	 1007.56	-2372.06	  473.67
     82.9700	  949.00	  946.21	-2335.71	  473.43
     83.0700	  866.00	  894.82	-2367.32	  473.19
     83.1700	  788.00	  852.01	-2402.51	  472.95
     83.2700	  785.00	  816.30	-2369.80	  472.71
     83.3700	  742.00	  786.48	-2382.98	  472.47
     83.4700	  726.00	  761.73	-2374.23	  472.23
     83.5700	  715.00	  741.49	-2364.99	  471.99
     83.6700	  691.00	  725.46	-2372.96	  471.75
     83.7700	  704.00	  713.40	-2347.90	  471.51
     83.8700	  682.00	  705.15	-2361.65	  471.27
     83.9700	  706.00	  700.52	-2333.02	  471.03
     84.0700	  677.00	  699.27	-2360.77	  470.79
     84.1700	  729.00	  701.00	-2310.50	  470.55
     84.2700	  711.00	  705.06	-2332.56	  470.31
     84.3700	  730.00	  711.07	-2319.57	  470.07
     84.4700	  711.00	  718.05	-2345.55	  469.83
     84.5700	  697.00	  725.03	-2366.53	  469.60
     84.6700	  676.00	  730.94	-2393.44	  469.36
     84.7700	  750.00	  734.66	-2323.16	  469.12
     84.8700	  698.00	  735.51	-2376.01	  468.88
     84.9700	  729.00	  733.01	-2342.51	  468.64
     85.0700	  719.00	  727.37	-2346.87	  468.40
     85.1700	  702.00	  719.26	-2355.76	  468.16
     85.2700	  711.00	  709.56	-2337.06	  467.92
     85.3700	  679.00	  699.20	-2358.70	  467.69
     85.4700	  697.00	  688.98	-2330.48	  467.45
     85.5700	  734.00	  679.54	-2284.04	  467.21
     85.6700	  674.00	  671.35	-2335.85	  466.97
     85.7700	  643.00	  664.75	-2360.25	  466.73
     85.8700	  672.00	  659.92	-2326.42	  466.50
     85.9700	  674.00	  656.97	-2321.47	  466.26
     86.0700	  659.00	  655.93	-2335.43	  466.02
     86.1700	  634.00	  656.78	-2361.28	  465.79
     86.2700	  678.00	  659.49	-2319.99	  465.55
     86.3700	  649.00	  664.02	-2353.52	  465.32
     86.4700	  676.00	  670.27	-2332.77	  465.08
     86.5700	  689.00	  678.11	-2327.61	  464.85
     86.6700	  702.00	  687.33	-2323.83	  464.61
     86.7700	  661.00	  697.63	-2375.13	  464.38
     86.8700	  712.00	  708.61	-2335.11	  464.14
     86.9700	  645.00	  719.77	-2413.27	  463.91
     87.0700	  664.00	  730.56	-2405.06	  463.68
     87.1700	  705.00	  740.37	-2373.87	  463.44
     87.2700	  688.00	  748.75	-2399.25	  463.21
     87.3700	  724.00	  755.55	-2370.05	  462.98
     87.4700	  697.00	  760.98	-2402.48	  462.75
     87.5700	  701.00	  765.54	-2403.04	  462.52
     87.6700	  724.00	  769.83	-2384.33	  462.28
     87.7700	  778.00	  774.30	-2334.80	  462.05
     87.8700	  783.00	  779.20	-2334.70	  461.82
     87.9700	  797.00	  784.45	-2325.95	  461.60
     88.0700	  753.00	  789.66	-2375.16	  461.37
     88.1700	  818.00	  794.15	-2314.65	  461.14
     88.2700	  791.00	  797.01	-2344.51	  460.91
     88.3700	  825.00	  797.32	-2310.82	  460.68
     88.4700	  760.00	  794.38	-2372.88	  460.46
     88.5700	  811.00	  788.00	-2315.50	  460.23
     88.6700	  743.00	  778.51	-2374.01	  460.00
     88.7700	  789.00	  766.68	-2316.18	  459.78
     88.8700	  770.00	  753.43	-2321.93	  459.55
     88.9700	  706.00	  739.28	-2371.78	  459.33
     89.0700	  718.00	  725.90	-2346.40	  459.11
     89.1700	  711.00	  713.58	-2341.08	  458.88
     89.2700	  688.00	  702.86	-2353.36	  458.66
     89.3700	  778.00	  694.13	-2254.63	  458.44
     89.4700	  695.00	  687.59	-2331.09	  458.22
     89.5700	  712.00	  683.25	-2309.75	  458.00
     89.6700	  711.00	  680.98	-2308.48	  457.78
     89.7700	  714.00	  680.48	-2304.98	  457.56
     89.8700	  732.00	  681.35	-2287.85	  457.34
     89.9700	  722.00	  683.10	-2299.59	  457.13
     90.0700	  798.00	  685.14	-2225.64	  456.91
     90.1700	  735.00	  686.91	-2290.41	  456.69
     90.2700	  708.00	  687.82	-2318.32	  456.48
     90.3700	  709.00	  687.47	-2316.97	  456.26
     90.4700	  681.00	  685.61	-2343.11	  456.05
     90.5700	  695.00	  682.31	-2325.81	  455.84
     90.6700	  688.00	  677.81	-2328.31	  455.63
     90.7700	  743.00	  672.48	-2267.98	  455.41
     90.8700	  731.00	  666.70	-2274.20	  455.20
     90.9700	  677.00	  660.84	-2322.34	  454.99
     91.0700	  693.00	  655.20	-2300.70	  454.79
     91.1700	  626.00	  650.00	-2362.50	  454.58
     91.2700	  647.00	  645.40	-2336.90	  454.37
     91.3700	  676.00	  641.49	-2303.99	  454.16
     91.4700	  686.00	  638.30	-2290.80	  453.96
     91.5700	  622.00	  635.82	-2352.32	  453.75
     91.6700	  606.00	  634.00	-2366.50	  453.55
     91.7700	  631.00	  632.80	-2340.30	  453.35
     91.8700	  641.00	  632.15	-2329.65	  453.15
     91.9700	  587.00	  632.02	-2383.52	  452.95
     92.0700	  620.00	  632.38	-2350.88	  452.75
     92.1700	  618.00	  633.25	-2353.75	  452.55
     92.2700	  662.00	  634.68	-2311.18	  452.35
     92.3700	  647.00	  636.76	-2328.26	  452.15
     92.4700	  663.00	  639.64	-2315.14	  451.96
     92.5700	  646.00	  643.47	-2335.97	  451.76
     92.6700	  681.00	  648.47	-2305.97	  451.57
     92.7700	  660.00	  654.87	-2333.37	  451.37
     92.8700	  699.00	  662.91	-2302.41	  451.18
     92.9700	  643.00	  672.78	-2368.28	  450.99
     93.0700	  692.00	  684.67	-2331.17	  450.80
     93.1700	  655.00	  698.67	-2382.17	  450.61
     93.2700	  686.00	  714.79	-2367.29	  450.43
     93.3700	  689.00	  732.92	-2382.42	  450.24
     93.4700	  712.00	  752.80	-2379.30	  450.05
     93.5700	  674.00	  774.02	-2438.52	  449.87
     93.6700	  843.00	  796.03	-2291.53	  449.69
     93.7700	  832.00	  818.14	-2324.64	  449.50
     93.8700	  771.00	  839.53	-2407.03	  449.32
     93.9700	  844.00	  859.40	-2353.90	  449.14
     94.0700	  849.00	  877.10	-2366.60	  448.96
     94.1700	  884.00	  892.40	-2346.90	  448.79
     94.2700	  851.00	  905.51	-2393.01	  448.61
     94.3700	  872.00	  917.13	-2383.63	  448.44
     94.4700	  890.00	  928.14	-2376.64	  448.26
     94.5700	  927.00	  939.15	-2350.65	  448.09
     94.6700	  921.00	  951.48	-2368.98	  447.92
     94.7700	  954.00	  965.27	-2349.77	  447.75
     94.8700	  995.00	  980.75	-2324.25	  447.58
     94.9700	  983.00	  997.96	-2353.46	  447.41
     95.0700	 1048.00	 1016.80	-2307.30	  447.24
     95.1700	 1029.00	 1037.09	-2346.59	  447.08
     95.2700	 1061.00	 1058.39	-2335.89	  446.92
     95.3700	 1066.00	 1079.93	-2352.43	  446.75
     95.4700	 1084.00	 1100.46	-2354.96	  446.59
     95.5700	 1104.00	 1118.29	-2352.79	  446.43
     95.6700	 1183.00	 1131.42	-2286.92	  446.27
     95.7700	 1082.00	 1137.84	-2394.34	  446.12
     95.8700	 1139.00	 1135.87	-2335.37	  445.96
     95.9700	 1162.00	 1124.65	-2301.15	  445.81
     96.0700	 1086.00	 1104.41	-2356.91	  445.65
     96.1700	 1106.00	 1076.45	-2308.95	  445.50
     96.2700	  998.00	 1042.82	-2383.32	  445.35
     96.3700	 1045.00	 1005.95	-2299.45	  445.20
     96.4700	  961.00	  968.34	-2345.84	  445.06
     96.5700	  912.00	  932.41	-2358.91	  444.91
     96.6700	  948.00	  900.34	-2290.84	  444.77
     96.7700	  875.00	  873.99	-2337.49	  444.62
     96.8700	  848.00	  854.95	-2345.45	  444.48
     96.9700	  892.00	  844.49	-2290.99	  444.34
     97.0700	  853.00	  843.59	-2329.09	  444.20
     97.1700	  851.00	  852.98	-2340.48	  444.07
     97.2700	  886.00	  873.12	-2325.62	  443.93
     97.3700	  999.00	  904.26	-2243.76	  443.80
     97.4700	 1026.00	  946.36	-2258.86	  443.66
     97.5700	 1040.00	  999.08	-2297.58	  443.53
     97.6700	 1125.00	 1061.71	-2275.21	  443.40
     97.7700	 1152.00	 1133.04	-2319.54	  443.28
     97.8700	 1190.00	 1211.38	-2359.88	  443.15
     97.9700	 1243.00	 1294.41	-2389.91	  443.02
     98.0700	 1382.00	 1379.21	-2335.71	  442.90
     98.1700	 1463.00	 1462.19	-2337.69	  442.78
     98.2700	 1464.00	 1539.17	-2413.67	  442.66
     98.3700	 1631.00	 1605.60	-2313.10	  442.54
     98.4700	 1569.00	 1656.91	-2426.41	  442.43
     98.5700	 1651.00	 1689.19	-2376.69	  442.31
     98.6700	 1607.00	 1699.91	-2431.41	  442.20
     98.7700	 1655.00	 1688.54	-2372.04	  442.09
     98.8700	 1588.00	 1656.68	-2407.18	  441.98
     98.9700	 1560.00	 1607.55	-2386.05	  441.87
     99.0700	 1563.00	 1545.34	-2320.84	  441.76
     99.1700	 1487.00	 1474.59	-2326.09	  441.66
     99.2700	 1398.00	 1399.70	-2340.20	  441.55
     99.3700	 1337.00	 1324.65	-2326.15	  441.45
     99.4700	 1210.00	 1252.99	-2381.49	  441.35
     99.5700	 1170.00	 1187.61	-2356.11	  441.25
     99.6700	 1136.00	 1130.94	-2333.44	  441.16
     99.7700	 1119.00	 1084.91	-2304.41	  441.06
     99.8700	 1055.00	 1050.98	-2334.48	  440.97
     99.9700	 1028.00	 1030.27	-2340.77	  440.88
    100.0700	 1064.00	 1023.52	-2298.02	  440.79
    100.1700	 1008.00	 1031.19	-2361.69	  440.70
    100.2700	 1098.00	 1053.43	-2293.93	  440.62
    100.3700	 1068.00	 1090.08	-2360.58	  440.53
    100.4700	 1160.00	 1140.63	-2319.13	  440.45
    100.5700	 1230.00	 1204.25	-2312.75	  440.37
    100.6700	 1300.00	 1279.70	-2318.20	  440.29
    100.7700	 1366.00	 1365.33	-2337.83	  440.22
    100.8700	 1500.00	 1458.98	-2297.48	  440.14
    100.9700	 1568.00	 1558.00	-2328.50	  440.07
    101.0700	 1657.00	 1659.13	-2340.63	  440.00
    101.1700	 1796.00	 1759.02	-2301.52	  439.93
    101.2700	 1793.00	 1853.81	-2399.31	  439.86
    101.3700	 1910.00	 1939.89	-2368.39	  439.80
    101.4700	 1945.00	 2014.22	-2407.72	  439.74
    101.5700	 2055.00	 2074.72	-2358.22	  439.68
    101.6700	 2087.00	 2120.24	-2371.74	  439.62
    101.7700	 2126.00	 2150.33	-2362.83	  439.56
    101.8700	 2194.00	 2164.95	-2309.45	  439.50
    101.9700	 2227.00	 2164.02	-2275.52	  439.45
    102.0700	 2181.00	 2147.59	-2305.09	  439.40
    102.1700	 2088.00	 2115.94	-2366.44	  439.35
    102.2700	 2086.00	 2070.10	-2322.60	  439.30
    102.3700	 2107.00	 2012.06	-2243.56	  439.26
    102.4700	 2052.00	 1944.83	-2231.33	  439.21
    102.5700	 1901.00	 1872.00	-2309.50	  439.17
    102.6700	 1926.00	 1797.32	-2209.82	  439.13
    102.7700	 1790.00	 1724.20	-2272.70	  439.10
    102.8700	 1697.00	 1655.38	-2296.88	  439.06
    102.9700	 1650.00	 1592.82	-2281.32	  439.03
    103.0700	 1640.00	 1537.65	-2236.15	  439.00
    103.1700	 1532.00	 1490.25	-2296.75	  438.97
    103.2700	 1408.00	 1450.30	-2380.80	  438.94
    103.3700	 1433.00	 1416.81	-2322.31	  438.92
    103.4700	 1427.00	 1388.32	-2299.82	  438.89
    103.5700	 1328.00	 1362.92	-2373.42	  438.87
    103.6700	 1356.00	 1338.54	-2321.04	  438.86
    103.7700	 1252.00	 1313.14	-2399.64	  438.84
    103.8700	 1285.00	 1285.05	-2338.55	  438.83
    103.9700	 1258.00	 1253.21	-2333.71	  438.81
    104.0700	 1204.00	 1217.28	-2351.78	  438.80
    104.1700	 1179.00	 1177.59	-2337.09	  438.80
    104.2700	 1118.00	 1134.95	-2355.45	  438.79
    104.3700	 1118.00	 1090.43	-2310.93	  438.79
    104.4700	 1089.00	 1045.17	-2294.67	  438.79
    104.5700	 1007.00	 1000.27	-2331.77	  438.79
    104.6700	  963.00	  956.69	-2332.19	  438.79
    104.7700	  939.00	  915.25	-2314.75	  438.80
    104.8700	  848.00	  876.62	-2367.12	  438.80
    104.9700	  857.00	  841.19	-2322.69	  438.81
    105.0700	  819.00	  809.42	-2328.92	  438.82
    105.1700	  817.00	  781.37	-2302.87	  438.84
    105.2700	  825.00	  757.04	-2270.54	  438.86
    105.3700	  753.00	  736.28	-2321.78	  438.87
    105.4700	  728.00	  718.88	-2329.38	  438.90
    105.5700	  746.00	  704.54	-2297.04	  438.92
    105.6700	  733.00	  692.94	-2298.44	  438.94
    105.7700	  711.00	  683.67	-2311.17	  438.97
    105.8700	  699.00	  676.55	-2316.05	  439.00
    105.9700	  714.00	  671.21	-2295.71	  439.04
    106.0700	  675.00	  667.41	-2330.91	  439.07
    106.1700	  692.00	  664.93	-2311.43	  439.11
    106.2700	  644.00	  663.63	-2358.13	  439.15
    106.3700	  626.00	  663.40	-2375.90	  439.19
    106.4700	  628.00	  664.17	-2374.67	  439.23
    106.5700	  709.00	  665.92	-2295.42	  439.28
    106.6700	  640.00	  668.67	-2367.17	  439.33
    106.7700	  689.00	  672.43	-2321.93	  439.38
    106.8700	  688.00	  677.27	-2327.77	  439.43
    106.9700	  719.00	  683.25	-2302.75	  439.49
    107.0700	  687.00	  690.41	-2341.91	  439.55
    107.1700	  695.00	  698.82	-2342.32	  439.61
    107.2700	  678.00	  708.47	-2368.97	  439.67
    107.3700	  692.00	  719.36	-2365.86	  439.74
    107.4700	  708.00	  731.41	-2361.91	  439.80
    107.5700	  730.00	  744.48	-2352.98	  439.87
    107.6700	  702.00	  758.40	-2394.90	  439.95
    107.7700	  741.00	  772.89	-2370.39	  440.02
    107.8700	  729.00	  787.62	-2397.12	  440.10
    107.9700	  788.00	  802.19	-2352.69	  440.18
    108.0700	  817.00	  816.17	-2337.67	  440.26
    108.1700	  752.00	  829.08	-2415.58	  440.34
    108.2700	  786.00	  840.42	-2392.92	  440.43
    108.3700	  803.00	  849.77	-2385.27	  440.52
    108.4700	  786.00	  856.78	-2409.28	  440.61
    108.5700	  797.00	  861.26	-2402.76	  440.71
    108.6700	  821.00	  863.31	-2380.81	  440.81
    108.7700	  803.00	  863.13	-2398.63	  440.90
    108.8700	  813.00	  861.14	-2386.64	  441.01
    108.9700	  830.00	  857.88	-2366.38	  441.11
    109.0700	  812.00	  853.87	-2380.37	  441.22
    109.1700	  800.00	  849.67	-2388.17	  441.33
    109.2700	  807.00	  845.71	-2377.21	  441.44
    109.3700	  806.00	  842.37	-2374.87	  441.55
    109.4700	  798.00	  839.90	-2380.40	  441.67
    109.5700	  763.00	  838.44	-2413.94	  441.79
    109.6700	  809.00	  838.00	-2367.50	  441.91
    109.7700	  795.00	  838.47	-2381.97	  442.04
    109.8700	  798.00	  839.64	-2380.14	  442.16
    109.9700	  782.00	  841.17	-2397.67	  442.29
    110.0700	  846.00	  842.67	-2335.17	  442.43
    110.1700	  797.00	  843.66	-2385.16	  442.56
    110.2700	  782.00	  843.69	-2400.19	  442.70
    110.3700	  816.00	  842.36	-2364.86	  442.84
    110.4700	  823.00	  839.37	-2354.87	  442.98
    110.5700	  824.00	  834.56	-2349.06	  443.13
    110.6700	  775.00	  827.94	-2391.44	  443.27
    110.7700	  827.00	  819.68	-2331.18	  443.42
    110.8700	  815.00	  810.03	-2333.53	  443.58
    110.9700	  815.00	  799.33	-2322.83	  443.73
    111.0700	  800.00	  787.93	-2326.43	  443.89
    111.1700	  777.00	  776.17	-2337.67	  444.05
    111.2700	  765.00	  764.38	-2337.88	  444.21
    111.3700	  786.00	  752.84	-2305.34	  444.38
    111.4700	  764.00	  741.79	-2316.29	  444.55
    111.5700	  719.00	  731.43	-2350.93	  444.72
    111.6700	  736.00	  721.92	-2324.42	  444.89
    111.7700	  708.00	  713.37	-2343.87	  445.07
    111.8700	  676.00	  705.85	-2368.35	  445.25
    111.9700	  645.00	  699.40	-2392.90	  445.43
    112.0700	  695.00	  694.01	-2337.51	  445.61
    112.1700	  708.00	  689.67	-2320.17	  445.80
    112.2700	  665.00	  686.30	-2359.80	  445.99
    112.3700	  618.00	  683.84	-2404.34	  446.18
    112.4700	  696.00	  682.21	-2324.71	  446.38
    112.5700	  667.00	  681.30	-2352.80	  446.58
    112.6700	  610.00	  681.03	-2409.53	  446.78
    112.7700	  683.00	  681.28	-2336.78	  446.98
    112.8700	  655.00	  681.98	-2365.48	  447.18
    112.9700	  638.00	  683.02	-2383.52	  447.39
    113.0700	  666.00	  684.34	-2356.84	  447.60
    113.1700	  694.00	  685.86	-2330.36	  447.82
    113.2700	  666.00	  687.53	-2360.03	  448.03
    113.3700	  663.00	  689.32	-2364.82	  448.25
    113.4700	  648.00	  691.21	-2381.71	  448.47
    113.5700	  669.00	  693.21	-2362.71	  448.70
    113.6700	  645.00	  695.34	-2388.84	  448.92
    113.7700	  717.00	  697.63	-2319.13	  449.15
    113.8700	  629.00	  700.13	-2409.63	  449.39
    113.9700	  620.00	  702.87	-2421.37	  449.62
    114.0700	  684.00	  705.97	-2360.47	  449.86
    114.1700	  663.00	  709.51	-2385.01	  450.10
    114.2700	  714.00	  713.58	-2338.08	  450.34
    114.3700	  673.00	  718.34	-2383.84	  450.59
    114.4700	  732.00	  723.96	-2330.46	  450.84
    114.5700	  731.00	  730.69	-2338.19	  451.09
    114.6700	  737.00	  738.81	-2340.31	  451.34
    114.7700	  732.00	  748.71	-2355.21	  451.60
    114.8700	  761.00	  760.89	-2338.39	  451.86
    114.9700	  799.00	  775.98	-2315.48	  452.12
    115.0700	  802.00	  794.76	-2331.26	  452.38
    115.1700	  828.00	  818.21	-2328.71	  452.65
    115.2700	  882.00	  847.52	-2304.02	  452.92
    115.3700	  941.00	  884.13	-2281.63	  453.19
    115.4700	 1045.00	  929.71	-2223.21	  453.47
    115.5700	 1087.00	  986.25	-2237.75	  453.75
    115.6700	 1132.00	 1055.98	-2262.48	  454.03
    115.7700	 1301.00	 1141.34	-2178.84	  454.31
    115.8700	 1437.00	 1245.04	-2146.54	  454.60
    115.9700	 1585.00	 1369.86	-2123.36	  454.89
    116.0700	 1764.00	 1518.68	-2093.18	  455.18
    116.1700	 1939.00	 1694.24	-2093.74	  455.47
    116.2700	 2238.00	 1899.04	-1999.54	  455.77
    116.3700	 2411.00	 2135.25	-2062.75	  456.07
    116.4700	 2707.00	 2404.30	-2035.80	  456.38
    116.5700	 3023.00	 2707.01	-2022.51	  456.68
    116.6700	 3352.00	 3043.03	-2029.53	  456.99
    116.7700	 3538.00	 3410.88	-2211.38	  457.30
    116.8700	 3973.00	 3807.90	-2173.40	  457.61
    116.9700	 4373.00	 4229.79	-2195.29	  457.93
    117.0700	 4780.00	 4671.03	-2229.53	  458.25
    117.1700	 5084.00	 5124.39	-2378.89	  458.57
    117.2700	 5507.00	 5581.33	-2412.83	  458.90
    117.3700	 5858.00	 6032.16	-2512.66	  459.22
    117.4700	 6334.00	 6465.82	-2470.32	  459.55
    117.5700	 6604.00	 6870.74	-2605.24	  459.89
    117.6700	 6957.00	 7234.71	-2616.21	  460.22
    117.7700	 7227.00	 7545.67	-2657.17	  460.56
    117.8700	 7386.00	 7792.48	-2744.98	  460.90
    117.9700	 7583.00	 7965.51	-2721.01	  461.25
    118.0700	 7736.00	 8057.81	-2660.31	  461.59
    118.1700	 7806.00	 8065.63	-2598.13	  461.94
    118.2700	 7605.00	 7989.07	-2722.57	  462.29
    118.3700	 7579.00	 7831.90	-2591.40	  462.65
    118.4700	 7384.00	 7601.27	-2555.77	  463.01
    118.5700	 7065.00	 7306.68	-2580.18	  463.37
    118.6700	 6670.00	 6959.34	-2627.84	  463.73
    118.7700	 6415.00	 6571.23	-2494.73	  464.10
    118.8700	 5956.00	 6154.25	-2536.75	  464.46
    118.9700	 5690.00	 5720.04	-2368.54	  464.84
    119.0700	 5385.00	 5279.15	-2232.65	  465.21
    119.1700	 4990.00	 4841.19	-2189.69	  465.59
    119.2700	 4648.00	 4414.51	-2105.01	  465.97
    119.3700	 4327.00	 4005.80	-2017.30	  466.35
    119.4700	 3905.00	 3620.52	-2054.02	  466.73
    119.5700	 3633.00	 3262.47	-1967.97	  467.12
    119.6700	 3266.00	 2934.22	-2006.72	  467.51
    119.7700	 2898.00	 2637.05	-2077.55	  467.90
    119.8700	 2701.00	 2371.04	-2008.54	  468.30
    119.9700	 2425.00	 2135.54	-2049.04	  468.70
    120.0700	 2240.00	 1929.01	-2027.51	  469.10
    120.1700	 1949.00	 1749.55	-2139.05	  469.50
    120.2700	 1857.00	 1594.88	-2076.38	  469.91
    120.3700	 1681.00	 1462.47	-2119.97	  470.32
    120.4700	 1583.00	 1349.82	-2105.32	  470.73
    120.5700	 1449.00	 1254.42	-2143.92	  471.14
    120.6700	 1324.00	 1173.91	-2188.41	  471.56
    120.7700	 1250.00	 1106.14	-2194.64	  471.98
    120.8700	 1081.00	 1049.11	-2306.61	  472.40
    120.9700	 1132.00	 1001.14	-2207.64	  472.83
    121.0700	 1122.00	  960.73	-2177.23	  473.25
    121.1700	 1061.00	  926.62	-2204.12	  473.68
    121.2700	  907.00	  897.78	-2329.28	  474.12
    121.3700	  948.00	  873.34	-2263.84	  474.55
    121.4700	  870.00	  852.63	-2321.12	  474.99
    121.5700	  879.00	  835.06	-2294.56	  475.43
    121.6700	  815.00	  820.21	-2343.71	  475.88
    121.7700	  854.00	  807.73	-2292.23	  476.32
    121.8700	  807.00	  797.32	-2328.82	  476.77
    121.9700	  749.00	  788.78	-2378.28	  477.22
    122.0700	  761.00	  781.92	-2359.42	  477.68
    122.1700	  775.00	  776.60	-2340.10	  478.13
    122.2700	  746.00	  772.70	-2365.21	  478.59
    122.3700	  776.00	  770.15	-2332.65	  479.06
    122.4700	  757.00	  768.84	-2350.34	  479.52
    122.5700	  789.00	  768.72	-2318.22	  479.99
    122.6700	  717.00	  769.72	-2391.22	  480.46
    122.7700	  725.00	  771.79	-2385.29	  480.93
    122.8700	  725.00	  774.87	-2388.37	  481.41
    122.9700	  715.00	  778.91	-2402.41	  481.88
    123.0700	  762.00	  783.85	-2360.35	  482.36
    123.1700	  690.00	  789.61	-2438.11	  482.85
    123.2700	  768.00	  796.14	-2366.64	  483.33
    123.3700	  731.00	  803.34	-2410.84	  483.82
    123.4700	  762.00	  811.13	-2387.63	  484.31
    123.5700	  766.00	  819.40	-2391.90	  484.80
    123.6700	  767.00	  828.05	-2399.55	  485.30
    123.7700	  788.00	  836.96	-2387.46	  485.80
    123.8700	  837.00	  846.01	-2347.51	  486.30
    123.9700	  829.00	  855.05	-2364.55	  486.80
    124.0700	  758.00	  863.96	-2444.46	  487.31
    124.1700	  851.00	  872.60	-2360.10	  487.81
    124.2700	  888.00	  880.85	-2331.35	  488.32
    124.3700	  821.00	  888.60	-2406.10	  488.84
    124.4700	  830.00	  895.76	-2404.26	  489.35
    124.5700	  900.00	  902.27	-2340.77	  489.87
    124.6700	  860.00	  908.09	-2386.59	  490.39
    124.7700	  830.00	  913.27	-2421.77	  490.92
    124.8700	  821.00	  917.82	-2435.32	  491.44
    124.9700	  821.00	  638.23	-2155.73	  491.97
    125.0700	  822.00	  638.76	-2338.50	  492.50
    125.1700	  816.00	  639.30	-2338.50	  493.03
    125.2700	  877.00	  639.83	-2338.50	  493.57
    125.3700	  823.00	  640.37	-2338.50	  494.11
    125.4700	  892.00	  640.91	-2338.50	  494.65
    125.5700	  897.00	  641.45	-2338.50	  495.19
    125.6700	  932.00	  642.00	-2338.50	  495.73
    125.7700	  872.00	  642.54	-2338.50	  496.28
    125.8700	  853.00	  643.09	-2338.50	  496.83
    125.9700	  846.00	  643.65	-2338.50	  497.38
    126.0700	  820.00	  644.20	-2338.50	  497.94
    126.1700	  836.00	  644.76	-2338.50	  498.50
    126.2700	  820.00	  645.32	-2338.50	  499.05
    126.3700	  894.00	  645.88	-2338.50	  499.62
    126.4700	  870.00	  646.44	-2338.50	  500.18
    126.5700	  822.00	  647.01	-2338.50	  500.75
    126.6700	  841.00	  647.58	-2338.50	  501.32
    126.7700	  794.00	  648.15	-2338.50	  501.89
    126.8700	  864.00	  648.72	-2338.50	  502.46
    126.9700	  811.00	  649.30	-2338.50	  503.04
    127.0700	  828.00	  649.88	-2338.50	  503.61
    127.1700	  720.00	  650.46	-2338.50	  504.19
    127.2700	  726.00	  651.04	-2338.50	  504.78
    127.3700	  742.00	  651.62	-2338.50	  505.36
    127.4700	  727.00	  652.21	-2338.50	  505.95
    127.5700	  678.00	  652.80	-2338.50	  506.54
    127.6700	  736.00	  653.39	-2338.50	  507.13
    127.7700	  714.00	  653.98	-2338.50	  507.72
    127.8700	  694.00	  654.58	-2338.50	  508.32
    127.9700	  741.00	  655.18	-2338.50	  508.92
    128.0700	  725.00	  655.78	-2338.50	  509.52
    128.1700	  733.00	  656.38	-2338.50	  510.12
    128.2700	  712.00	  656.98	-2338.50	  510.72
    128.3700	  702.00	  657.59	-2338.50	  511.33
    128.4700	  703.00	  658.20	-2338.50	  511.94
    128.5700	    0.00	  658.81	-2338.50	  512.55
    128.6700	    0.00	  659.42	-2338.50	  513.16
     12.4590	        	        	        	        	       0	(  0  0  2)	  0  1
     12.4590	        	        	        	        	    -584	(  0  0  2)	  0  1
     25.1589	        	        	        	        	       0	(  0  0  4)	  0  1
     25.1589	        	        	        	        	    -584	(  0  0  4)	  0  1
     28.5916	        	        	        	        	       0	(  1  0  0)	  0  1
     28.5916	        	        	        	        	    -584	(  1  0  0)	  0  1
     29.2964	        	        	        	        	       0	(  1  0  1)	  0  1
     29.2964	        	        	        	        	    -584	(  1  0  1)	  0  1
     31.3244	        	        	        	        	       0	(  1  0  2)	  0  1
     31.3244	        	        	        	        	    -584	(  1  0  2)	  0  1
     34.4664	        	        	        	        	       0	(  1  0  3)	  0  1
     34.4664	        	        	        	        	    -584	(  1  0  3)	  0  1
     38.1840	        	        	        	        	       0	(  0  0  6)	  0  1
     38.1840	        	        	        	        	    -584	(  0  0  6)	  0  1
     38.4865	        	        	        	        	       0	(  1  0  4)	  0  1
     38.4865	        	        	        	        	    -584	(  1  0  4)	  0  1
     43.1872	        	        	        	        	       0	(  1  0  5)	  0  1
     43.1872	        	        	        	        	    -584	(  1  0  5)	  0  1
     48.4288	        	        	        	        	       0	(  1  0  6)	  0  1
     48.4288	        	        	        	        	    -584	(  1  0  6)	  0  1
     50.7172	        	        	        	        	       0	(  1  1  0)	  0  1
     50.7172	        	        	        	        	    -584	(  1  1  0)	  0  1
     51.7475	        	        	        	        	       0	(  0  0  8)	  0  1
     51.7475	        	        	        	        	    -584	(  0  0  8)	  0  1
     52.4612	        	        	        	        	       0	(  1  1  2)	  0  1
     52.4612	        	        	        	        	    -584	(  1  1  2)	  0  1
     54.1237	        	        	        	        	       0	(  1  0  7)	  0  1
     54.1237	        	        	        	        	    -584	(  1  0  7)	  0  1
     57.4703	        	        	        	        	       0	(  1  1  4)	  0  1
     57.4703	        	        	        	        	    -584	(  1  1  4)	  0  1
     59.2960	        	        	        	        	       0	(  2  0  0)	  0  1
     59.2960	        	        	        	        	    -584	(  2  0  0)	  0  1
     59.6927	        	        	        	        	       0	(  2  0  1)	  0  1
     59.6927	        	        	        	        	    -584	(  2  0  1)	  0  1
     60.2262	        	        	        	        	       0	(  1  0  8)	  0  1
     60.2262	        	        	        	        	    -584	(  1  0  8)	  0  1
     60.8732	        	        	        	        	       0	(  2  0  2)	  0  1
     60.8732	        	        	        	        	    -584	(  2  0  2)	  0  1
     62.8115	        	        	        	        	       0	(  2  0  3)	  0  1
     62.8115	        	        	        	        	    -584	(  2  0  3)	  0  1
     65.2639	        	        	        	        	       0	(  1  1  6)	  0  1
     65.2639	        	        	        	        	    -584	(  1  1  6)	  0  1
     65.4705	        	        	        	        	       0	(  2  0  4)	  0  1
     65.4705	        	        	        	        	    -584	(  2  0  4)	  0  1
     66.1458	        	        	        	        	       0	(  0  0 10)	  0  1
     66.1458	        	        	        	        	    -584	(  0  0 10)	  0  1
     66.7236	        	        	        	        	       0	(  1  0  9)	  0  1
     66.7236	        	        	        	        	    -584	(  1  0  9)	  0  1
     68.8097	        	        	        	        	       0	(  2  0  5)	  0  1
     68.8097	        	        	        	        	    -584	(  2  0  5)	  0  1
     72.7925	        	        	        	        	       0	(  2  0  6)	  0  1
     72.7925	        	        	        	        	    -584	(  2  0  6)	  0  1
     73.6322	        	        	        	        	       0	(  1  0 10)	  0  1
     73.6322	        	        	        	        	    -584	(  1  0 10)	  0  1
     75.4411	        	        	        	        	       0	(  1  1  8)	  0  1
     75.4411	        	        	        	        	    -584	(  1  1  8)	  0  1
     77.3933	        	        	        	        	       0	(  2  0  7)	  0  1
     77.3933	        	        	        	        	    -584	(  2  0  7)	  0  1
     80.9975	        	        	        	        	       0	(  1  0 11)	  0  1
     80.9975	        	        	        	        	    -584	(  1  0 11)	  0  1
     81.7919	        	        	        	        	       0	(  2  1  0)	  0  1
     81.7919	        	        	        	        	    -584	(  2  1  0)	  0  1
     81.8449	        	        	        	        	       0	(  0  0 12)	  0  1
     81.8449	        	        	        	        	    -584	(  0  0 12)	  0  1
     82.1373	        	        	        	        	       0	(  2  1  1)	  0  1
     82.1373	        	        	        	        	    -584	(  2  1  1)	  0  1
     82.6036	        	        	        	        	       0	(  2  0  8)	  0  1
     82.6036	        	        	        	        	    -584	(  2  0  8)	  0  1
     83.1717	        	        	        	        	       0	(  2  1  2)	  0  1
     83.1717	        	        	        	        	    -584	(  2  1  2)	  0  1
     84.8911	        	        	        	        	       0	(  2  1  3)	  0  1
     84.8911	        	        	        	        	    -584	(  2  1  3)	  0  1
     87.2909	        	        	        	        	       0	(  2  1  4)	  0  1
     87.2909	        	        	        	        	    -584	(  2  1  4)	  0  1
     87.9078	        	        	        	        	       0	(  1  1 10)	  0  1
     87.9078	        	        	        	        	    -584	(  1  1 10)	  0  1
     88.4380	        	        	        	        	       0	(  2  0  9)	  0  1
     88.4380	        	        	        	        	    -584	(  2  0  9)	  0  1
     88.9004	        	        	        	        	       0	(  1  0 12)	  0  1
     88.9004	        	        	        	        	    -584	(  1  0 12)	  0  1
     90.3703	        	        	        	        	       0	(  2  1  5)	  0  1
     90.3703	        	        	        	        	    -584	(  2  1  5)	  0  1
     94.1366	        	        	        	        	       0	(  2  1  6)	  0  1
     94.1366	        	        	        	        	    -584	(  2  1  6)	  0  1
     94.9436	        	        	        	        	       0	(  2  0 10)	  0  1
     94.9436	        	        	        	        	    -584	(  2  0 10)	  0  1
     95.8877	        	        	        	        	       0	(  3  0  0)	  0  1
     95.8877	        	        	        	        	    -584	(  3  0  0)	  0  1
     96.2317	        	        	        	        	       0	(  3  0  1)	  0  1
     96.2317	        	        	        	        	    -584	(  3  0  1)	  0  1
     97.2652	        	        	        	        	       0	(  3  0  2)	  0  1
     97.2652	        	        	        	        	    -584	(  3  0  2)	  0  1
     97.4736	        	        	        	        	       0	(  1  0 13)	  0  1
     97.4736	        	        	        	        	    -584	(  1  0 13)	  0  1
     98.6128	        	        	        	        	       0	(  2  1  7)	  0  1
     98.6128	        	        	        	        	    -584	(  2  1  7)	  0  1
     98.9933	        	        	        	        	       0	(  3  0  3)	  0  1
     98.9933	        	        	        	        	    -584	(  3  0  3)	  0  1
     99.7056	        	        	        	        	       0	(  0  0 14)	  0  1
     99.7056	        	        	        	        	    -584	(  0  0 14)	  0  1
    101.4270	        	        	        	        	       0	(  3  0  4)	  0  1
    101.4270	        	        	        	        	    -584	(  3  0  4)	  0  1
    102.2144	        	        	        	        	       0	(  2  0 11)	  0  1
    102.2144	        	        	        	        	    -584	(  2  0 11)	  0  1
    103.0737	        	        	        	        	       0	(  1  1 12)	  0  1
    103.0737	        	        	        	        	    -584	(  1  1 12)	  0  1
    103.8470	        	        	        	        	       0	(  2  1  8)	  0  1
    103.8470	        	        	        	        	    -584	(  2  1  8)	  0  1
    104.5880	        	        	        	        	       0	(  3  0  5)	  0  1
    104.5880	        	        	        	        	    -584	(  3  0  5)	  0  1
    106.9363	        	        	        	        	       0	(  1  0 14)	  0  1
    106.9363	        	        	        	        	    -584	(  1  0 14)	  0  1
    108.5157	        	        	        	        	       0	(  3  0  6)	  0  1
    108.5157	        	        	        	        	    -584	(  3  0  6)	  0  1
    109.9296	        	        	        	        	       0	(  2  1  9)	  0  1
    109.9296	        	        	        	        	    -584	(  2  1  9)	  0  1
    110.4224	        	        	        	        	       0	(  2  0 12)	  0  1
    110.4224	        	        	        	        	    -584	(  2  0 12)	  0  1
    113.2796	        	        	        	        	       0	(  3  0  7)	  0  1
    113.2796	        	        	        	        	    -584	(  3  0  7)	  0  1
    117.0242	        	        	        	        	       0	(  2  1 10)	  0  1
    117.0242	        	        	        	        	    -584	(  2  1 10)	  0  1
    117.6806	        	        	        	        	       0	(  1  0 15)	  0  1
    117.6806	        	        	        	        	    -584	(  1  0 15)	  0  1
    118.0851	        	        	        	        	       0	(  2  2  0)	  0  1
    118.0851	        	        	        	        	    -584	(  2  2  0)	  0  1
    119.0015	        	        	        	        	       0	(  3  0  8)	  0  1
    119.0015	        	        	        	        	    -584	(  3  0  8)	  0  1
    119.6488	        	        	        	        	       0	(  2  2  2)	  0  1
    119.6488	        	        	        	        	    -584	(  2  2  2)	  0  1
    119.8870	        	        	        	        	       0	(  2  0 13)	  0  1
    119.8870	        	        	        	        	    -584	(  2  0 13)	  0  1
    121.8019	        	        	        	        	       0	(  0  0 16)	  0  1
    121.8019	        	        	        	        	    -584	(  0  0 16)	  0  1
    122.4684	        	        	        	        	       0	(  1  1 14)	  0  1
    122.4684	        	        	        	        	    -584	(  1  1 14)	  0  1
    124.4988	        	        	        	        	       0	(  2  2  4)	  0  1
    124.4988	        	        	        	        	    -584	(  2  2  4)	  0  1
    125.4400	        	        	        	        	       0	(  2  1 11)	  0  1
    125.4400	        	        	        	        	    -584	(  2  1 11)	  0  1
    125.9033	        	        	        	        	       0	(  3  0  9)	  0  1
    125.9033	        	        	        	        	    -584	(  3  0  9)	  0  1
    126.4114	        	        	        	        	       0	(  3  1  0)	  0  1
    126.4114	        	        	        	        	    -584	(  3  1  0)	  0  1
    126.8381	        	        	        	        	       0	(  3  1  1)	  0  1
    126.8381	        	        	        	        	    -584	(  3  1  1)	  0  1
    128.1328	        	        	        	        	       0	(  3  1  2)	  0  1
    128.1328	        	        	        	        	    -584	(  3  1  2)	  0  1
    130.3438	        	        	        	        	       0	(  3  1  3)	  0  1
    130.3438	        	        	        	        	    -584	(  3  1  3)	  0  1
    130.5264	        	        	        	        	       0	(  1  0 16)	  0  1
    130.5264	        	        	        	        	    -584	(  1  0 16)	  0  1
    131.2734	        	        	        	        	       0	(  2  0 14)	  0  1
    131.2734	        	        	        	        	    -584	(  2  0 14)	  0  1
    133.3091	        	        	        	        	       0	(  2  2  6)	  0  1
    133.3091	        	        	        	        	    -584	(  2  2  6)	  0  1
    133.5683	        	        	        	        	       0	(  3  1  4)	  0  1
    133.5683	        	        	        	        	    -584	(  3  1  4)	  0  1
    134.4263	        	        	        	        	       0	(  3  0 10)	  0  1
    134.4263	        	        	        	        	    -584	(  3  0 10)	  0  1
    135.8351	        	        	        	        	       0	(  2  1 12)	  0  1
    135.8351	        	        	        	        	    -584	(  2  1 12)	  0  1
    137.9903	        	        	        	        	       0	(  3  1  5)	  0  1
    137.9903	        	        	        	        	    -584	(  3  1  5)	  0  1
    143.9812	        	        	        	        	       0	(  3  1  6)	  0  1
    143.9812	        	        	        	        	    -584	(  3  1  6)	  0  1
    145.6481	        	        	        	        	       0	(  3  0 11)	  0  1
    145.6481	        	        	        	        	    -584	(  3  0 11)	  0  1
    146.4166	        	        	        	        	       0	(  2  0 15)	  0  1
    146.4166	        	        	        	        	    -584	(  2  0 15)	  0  1
    147.9033	        	        	        	        	       0	(  1  0 17)	  0  1
    147.9033	        	        	        	        	    -584	(  1  0 17)	  0  1
    148.5838	        	        	        	        	       0	(  2  2  8)	  0  1
    148.5838	        	        	        	        	    -584	(  2  2  8)	  0  1
    150.0987	        	        	        	        	       0	(  2  1 13)	  0  1
    150.0987	        	        	        	        	    -584	(  2  1 13)	  0  1
    152.4520	        	        	        	        	       0	(  3  1  7)	  0  1
    152.4520	        	        	        	        	    -584	(  3  1  7)	  0  1
    153.5900	        	        	        	        	       0	(  1  1 16)	  0  1
    153.5900	        	        	        	        	    -584	(  1  1 16)	  0  1
    159.0166	        	        	        	        	       0	(  0  0 18)	  0  1
    159.0166	        	        	        	        	    -584	(  0  0 18)	  0  1
    164.2435	        	        	        	        	       0	(  4  0  0)	  0  1
    164.2435	        	        	        	        	    -584	(  4  0  0)	  0  1
    164.4390	        	        	        	        	       0	(  3  0 12)	  0  1
    164.4390	        	        	        	        	    -584	(  3  0 12)	  0  1
    165.5644	        	        	        	        	       0	(  4  0  1)	  0  1
    165.5644	        	        	        	        	    -584	(  4  0  1)	  0  1
    167.5669	        	        	        	        	       0	(  3  1  8)	  0  1
    167.5669	        	        	        	        	    -584	(  3  1  8)	  0  1
