MSG Master    CELL:    5.87642   5.87642  23.07461   90.0000   90.0000  120.0000   SPGR: P 63/m m c             TEMP:    449.35
  2   1280     2.52000     0.00000    -0.08690     0.00000     0.00000    0
    95    95     0     0     2
       0.00000      10.00000
     125.00000     130.00000
 2Theta	Yobs	Ycal	Yobs-Ycal	Backg	Posr	(hkl)	K
      0.7700	    0.00	 1012.89	-2290.50	  871.07
      0.8700	    0.00	 1009.25	-2290.50	  867.42
      0.9700	   43.00	 1005.63	-2290.50	  863.80
      1.0700	   48.00	 1002.03	-2290.50	  860.21
      1.1700	   56.00	  998.46	-2290.50	  856.63
      1.2700	   47.00	  994.91	-2290.50	  853.08
      1.3700	   69.00	  991.38	-2290.50	  849.55
      1.4700	  105.00	  987.87	-2290.50	  846.05
      1.5700	  307.00	  984.39	-2290.50	  842.57
      1.6700	  493.00	  980.93	-2290.50	  839.11
      1.7700	  579.00	  977.49	-2290.50	  835.67
      1.8700	  628.00	  974.08	-2290.50	  832.26
      1.9700	  685.00	  970.69	-2290.50	  828.86
      2.0700	  810.00	  967.32	-2290.50	  825.49
      2.1700	  788.00	  963.97	-2290.50	  822.15
      2.2700	  783.00	  960.64	-2290.50	  818.82
      2.3700	  783.00	  957.34	-2290.50	  815.51
      2.4700	  740.00	  954.06	-2290.50	  812.23
      2.5700	  688.00	  950.79	-2290.50	  808.97
      2.6700	  627.00	  947.56	-2290.50	  805.73
      2.7700	  651.00	  944.34	-2290.50	  802.51
      2.8700	  651.00	  941.14	-2290.50	  799.32
      2.9700	  620.00	  937.97	-2290.50	  796.14
      3.0700	  611.00	  934.81	-2290.50	  792.99
      3.1700	  651.00	  931.68	-2290.50	  789.86
      3.2700	  750.00	  928.57	-2290.50	  786.75
      3.3700	  901.00	  925.48	-2290.50	  783.65
      3.4700	 1076.00	  922.41	-2290.50	  780.59
      3.5700	 1230.00	  919.36	-2290.50	  777.54
      3.6700	 1349.00	  916.33	-2290.50	  774.51
      3.7700	 1418.00	  913.32	-2290.50	  771.50
      3.8700	 1542.00	  910.34	-2290.50	  768.51
      3.9700	 1518.00	  907.37	-2290.50	  765.55
      4.0700	 1669.00	  904.42	-2290.50	  762.60
      4.1700	 1645.00	  901.50	-2290.50	  759.67
      4.2700	 1710.00	  898.59	-2290.50	  756.77
      4.3700	 1690.00	  895.70	-2290.50	  753.88
      4.4700	 1590.00	  892.84	-2290.50	  751.02
      4.5700	 1602.00	  889.99	-2290.50	  748.17
      4.6700	 1501.00	  887.17	-2290.50	  745.34
      4.7700	 1430.00	  884.36	-2290.50	  742.54
      4.8700	 1385.00	  881.57	-2290.50	  739.75
      4.9700	 1401.00	  878.80	-2290.50	  736.98
      5.0700	 1322.00	  876.06	-2290.50	  734.23
      5.1700	 1331.00	  873.33	-2290.50	  731.50
      5.2700	 1244.00	  870.62	-2290.50	  728.79
      5.3700	 1295.00	  867.93	-2290.50	  726.10
      5.4700	 1231.00	  865.26	-2290.50	  723.43
      5.5700	 1255.00	  862.60	-2290.50	  720.78
      5.6700	 1127.00	  859.97	-2290.50	  718.15
      5.7700	 1165.00	  857.35	-2290.50	  715.53
      5.8700	 1159.00	  854.76	-2290.50	  712.94
      5.9700	 1097.00	  852.18	-2290.50	  710.36
      6.0700	 1123.00	  849.62	-2290.50	  707.80
      6.1700	 1065.00	  847.08	-2290.50	  705.26
      6.2700	 1068.00	  844.56	-2290.50	  702.74
      6.3700	 1062.00	  842.06	-2290.50	  700.23
      6.4700	  993.00	  839.57	-2290.50	  697.75
      6.5700	 1075.00	  837.10	-2290.50	  695.28
      6.6700	  951.00	  834.65	-2290.50	  692.83
      6.7700	 1039.00	  832.22	-2290.50	  690.40
      6.8700	  999.00	  829.81	-2290.50	  687.99
      6.9700	  987.00	  827.41	-2290.50	  685.59
      7.0700	  967.00	  825.03	-2290.50	  683.21
      7.1700	  903.00	  822.67	-2290.50	  680.85
      7.2700	  916.00	  820.33	-2290.50	  678.51
      7.3700	  938.00	  818.01	-2290.50	  676.18
      7.4700	  933.00	  815.70	-2290.50	  673.87
      7.5700	  858.00	  813.41	-2290.50	  671.58
      7.6700	  815.00	  811.13	-2290.50	  669.31
      7.7700	  846.00	  808.88	-2290.50	  667.05
      7.8700	  844.00	  806.64	-2290.50	  664.81
      7.9700	  854.00	  804.41	-2290.50	  662.59
      8.0700	  808.00	  802.21	-2290.50	  660.38
      8.1700	  821.00	  800.02	-2290.50	  658.19
      8.2700	  779.00	  797.85	-2290.50	  656.02
      8.3700	  823.00	  795.69	-2290.50	  653.87
      8.4700	  848.00	  793.55	-2290.50	  651.73
      8.5700	  795.00	  791.43	-2290.50	  649.60
      8.6700	  774.00	  789.32	-2290.50	  647.50
      8.7700	  786.00	  787.23	-2290.50	  645.41
      8.8700	  848.00	  785.16	-2290.50	  643.33
      8.9700	  798.00	  783.10	-2290.50	  641.28
      9.0700	  792.00	  781.06	-2290.50	  639.23
      9.1700	  736.00	  779.03	-2290.50	  637.21
      9.2700	  741.00	  777.02	-2290.50	  635.20
      9.3700	  791.00	  775.03	-2290.50	  633.21
      9.4700	  749.00	  773.05	-2290.50	  631.23
      9.5700	  782.00	  771.09	-2290.50	  629.26
      9.6700	  718.00	  769.14	-2290.50	  627.32
      9.7700	  802.00	  767.21	-2290.50	  625.39
      9.8700	  794.00	  765.29	-2290.50	  623.47
      9.9700	  761.00	  763.39	-2290.50	  621.57
     10.0700	  758.00	  763.39	-2295.89	  619.68
     10.1700	  755.00	  761.73	-2297.23	  617.81
     10.2700	  697.00	  760.11	-2353.61	  615.96
     10.3700	  721.00	  758.57	-2328.07	  614.12
     10.4700	  741.00	  757.12	-2306.62	  612.29
     10.5700	  730.00	  755.79	-2316.29	  610.48
     10.6700	  725.00	  754.65	-2320.15	  608.69
     10.7700	  731.00	  753.76	-2313.26	  606.91
     10.8700	  749.00	  753.24	-2294.74	  605.14
     10.9700	  774.00	  753.16	-2269.66	  603.39
     11.0700	  740.00	  753.60	-2304.10	  601.65
     11.1700	  757.00	  754.56	-2288.06	  599.93
     11.2700	  760.00	  756.07	-2286.57	  598.22
     11.3700	  788.00	  758.15	-2260.65	  596.53
     11.4700	  783.00	  760.90	-2268.40	  594.85
     11.5700	  726.00	  764.45	-2328.95	  593.18
     11.6700	  753.00	  769.02	-2306.52	  591.53
     11.7700	  738.00	  774.91	-2327.41	  589.89
     11.8700	  805.00	  782.46	-2267.96	  588.27
     11.9700	  804.00	  791.88	-2278.38	  586.66
     12.0700	  827.00	  802.81	-2266.31	  585.07
     12.1700	  884.00	  813.75	-2220.25	  583.48
     12.2700	  881.00	  821.43	-2230.93	  581.91
     12.3700	  833.00	  820.77	-2278.27	  580.36
     12.4700	  865.00	  808.07	-2233.57	  578.82
     12.5700	  818.00	  787.01	-2259.51	  577.29
     12.6700	  741.00	  765.71	-2315.21	  575.78
     12.7700	  752.00	  748.72	-2287.22	  574.27
     12.8700	  731.00	  736.65	-2296.15	  572.79
     12.9700	  726.00	  728.50	-2293.00	  571.31
     13.0700	  727.00	  722.95	-2286.45	  569.85
     13.1700	  725.00	  718.99	-2284.49	  568.40
     13.2700	  685.00	  715.86	-2321.36	  566.96
     13.3700	  719.00	  713.24	-2284.74	  565.54
     13.4700	  651.00	  710.92	-2350.43	  564.13
     13.5700	  712.00	  708.82	-2287.32	  562.73
     13.6700	  686.00	  706.88	-2311.38	  561.35
     13.7700	  699.00	  705.05	-2296.55	  559.97
     13.8700	  693.00	  703.32	-2300.82	  558.61
     13.9700	  715.00	  701.66	-2277.16	  557.27
     14.0700	  714.00	  700.06	-2276.56	  555.93
     14.1700	  719.00	  698.52	-2270.02	  554.61
     14.2700	  692.00	  697.02	-2295.52	  553.30
     14.3700	  693.00	  695.56	-2293.06	  552.00
     14.4700	  668.00	  694.13	-2316.63	  550.71
     14.5700	  722.00	  692.73	-2261.23	  549.44
     14.6700	  707.00	  691.36	-2274.86	  548.17
     14.7700	  666.00	  690.01	-2314.51	  546.92
     14.8700	  656.00	  688.69	-2323.19	  545.69
     14.9700	  645.00	  687.38	-2332.88	  544.46
     15.0700	  714.00	  686.10	-2262.60	  543.24
     15.1700	  649.00	  684.84	-2326.34	  542.04
     15.2700	  659.00	  683.59	-2315.09	  540.85
     15.3700	  725.00	  682.36	-2247.86	  539.67
     15.4700	  725.00	  681.14	-2246.64	  538.50
     15.5700	  687.00	  679.95	-2283.45	  537.34
     15.6700	  696.00	  678.76	-2273.26	  536.19
     15.7700	  668.00	  677.59	-2300.09	  535.06
     15.8700	  688.00	  676.44	-2278.94	  533.93
     15.9700	  662.00	  675.30	-2303.80	  532.82
     16.0700	  620.00	  674.17	-2344.67	  531.72
     16.1700	  705.00	  673.05	-2258.55	  530.63
     16.2700	  683.00	  671.95	-2279.45	  529.55
     16.3700	  702.00	  670.86	-2259.36	  528.48
     16.4700	  650.00	  669.78	-2310.28	  527.42
     16.5700	  733.00	  668.72	-2226.22	  526.37
     16.6700	  628.00	  667.66	-2330.16	  525.33
     16.7700	  677.00	  666.62	-2280.12	  524.31
     16.8700	  690.00	  665.59	-2266.09	  523.29
     16.9700	  644.00	  664.57	-2311.07	  522.28
     17.0700	  704.00	  663.57	-2250.07	  521.29
     17.1700	  670.00	  662.57	-2283.07	  520.30
     17.2700	  661.00	  661.58	-2291.08	  519.33
     17.3700	  652.00	  660.61	-2299.11	  518.36
     17.4700	  684.00	  659.65	-2266.15	  517.41
     17.5700	  693.00	  658.70	-2256.20	  516.47
     17.6700	  650.00	  657.75	-2298.25	  515.53
     17.7700	  626.00	  656.82	-2321.32	  514.61
     17.8700	  685.00	  655.90	-2261.40	  513.69
     17.9700	  670.00	  654.99	-2275.49	  512.79
     18.0700	  657.00	  654.09	-2287.59	  511.89
     18.1700	  669.00	  653.20	-2274.70	  511.01
     18.2700	  698.00	  652.32	-2244.82	  510.13
     18.3700	  667.00	  651.45	-2274.95	  509.27
     18.4700	  693.00	  650.59	-2248.09	  508.41
     18.5700	  607.00	  649.74	-2333.24	  507.57
     18.6700	  633.00	  648.91	-2306.41	  506.73
     18.7700	  658.00	  648.08	-2280.58	  505.90
     18.8700	  667.00	  647.26	-2270.75	  505.08
     18.9700	  625.00	  646.44	-2311.94	  504.27
     19.0700	  651.00	  645.64	-2285.14	  503.47
     19.1700	  638.00	  648.33	-2300.83	  502.68
     19.2700	  634.00	  647.62	-2304.12	  501.90
     19.3700	  644.00	  646.93	-2293.43	  501.13
     19.4700	  693.00	  646.24	-2243.74	  500.37
     19.5700	  698.00	  645.57	-2238.07	  499.61
     19.6700	  592.00	  644.91	-2343.41	  498.86
     19.7700	  664.00	  644.26	-2270.76	  498.13
     19.8700	  652.00	  643.63	-2282.13	  497.40
     19.9700	  654.00	  643.00	-2279.50	  496.68
     20.0700	  654.00	  642.39	-2278.89	  495.97
     20.1700	  625.00	  641.79	-2307.29	  495.27
     20.2700	  636.00	  641.21	-2295.71	  494.57
     20.3700	  635.00	  640.68	-2296.18	  493.89
     20.4700	  583.00	  640.12	-2347.62	  493.21
     20.5700	  639.00	  639.57	-2291.07	  492.54
     20.6700	  649.00	  639.04	-2280.54	  491.88
     20.7700	  650.00	  638.52	-2279.02	  491.23
     20.8700	  641.00	  638.02	-2287.52	  490.58
     20.9700	  689.00	  637.52	-2239.02	  489.95
     21.0700	  619.00	  637.05	-2308.55	  489.32
     21.1700	  633.00	  636.58	-2294.08	  488.70
     21.2700	  647.00	  636.14	-2279.64	  488.09
     21.3700	  662.00	  635.70	-2264.20	  487.48
     21.4700	  660.00	  635.29	-2265.79	  486.89
     21.5700	  654.00	  634.89	-2271.39	  486.30
     21.6700	  650.00	  634.50	-2275.00	  485.72
     21.7700	  634.00	  634.14	-2290.64	  485.15
     21.8700	  658.00	  633.79	-2266.29	  484.58
     21.9700	  602.00	  633.46	-2321.96	  484.02
     22.0700	  616.00	  633.15	-2307.65	  483.47
     22.1700	  650.00	  632.86	-2273.36	  482.93
     22.2700	  679.00	  632.60	-2244.10	  482.39
     22.3700	  623.00	  632.35	-2299.85	  481.87
     22.4700	  619.00	  632.13	-2303.63	  481.35
     22.5700	  590.00	  631.94	-2332.44	  480.83
     22.6700	  622.00	  631.98	-2300.48	  480.33
     22.7700	  634.00	  631.84	-2288.34	  479.83
     22.8700	  645.00	  631.74	-2277.24	  479.34
     22.9700	  650.00	  631.67	-2272.17	  478.85
     23.0700	  640.00	  631.64	-2282.14	  478.37
     23.1700	  637.00	  631.65	-2285.15	  477.90
     23.2700	  627.00	  631.71	-2295.21	  477.44
     23.3700	  645.00	  631.83	-2277.33	  476.98
     23.4700	  632.00	  632.00	-2290.50	  476.53
     23.5700	  595.00	  632.25	-2327.75	  476.09
     23.6700	  646.00	  632.59	-2277.09	  475.65
     23.7700	  663.00	  633.03	-2260.53	  475.22
     23.8700	  621.00	  633.62	-2303.12	  474.80
     23.9700	  658.00	  634.35	-2266.85	  474.38
     24.0700	  599.00	  635.43	-2326.93	  473.97
     24.1700	  642.00	  636.96	-2285.46	  473.57
     24.2700	  676.00	  639.18	-2253.68	  473.17
     24.3700	  635.00	  642.46	-2297.96	  472.78
     24.4700	  711.00	  647.25	-2226.75	  472.40
     24.5700	  684.00	  653.95	-2260.45	  472.02
     24.6700	  681.00	  662.72	-2272.22	  471.65
     24.7700	  678.00	  673.23	-2285.73	  471.28
     24.8700	  757.00	  684.30	-2217.80	  470.92
     24.9700	  742.00	  693.49	-2241.99	  470.57
     25.0700	  759.00	  697.21	-2228.71	  470.22
     25.1700	  745.00	  692.88	-2238.38	  469.88
     25.2700	  713.00	  682.71	-2260.21	  469.55
     25.3700	  678.00	  671.80	-2284.30	  469.22
     25.4700	  670.00	  663.30	-2283.80	  468.89
     25.5700	  632.00	  657.92	-2316.42	  468.57
     25.6700	  674.00	  655.31	-2271.81	  468.26
     25.7700	  695.00	  654.64	-2250.14	  467.96
     25.8700	  639.00	  655.32	-2306.82	  467.66
     25.9700	  654.00	  656.93	-2293.43	  467.36
     26.0700	  670.00	  659.26	-2279.76	  467.07
     26.1700	  670.00	  662.21	-2282.71	  466.79
     26.2700	  681.00	  665.80	-2275.30	  466.51
     26.3700	  664.00	  670.08	-2296.58	  466.24
     26.4700	  615.00	  675.13	-2350.63	  465.97
     26.5700	  693.00	  681.08	-2278.58	  465.71
     26.6700	  661.00	  688.11	-2317.60	  465.45
     26.7700	  735.00	  696.43	-2251.93	  465.20
     26.8700	  618.00	  706.35	-2378.85	  464.95
     26.9700	  733.00	  718.28	-2275.78	  464.71
     27.0700	  723.00	  732.75	-2300.25	  464.47
     27.1700	  738.00	  750.55	-2303.05	  464.24
     27.2700	  823.00	  772.76	-2240.26	  464.02
     27.3700	  765.00	  801.11	-2326.61	  463.80
     27.4700	  732.00	  838.70	-2397.20	  463.58
     27.5700	  791.00	  892.03	-2391.53	  463.37
     27.6700	  854.00	  975.46	-2411.96	  463.17
     27.7700	  952.00	 1118.97	-2457.47	  462.96
     27.8700	 1038.00	 1377.87	-2630.37	  462.77
     27.9700	 1411.00	 1839.48	-2718.98	  462.58
     28.0700	 1941.00	 2613.63	-2963.13	  462.39
     28.1700	 3358.00	 3788.10	-2720.60	  462.21
     28.2700	 5433.00	 5334.88	-2192.38	  462.03
     28.3700	 7713.00	 6973.78	-1551.28	  461.86
     28.4700	 9162.00	 8098.65	-1227.15	  461.69
     28.5700	 8702.00	 8003.06	-1591.56	  461.52
     28.6700	 6847.00	 6705.30	-2148.80	  461.37
     28.7700	 4937.00	 5201.69	-2555.19	  461.21
     28.8700	 3919.00	 4293.95	-2665.45	  461.06
     28.9700	 4095.00	 4138.39	-2333.89	  460.91
     29.0700	 4689.00	 4454.42	-2055.92	  460.77
     29.1700	 5126.00	 4754.58	-1919.08	  460.63
     29.2700	 4908.00	 4563.65	-1946.15	  460.50
     29.3700	 3841.00	 3784.94	-2234.44	  460.37
     29.4700	 2618.00	 2809.29	-2481.79	  460.25
     29.5700	 1780.00	 1996.97	-2507.47	  460.13
     29.6700	 1364.00	 1456.81	-2383.31	  460.01
     29.7700	 1129.00	 1147.70	-2309.20	  459.90
     29.8700	  966.00	  983.70	-2308.20	  459.79
     29.9700	  858.00	  894.27	-2326.77	  459.68
     30.0700	  859.00	  839.61	-2271.11	  459.58
     30.1700	  799.00	  801.99	-2293.49	  459.49
     30.2700	  759.00	  774.22	-2305.72	  459.39
     30.3700	  780.00	  753.33	-2263.83	  459.30
     30.4700	  731.00	  738.03	-2297.53	  459.22
     30.5700	  743.00	  728.11	-2275.61	  459.14
     30.6700	  720.00	  724.25	-2294.75	  459.06
     30.7700	  719.00	  727.78	-2299.28	  458.98
     30.8700	  781.00	  739.70	-2249.20	  458.91
     30.9700	  782.00	  759.14	-2267.64	  458.85
     31.0700	  794.00	  781.68	-2278.18	  458.78
     31.1700	  803.00	  798.45	-2285.95	  458.72
     31.2700	  801.00	  797.85	-2287.35	  458.67
     31.3700	  770.00	  774.81	-2295.31	  458.61
     31.4700	  790.00	  739.61	-2240.11	  458.56
     31.5700	  735.00	  706.14	-2261.64	  458.52
     31.6700	  698.00	  680.86	-2273.36	  458.47
     31.7700	  720.00	  664.21	-2234.71	  458.43
     31.8700	  658.00	  654.05	-2286.55	  458.40
     31.9700	  668.00	  647.85	-2270.35	  458.36
     32.0700	  681.00	  643.81	-2253.31	  458.33
     32.1700	  676.00	  640.93	-2255.43	  458.31
     32.2700	  695.00	  638.75	-2234.25	  458.28
     32.3700	  665.00	  637.08	-2262.58	  458.26
     32.4700	  644.00	  635.81	-2282.31	  458.25
     32.5700	  673.00	  634.91	-2252.41	  458.23
     32.6700	  697.00	  634.37	-2227.87	  458.22
     32.7700	  694.00	  634.19	-2230.69	  458.21
     32.8700	  641.00	  634.39	-2283.89	  458.20
     32.9700	  652.00	  635.02	-2273.52	  458.20
     33.0700	  658.00	  636.17	-2268.67	  458.20
     33.1700	  692.00	  637.96	-2236.46	  458.20
     33.2700	  683.00	  640.65	-2248.15	  458.21
     33.3700	  699.00	  644.60	-2236.10	  458.22
     33.4700	  663.00	  650.68	-2278.18	  458.23
     33.5700	  647.00	  660.57	-2304.07	  458.24
     33.6700	  643.00	  677.39	-2324.89	  458.26
     33.7700	  759.00	  706.29	-2237.79	  458.28
     33.8700	  712.00	  754.25	-2332.75	  458.30
     33.9700	  861.00	  827.84	-2257.34	  458.33
     34.0700	  943.00	  928.12	-2275.62	  458.35
     34.1700	 1105.00	 1044.08	-2229.58	  458.38
     34.2700	 1257.00	 1148.43	-2181.93	  458.41
     34.3700	 1404.00	 1199.83	-2086.33	  458.45
     34.4700	 1279.00	 1165.08	-2176.58	  458.48
     34.5700	 1083.00	 1058.94	-2266.44	  458.52
     34.6700	  928.00	  933.01	-2295.51	  458.56
     34.7700	  848.00	  825.03	-2267.53	  458.61
     34.8700	  773.00	  747.57	-2265.07	  458.65
     34.9700	  677.00	  698.43	-2311.93	  458.70
     35.0700	  686.00	  669.67	-2274.17	  458.75
     35.1700	  696.00	  653.23	-2247.73	  458.80
     35.2700	  659.00	  643.38	-2274.88	  458.86
     35.3700	  624.00	  636.94	-2303.44	  458.92
     35.4700	  646.00	  632.34	-2276.84	  458.97
     35.5700	  645.00	  628.85	-2274.35	  459.04
     35.6700	  566.00	  626.13	-2350.63	  459.10
     35.7700	  649.00	  623.96	-2265.46	  459.16
     35.8700	  620.00	  622.23	-2292.73	  459.23
     35.9700	  657.00	  620.82	-2254.32	  459.30
     36.0700	  656.00	  619.69	-2254.19	  459.37
     36.1700	  616.00	  618.78	-2293.28	  459.44
     36.2700	  601.00	  618.07	-2307.57	  459.52
     36.3700	  641.00	  617.58	-2267.08	  459.59
     36.4700	  594.00	  617.18	-2313.68	  459.67
     36.5700	  620.00	  616.93	-2287.43	  459.75
     36.6700	  605.00	  616.83	-2302.33	  459.83
     36.7700	  622.00	  616.87	-2285.37	  459.92
     36.8700	  591.00	  617.08	-2316.58	  460.00
     36.9700	  609.00	  617.47	-2298.97	  460.09
     37.0700	  638.00	  618.08	-2270.58	  460.18
     37.1700	  589.00	  618.97	-2320.47	  460.27
     37.2700	  587.00	  620.84	-2324.34	  460.36
     37.3700	  612.00	  623.03	-2301.53	  460.45
     37.4700	  600.00	  626.06	-2316.56	  460.55
     37.5700	  691.00	  630.80	-2230.30	  460.64
     37.6700	  640.00	  638.35	-2288.85	  460.74
     37.7700	  627.00	  650.28	-2313.78	  460.84
     37.8700	  680.00	  668.45	-2278.95	  460.94
     37.9700	  719.00	  694.25	-2265.75	  461.04
     38.0700	  672.00	  725.34	-2343.84	  461.15
     38.1700	  715.00	  762.43	-2337.93	  461.25
     38.2700	  788.00	  795.92	-2298.42	  461.36
     38.3700	  761.00	  814.59	-2344.09	  461.47
     38.4700	  834.00	  808.11	-2264.61	  461.57
     38.5700	  824.00	  777.78	-2244.28	  461.68
     38.6700	  715.00	  737.15	-2312.65	  461.80
     38.7700	  699.00	  698.96	-2290.46	  461.91
     38.8700	  634.00	  669.12	-2325.62	  462.02
     38.9700	  578.00	  648.51	-2361.01	  462.14
     39.0700	  597.00	  635.50	-2329.00	  462.25
     39.1700	  615.00	  627.73	-2303.23	  462.37
     39.2700	  635.00	  623.11	-2278.61	  462.49
     39.3700	  620.00	  620.25	-2290.75	  462.61
     39.4700	  647.00	  617.12	-2260.62	  462.73
     39.5700	  636.00	  615.76	-2270.26	  462.85
     39.6700	  618.00	  614.75	-2287.25	  462.97
     39.7700	  627.00	  613.98	-2277.48	  463.09
     39.8700	  609.00	  613.38	-2294.88	  463.22
     39.9700	  620.00	  612.92	-2283.42	  463.34
     40.0700	  585.00	  612.57	-2318.07	  463.47
     40.1700	  634.00	  612.31	-2268.81	  463.59
     40.2700	  650.00	  612.13	-2252.63	  463.72
     40.3700	  596.00	  612.01	-2306.50	  463.85
     40.4700	  604.00	  611.94	-2298.44	  463.98
     40.5700	  628.00	  611.91	-2274.41	  464.11
     40.6700	  597.00	  611.93	-2305.43	  464.24
     40.7700	  656.00	  612.00	-2246.50	  464.37
     40.8700	  559.00	  612.09	-2343.59	  464.50
     40.9700	  598.00	  612.75	-2305.25	  464.64
     41.0700	  616.00	  612.93	-2287.43	  464.77
     41.1700	  643.00	  613.15	-2260.65	  464.90
     41.2700	  608.00	  613.42	-2295.92	  465.04
     41.3700	  585.00	  613.73	-2319.23	  465.17
     41.4700	  586.00	  614.10	-2318.60	  465.31
     41.5700	  593.00	  614.54	-2312.04	  465.45
     41.6700	  620.00	  615.05	-2285.55	  465.58
     41.7700	  625.00	  615.72	-2281.22	  465.72
     41.8700	  610.00	  616.48	-2296.98	  465.86
     41.9700	  594.00	  617.42	-2313.92	  466.00
     42.0700	  599.00	  618.67	-2310.17	  466.13
     42.1700	  655.00	  620.43	-2255.93	  466.27
     42.2700	  618.00	  623.05	-2295.55	  466.41
     42.3700	  579.00	  627.25	-2338.75	  466.55
     42.4700	  578.00	  633.91	-2346.41	  466.69
     42.5700	  628.00	  644.12	-2306.62	  466.84
     42.6700	  638.00	  658.73	-2311.23	  466.98
     42.7700	  676.00	  677.74	-2292.24	  467.12
     42.8700	  654.00	  699.46	-2335.96	  467.26
     42.9700	  713.00	  719.70	-2297.20	  467.40
     43.0700	  722.00	  732.07	-2300.57	  467.54
     43.1700	  689.00	  730.90	-2332.40	  467.69
     43.2700	  715.00	  716.49	-2291.99	  467.83
     43.3700	  689.00	  695.27	-2296.77	  467.97
     43.4700	  587.00	  673.91	-2377.41	  468.12
     43.5700	  624.00	  656.21	-2322.71	  468.26
     43.6700	  614.00	  643.06	-2319.56	  468.40
     43.7700	  643.00	  634.24	-2281.74	  468.55
     43.8700	  632.00	  628.73	-2287.23	  468.69
     43.9700	  630.00	  625.45	-2285.95	  468.83
     44.0700	  565.00	  623.49	-2348.99	  468.98
     44.1700	  616.00	  622.49	-2296.99	  469.12
     44.2700	  597.00	  621.72	-2315.22	  469.27
     44.3700	  655.00	  621.22	-2256.72	  469.41
     44.4700	  603.00	  620.88	-2308.38	  469.55
     44.5700	  655.00	  620.67	-2256.17	  469.70
     44.6700	  659.00	  620.55	-2252.05	  469.84
     44.7700	  620.00	  620.50	-2291.00	  469.99
     44.8700	  631.00	  620.51	-2280.01	  470.13
     44.9700	  639.00	  620.57	-2272.07	  470.27
     45.0700	  662.00	  620.68	-2249.18	  470.42
     45.1700	  657.00	  620.83	-2254.33	  470.56
     45.2700	  652.00	  621.27	-2259.77	  470.70
     45.3700	  616.00	  621.49	-2295.99	  470.85
     45.4700	  672.00	  621.75	-2240.25	  470.99
     45.5700	  622.00	  622.02	-2290.52	  471.13
     45.6700	  618.00	  622.32	-2294.82	  471.28
     45.7700	  626.00	  622.66	-2287.16	  471.42
     45.8700	  629.00	  623.02	-2284.52	  471.56
     45.9700	  675.00	  623.41	-2238.91	  471.70
     46.0700	  628.00	  623.91	-2286.41	  471.84
     46.1700	  637.00	  624.37	-2277.87	  471.99
     46.2700	  627.00	  624.86	-2288.36	  472.13
     46.3700	  661.00	  625.20	-2254.70	  472.27
     46.4700	  619.00	  625.78	-2297.28	  472.41
     46.5700	  652.00	  626.42	-2264.92	  472.55
     46.6700	  635.00	  627.11	-2282.61	  472.69
     46.7700	  645.00	  627.88	-2273.38	  472.83
     46.8700	  658.00	  628.89	-2261.39	  472.97
     46.9700	  628.00	  629.85	-2292.35	  473.11
     47.0700	  632.00	  630.96	-2289.46	  473.24
     47.1700	  648.00	  632.24	-2274.74	  473.38
     47.2700	  661.00	  633.80	-2263.30	  473.52
     47.3700	  608.00	  635.81	-2318.31	  473.66
     47.4700	  611.00	  638.57	-2318.07	  473.79
     47.5700	  622.00	  642.52	-2311.02	  473.93
     47.6700	  607.00	  648.29	-2331.79	  474.07
     47.7700	  648.00	  656.57	-2299.07	  474.20
     47.8700	  682.00	  667.92	-2276.42	  474.34
     47.9700	  682.00	  682.41	-2290.91	  474.47
     48.0700	  750.00	  699.20	-2239.70	  474.60
     48.1700	  668.00	  716.10	-2338.60	  474.74
     48.2700	  673.00	  729.33	-2346.83	  474.87
     48.3700	  732.00	  734.67	-2293.17	  475.00
     48.4700	  718.00	  730.42	-2302.92	  475.13
     48.5700	  732.00	  719.22	-2277.72	  475.26
     48.6700	  702.00	  705.65	-2294.15	  475.39
     48.7700	  660.00	  693.30	-2323.80	  475.52
     48.8700	  662.00	  684.42	-2312.92	  475.65
     48.9700	  660.00	  678.79	-2309.29	  475.78
     49.0700	  629.00	  676.68	-2338.18	  475.91
     49.1700	  699.00	  677.64	-2269.14	  476.03
     49.2700	  649.00	  681.21	-2322.71	  476.16
     49.3700	  659.00	  687.17	-2318.67	  476.29
     49.4700	  649.00	  695.79	-2337.29	  476.41
     49.5700	  711.00	  708.14	-2287.64	  476.53
     49.6700	  716.00	  727.10	-2301.60	  476.66
     49.7700	  761.00	  759.07	-2288.57	  476.78
     49.8700	  846.00	  816.74	-2261.24	  476.90
     49.9700	  929.00	  921.64	-2283.14	  477.02
     50.0700	 1159.00	 1103.56	-2235.06	  477.14
     50.1700	 1469.00	 1392.65	-2214.15	  477.26
     50.2700	 1977.00	 1802.70	-2116.20	  477.38
     50.3700	 2501.00	 2308.55	-2098.05	  477.50
     50.4700	 2966.00	 2828.09	-2152.59	  477.62
     50.5700	 3269.00	 3221.86	-2243.36	  477.73
     50.6700	 3250.00	 3338.25	-2378.75	  477.85
     50.7700	 3008.00	 3120.14	-2402.64	  477.96
     50.8700	 2546.00	 2665.54	-2410.04	  478.08
     50.9700	 1953.00	 2137.59	-2475.09	  478.19
     51.0700	 1557.00	 1661.36	-2394.86	  478.30
     51.1700	 1210.00	 1298.54	-2379.04	  478.41
     51.2700	 1080.00	 1058.28	-2268.78	  478.52
     51.3700	  913.00	  917.20	-2294.70	  478.63
     51.4700	  836.00	  842.49	-2296.99	  478.74
     51.5700	  842.00	  804.59	-2253.09	  478.85
     51.6700	  823.00	  783.18	-2250.68	  478.95
     51.7700	  747.00	  767.23	-2310.73	  479.06
     51.8700	  733.00	  752.93	-2310.43	  479.16
     51.9700	  800.00	  740.31	-2230.81	  479.27
     52.0700	  717.00	  730.18	-2303.68	  479.37
     52.1700	  790.00	  722.76	-2223.26	  479.47
     52.2700	  723.00	  717.48	-2284.98	  479.57
     52.3700	  759.00	  713.19	-2244.69	  479.67
     52.4700	  753.00	  708.90	-2246.40	  479.77
     52.5700	  743.00	  704.47	-2251.97	  479.87
     52.6700	  707.00	  700.68	-2284.18	  479.97
     52.7700	  692.00	  698.48	-2296.98	  480.06
     52.8700	  721.00	  698.79	-2268.29	  480.16
     52.9700	  705.00	  702.63	-2288.13	  480.25
     53.0700	  701.00	  711.42	-2300.92	  480.34
     53.1700	  710.00	  727.25	-2307.75	  480.43
     53.2700	  714.00	  753.10	-2329.60	  480.52
     53.3700	  783.00	  792.47	-2299.97	  480.61
     53.4700	  820.00	  848.71	-2319.21	  480.70
     53.5700	  908.00	  923.50	-2306.00	  480.79
     53.6700	 1101.00	 1015.23	-2204.73	  480.87
     53.7700	 1194.00	 1116.88	-2213.38	  480.96
     53.8700	 1273.00	 1214.00	-2231.50	  481.04
     53.9700	 1329.00	 1284.54	-2246.04	  481.13
     54.0700	 1336.00	 1305.78	-2260.28	  481.21
     54.1700	 1301.00	 1269.13	-2258.63	  481.29
     54.2700	 1191.00	 1188.46	-2287.96	  481.37
     54.3700	 1056.00	 1088.22	-2322.72	  481.45
     54.4700	  961.00	  988.81	-2318.31	  481.52
     54.5700	  902.00	  902.29	-2290.79	  481.60
     54.6700	  816.00	  833.74	-2308.24	  481.67
     54.7700	  785.00	  783.50	-2289.00	  481.75
     54.8700	  755.00	  749.11	-2284.61	  481.82
     54.9700	  713.00	  726.90	-2304.40	  481.89
     55.0700	  697.00	  713.24	-2306.74	  481.96
     55.1700	  688.00	  705.22	-2307.72	  482.03
     55.2700	  694.00	  700.81	-2297.31	  482.10
     55.3700	  688.00	  698.76	-2301.26	  482.16
     55.4700	  673.00	  698.38	-2315.88	  482.23
     55.5700	  736.00	  699.33	-2253.83	  482.29
     55.6700	  710.00	  701.50	-2282.00	  482.36
     55.7700	  665.00	  704.89	-2330.39	  482.42
     55.8700	  736.00	  709.64	-2264.14	  482.48
     55.9700	  693.00	  716.03	-2313.53	  482.54
     56.0700	  671.00	  724.64	-2344.14	  482.60
     56.1700	  706.00	  736.57	-2321.07	  482.65
     56.2700	  724.00	  753.92	-2320.42	  482.71
     56.3700	  743.00	  780.57	-2328.07	  482.76
     56.4700	  856.00	  823.03	-2257.53	  482.82
     56.5700	  918.00	  891.12	-2263.62	  482.87
     56.6700	 1022.00	  997.79	-2266.29	  482.92
     56.7700	 1186.00	 1157.07	-2261.57	  482.97
     56.8700	 1450.00	 1379.72	-2220.22	  483.02
     56.9700	 1736.00	 1667.29	-2221.79	  483.06
     57.0700	 1991.00	 2004.92	-2304.42	  483.11
     57.1700	 2410.00	 2355.59	-2236.09	  483.15
     57.2700	 2663.00	 2656.57	-2284.07	  483.20
     57.3700	 2807.00	 2828.13	-2311.63	  483.24
     57.4700	 2764.00	 2810.67	-2337.17	  483.28
     57.5700	 2615.00	 2610.47	-2285.97	  483.32
     57.6700	 2220.00	 2295.23	-2365.73	  483.35
     57.7700	 1891.00	 1944.41	-2343.91	  483.39
     57.8700	 1509.00	 1616.47	-2397.97	  483.43
     57.9700	 1274.00	 1343.68	-2360.18	  483.46
     58.0700	 1011.00	 1137.41	-2416.91	  483.49
     58.1700	  936.00	  994.27	-2348.77	  483.52
     58.2700	  872.00	  903.26	-2321.76	  483.55
     58.3700	  849.00	  851.87	-2293.37	  483.58
     58.4700	  834.00	  830.13	-2286.63	  483.61
     58.5700	  826.00	  832.34	-2296.84	  483.63
     58.6700	  895.00	  856.06	-2251.56	  483.66
     58.7700	  888.00	  901.11	-2303.61	  483.68
     58.8700	  965.00	  966.73	-2292.23	  483.70
     58.9700	 1013.00	 1049.56	-2327.06	  483.73
     59.0700	 1151.00	 1141.96	-2281.46	  483.74
     59.1700	 1183.00	 1231.70	-2339.20	  483.76
     59.2700	 1209.00	 1305.25	-2386.75	  483.78
     59.3700	 1247.00	 1354.58	-2398.08	  483.79
     59.4700	 1367.00	 1378.90	-2302.40	  483.81
     59.5700	 1399.00	 1378.75	-2270.25	  483.82
     59.6700	 1370.00	 1354.23	-2274.73	  483.83
     59.7700	 1353.00	 1311.09	-2248.59	  483.84
     59.8700	 1298.00	 1263.13	-2255.63	  483.85
     59.9700	 1305.00	 1225.50	-2211.00	  483.86
     60.0700	 1323.00	 1208.94	-2176.44	  483.86
     60.1700	 1314.00	 1219.23	-2195.73	  483.87
     60.2700	 1315.00	 1259.63	-2235.13	  483.87
     60.3700	 1397.00	 1330.97	-2224.47	  483.87
     60.4700	 1470.00	 1428.30	-2248.80	  483.87
     60.5700	 1484.00	 1537.12	-2343.62	  483.87
     60.6700	 1644.00	 1632.18	-2278.68	  483.87
     60.7700	 1600.00	 1681.73	-2372.23	  483.87
     60.8700	 1516.00	 1661.04	-2435.54	  483.86
     60.9700	 1586.00	 1569.71	-2274.21	  483.86
     61.0700	 1442.00	 1431.57	-2280.07	  483.85
     61.1700	 1253.00	 1277.42	-2314.92	  483.84
     61.2700	 1084.00	 1131.89	-2338.39	  483.83
     61.3700	  973.00	 1010.15	-2327.65	  483.82
     61.4700	  915.00	  918.90	-2294.40	  483.80
     61.5700	  857.00	  858.70	-2292.20	  483.79
     61.6700	  833.00	  827.04	-2284.54	  483.77
     61.7700	  820.00	  821.34	-2291.84	  483.76
     61.8700	  834.00	  841.11	-2297.61	  483.74
     61.9700	  971.00	  888.56	-2208.06	  483.72
     62.0700	 1021.00	  967.72	-2237.22	  483.70
     62.1700	 1103.00	 1082.17	-2269.67	  483.68
     62.2700	 1306.00	 1231.79	-2216.29	  483.65
     62.3700	 1476.00	 1409.65	-2224.15	  483.63
     62.4700	 1700.00	 1599.28	-2189.78	  483.60
     62.5700	 1806.00	 1773.36	-2257.86	  483.57
     62.6700	 1907.00	 1895.54	-2279.04	  483.54
     62.7700	 1891.00	 1931.56	-2331.06	  483.51
     62.8700	 1769.00	 1869.28	-2390.78	  483.48
     62.9700	 1704.00	 1728.12	-2314.62	  483.45
     63.0700	 1465.00	 1544.77	-2370.27	  483.41
     63.1700	 1321.00	 1353.91	-2323.41	  483.38
     63.2700	 1176.00	 1179.82	-2294.32	  483.34
     63.3700	  971.00	 1036.00	-2355.50	  483.30
     63.4700	  850.00	  926.80	-2367.30	  483.26
     63.5700	  938.00	  849.96	-2202.46	  483.22
     63.6700	  795.00	  799.60	-2295.10	  483.17
     63.7700	  784.00	  768.96	-2275.46	  483.13
     63.8700	  763.00	  752.10	-2279.60	  483.08
     63.9700	  773.00	  744.81	-2262.31	  483.04
     64.0700	  795.00	  744.92	-2240.42	  482.99
     64.1700	  778.00	  751.59	-2264.09	  482.94
     64.2700	  793.00	  767.17	-2264.67	  482.89
     64.3700	  823.00	  793.78	-2261.28	  482.84
     64.4700	  829.00	  835.10	-2296.60	  482.78
     64.5700	  881.00	  895.23	-2304.73	  482.73
     64.6700	  968.00	  977.70	-2300.20	  482.67
     64.7700	 1122.00	 1084.06	-2252.56	  482.62
     64.8700	 1240.00	 1212.26	-2262.76	  482.56
     64.9700	 1350.00	 1354.92	-2295.42	  482.50
     65.0700	 1565.00	 1498.28	-2223.78	  482.43
     65.1700	 1598.00	 1622.75	-2315.25	  482.37
     65.2700	 1662.00	 1706.62	-2335.12	  482.31
     65.3700	 1690.00	 1732.46	-2332.96	  482.24
     65.4700	 1611.00	 1694.02	-2373.52	  482.18
     65.5700	 1485.00	 1600.43	-2405.93	  482.11
     65.6700	 1486.00	 1472.68	-2277.18	  482.04
     65.7700	 1260.00	 1333.28	-2363.78	  481.97
     65.8700	 1128.00	 1199.96	-2362.46	  481.90
     65.9700	 1022.00	 1083.13	-2351.63	  481.82
     66.0700	  894.00	  987.00	-2383.50	  481.75
     66.1700	  894.00	  911.74	-2308.24	  481.67
     66.2700	  821.00	  854.63	-2324.13	  481.60
     66.3700	  778.00	  812.72	-2325.22	  481.52
     66.4700	  809.00	  782.67	-2264.17	  481.44
     66.5700	  698.00	  761.53	-2354.03	  481.36
     66.6700	  677.00	  746.80	-2360.30	  481.28
     66.7700	  711.00	  736.86	-2316.36	  481.19
     66.8700	  722.00	  730.61	-2299.11	  481.11
     66.9700	  724.00	  727.40	-2293.90	  481.02
     67.0700	  691.00	  726.89	-2326.39	  480.93
     67.1700	  713.00	  729.08	-2306.58	  480.85
     67.2700	  748.00	  734.36	-2276.86	  480.76
     67.3700	  744.00	  743.68	-2290.18	  480.67
     67.4700	  746.00	  758.89	-2303.39	  480.57
     67.5700	  728.00	  783.08	-2345.58	  480.48
     67.6700	  847.00	  820.74	-2264.24	  480.39
     67.7700	  904.00	  877.81	-2264.31	  480.29
     67.8700	  958.00	  961.72	-2294.22	  480.19
     67.9700	 1098.00	 1079.91	-2272.41	  480.10
     68.0700	 1248.00	 1238.30	-2280.80	  480.00
     68.1700	 1419.00	 1438.81	-2310.31	  479.90
     68.2700	 1683.00	 1676.92	-2284.42	  479.79
     68.3700	 1923.00	 1939.58	-2307.08	  479.69
     68.4700	 2147.00	 2203.41	-2346.91	  479.59
     68.5700	 2466.00	 2434.20	-2258.70	  479.48
     68.6700	 2582.00	 2590.34	-2298.84	  479.37
     68.7700	 2738.00	 2635.43	-2187.93	  479.27
     68.8700	 2535.00	 2557.35	-2312.85	  479.16
     68.9700	 2355.00	 2376.36	-2311.86	  479.05
     69.0700	 2203.00	 2132.10	-2219.60	  478.94
     69.1700	 1877.00	 1865.03	-2278.53	  478.82
     69.2700	 1647.00	 1606.57	-2250.07	  478.71
     69.3700	 1427.00	 1377.11	-2240.61	  478.60
     69.4700	 1223.00	 1187.31	-2254.81	  478.48
     69.5700	 1064.00	 1039.58	-2266.08	  478.36
     69.6700	  964.00	  930.64	-2257.14	  478.24
     69.7700	  931.00	  853.99	-2213.49	  478.12
     69.8700	  874.00	  801.99	-2218.49	  478.00
     69.9700	  812.00	  767.58	-2246.08	  477.88
     70.0700	  766.00	  745.00	-2269.50	  477.76
     70.1700	  758.00	  730.07	-2262.57	  477.64
     70.2700	  757.00	  719.98	-2253.48	  477.51
     70.3700	  727.00	  712.98	-2276.48	  477.39
     70.4700	  747.00	  708.07	-2251.57	  477.26
     70.5700	  706.00	  704.67	-2289.17	  477.13
     70.6700	  725.00	  702.47	-2267.97	  477.00
     70.7700	  762.00	  701.34	-2229.84	  476.87
     70.8700	  756.00	  701.08	-2235.58	  476.74
     70.9700	  719.00	  702.16	-2273.66	  476.61
     71.0700	  707.00	  704.61	-2288.11	  476.47
     71.1700	  748.00	  708.91	-2251.41	  476.34
     71.2700	  744.00	  715.83	-2262.33	  476.20
     71.3700	  752.00	  726.69	-2265.19	  476.07
     71.4700	  769.00	  743.44	-2264.94	  475.93
     71.5700	  744.00	  768.87	-2315.37	  475.79
     71.6700	  809.00	  806.59	-2288.09	  475.65
     71.7700	  889.00	  860.90	-2262.40	  475.51
     71.8700	  956.00	  936.21	-2270.71	  475.37
     71.9700	 1106.00	 1036.22	-2220.72	  475.22
     72.0700	 1197.00	 1162.86	-2256.36	  475.08
     72.1700	 1300.00	 1314.86	-2305.36	  474.94
     72.2700	 1466.00	 1486.67	-2311.17	  474.79
     72.3700	 1660.00	 1667.58	-2298.08	  474.64
     72.4700	 1753.00	 1840.91	-2378.41	  474.50
     72.5700	 1937.00	 1984.53	-2338.03	  474.35
     72.6700	 2066.00	 2073.77	-2298.27	  474.20
     72.7700	 2052.00	 2089.57	-2328.07	  474.05
     72.8700	 1962.00	 2028.21	-2356.71	  473.90
     72.9700	 1850.00	 1903.47	-2343.97	  473.74
     73.0700	 1696.00	 1739.62	-2334.12	  473.59
     73.1700	 1536.00	 1559.08	-2313.58	  473.44
     73.2700	 1379.00	 1381.56	-2293.06	  473.28
     73.3700	 1201.00	 1220.02	-2309.52	  473.12
     73.4700	 1135.00	 1081.98	-2237.48	  472.97
     73.5700	  947.00	  970.17	-2313.67	  472.81
     73.6700	  898.00	  883.83	-2276.33	  472.65
     73.7700	  830.00	  819.86	-2280.36	  472.49
     73.8700	  792.00	  774.09	-2272.59	  472.33
     73.9700	  766.00	  741.68	-2266.18	  472.17
     74.0700	  724.00	  719.84	-2286.34	  472.01
     74.1700	  733.00	  705.03	-2262.53	  471.84
     74.2700	  754.00	  695.05	-2231.55	  471.68
     74.3700	  679.00	  688.46	-2299.96	  471.51
     74.4700	  680.00	  684.33	-2294.82	  471.35
     74.5700	  725.00	  682.11	-2247.60	  471.18
     74.6700	  705.00	  681.45	-2266.95	  471.01
     74.7700	  691.00	  682.11	-2281.61	  470.85
     74.8700	  684.00	  683.81	-2290.31	  470.68
     74.9700	  699.00	  686.19	-2277.69	  470.51
     75.0700	  700.00	  688.96	-2279.46	  470.34
     75.1700	  735.00	  691.57	-2247.07	  470.17
     75.2700	  698.00	  693.44	-2285.94	  469.99
     75.3700	  773.00	  694.07	-2211.57	  469.82
     75.4700	  758.00	  693.26	-2225.76	  469.65
     75.5700	  720.00	  691.20	-2261.70	  469.47
     75.6700	  734.00	  688.50	-2245.00	  469.30
     75.7700	  734.00	  685.87	-2242.37	  469.12
     75.8700	  740.00	  684.35	-2234.85	  468.95
     75.9700	  763.00	  684.77	-2212.27	  468.77
     76.0700	  693.00	  688.14	-2285.64	  468.59
     76.1700	  749.00	  695.54	-2237.04	  468.41
     76.2700	  767.00	  708.11	-2231.61	  468.23
     76.3700	  709.00	  726.99	-2308.49	  468.05
     76.4700	  763.00	  753.12	-2280.62	  467.87
     76.5700	  770.00	  787.05	-2307.55	  467.69
     76.6700	  803.00	  828.68	-2316.18	  467.51
     76.7700	  847.00	  877.01	-2320.51	  467.33
     76.8700	  922.00	  929.92	-2298.42	  467.14
     76.9700	  978.00	  983.99	-2296.49	  466.96
     77.0700	  978.00	 1034.39	-2346.89	  466.77
     77.1700	 1028.00	 1075.13	-2337.63	  466.59
     77.2700	 1089.00	 1099.93	-2301.43	  466.40
     77.3700	 1024.00	 1104.09	-2370.59	  466.22
     77.4700	 1055.00	 1086.70	-2322.20	  466.03
     77.5700	 1010.00	 1051.02	-2331.52	  465.84
     77.6700	  995.00	 1002.78	-2298.28	  465.65
     77.7700	  872.00	  948.61	-2367.11	  465.47
     77.8700	  842.00	  893.63	-2342.13	  465.28
     77.9700	  811.00	  841.79	-2321.29	  465.09
     78.0700	  793.00	  795.69	-2293.19	  464.90
     78.1700	  769.00	  756.69	-2278.19	  464.70
     78.2700	  725.00	  725.15	-2290.65	  464.51
     78.3700	  745.00	  700.63	-2246.13	  464.32
     78.4700	  689.00	  682.27	-2283.77	  464.13
     78.5700	  692.00	  668.93	-2267.43	  463.94
     78.6700	  674.00	  659.47	-2275.97	  463.74
     78.7700	  700.00	  652.84	-2243.34	  463.55
     78.8700	  616.00	  648.31	-2322.81	  463.35
     78.9700	  666.00	  645.20	-2269.70	  463.16
     79.0700	  665.00	  643.07	-2268.57	  462.96
     79.1700	  630.00	  641.63	-2302.13	  462.77
     79.2700	  651.00	  640.71	-2280.21	  462.57
     79.3700	  630.00	  640.20	-2300.70	  462.38
     79.4700	  621.00	  640.06	-2309.56	  462.18
     79.5700	  675.00	  640.28	-2255.78	  461.98
     79.6700	  600.00	  640.89	-2331.39	  461.78
     79.7700	  590.00	  641.94	-2342.44	  461.59
     79.8700	  642.00	  643.53	-2292.03	  461.39
     79.9700	  590.00	  645.81	-2346.31	  461.19
     80.0700	  653.00	  649.02	-2286.52	  460.99
     80.1700	  661.00	  653.50	-2283.00	  460.79
     80.2700	  727.00	  659.81	-2223.31	  460.59
     80.3700	  654.00	  668.75	-2305.25	  460.39
     80.4700	  739.00	  681.16	-2232.66	  460.19
     80.5700	  705.00	  699.03	-2284.53	  459.99
     80.6700	  743.00	  723.91	-2271.41	  459.79
     80.7700	  805.00	  757.81	-2243.31	  459.58
     80.8700	  831.00	  802.78	-2262.28	  459.38
     80.9700	  907.00	  860.53	-2244.03	  459.18
     81.0700	  976.00	  932.07	-2246.57	  458.98
     81.1700	 1061.00	 1017.22	-2246.72	  458.77
     81.2700	 1152.00	 1114.06	-2252.56	  458.57
     81.3700	 1249.00	 1218.63	-2260.13	  458.37
     81.4700	 1382.00	 1324.73	-2233.23	  458.17
     81.5700	 1451.00	 1424.21	-2263.71	  457.96
     81.6700	 1572.00	 1507.84	-2226.34	  457.76
     81.7700	 1580.00	 1567.17	-2277.67	  457.55
     81.8700	 1618.00	 1596.67	-2269.17	  457.35
     81.9700	 1586.00	 1594.72	-2299.22	  457.15
     82.0700	 1577.00	 1563.19	-2276.69	  456.94
     82.1700	 1491.00	 1506.57	-2306.07	  456.74
     82.2700	 1485.00	 1431.40	-2236.90	  456.53
     82.3700	 1260.00	 1345.18	-2375.68	  456.33
     82.4700	 1223.00	 1254.94	-2322.44	  456.12
     82.5700	 1195.00	 1166.31	-2261.81	  455.92
     82.6700	 1056.00	 1083.36	-2317.86	  455.71
     82.7700	  953.00	 1008.75	-2346.25	  455.50
     82.8700	  900.00	  943.83	-2334.33	  455.30
     82.9700	  877.00	  888.69	-2302.19	  455.09
     83.0700	  798.00	  842.51	-2335.01	  454.89
     83.1700	  739.00	  804.00	-2355.50	  454.68
     83.2700	  788.00	  771.89	-2274.39	  454.48
     83.3700	  688.00	  745.17	-2347.67	  454.27
     83.4700	  679.00	  723.16	-2334.66	  454.06
     83.5700	  693.00	  705.42	-2302.92	  453.86
     83.6700	  689.00	  691.66	-2293.16	  453.65
     83.7700	  651.00	  681.64	-2321.14	  453.45
     83.8700	  656.00	  675.20	-2309.70	  453.24
     83.9700	  649.00	  672.11	-2313.61	  453.03
     84.0700	  623.00	  672.09	-2339.59	  452.83
     84.1700	  670.00	  674.58	-2295.08	  452.62
     84.2700	  656.00	  679.34	-2313.84	  452.41
     84.3700	  702.00	  685.52	-2274.02	  452.21
     84.4700	  705.00	  692.22	-2277.72	  452.00
     84.5700	  722.00	  698.65	-2267.15	  451.80
     84.6700	  706.00	  703.72	-2288.22	  451.59
     84.7700	  702.00	  706.47	-2294.97	  451.39
     84.8700	  675.00	  706.23	-2321.73	  451.18
     84.9700	  679.00	  702.83	-2314.33	  450.98
     85.0700	  694.00	  696.63	-2293.13	  450.77
     85.1700	  648.00	  688.36	-2330.86	  450.56
     85.2700	  676.00	  678.92	-2293.42	  450.36
     85.3700	  649.00	  669.13	-2310.63	  450.15
     85.4700	  658.00	  659.71	-2292.21	  449.95
     85.5700	  690.00	  651.20	-2251.70	  449.75
     85.6700	  629.00	  644.03	-2305.53	  449.54
     85.7700	  619.00	  638.44	-2309.94	  449.34
     85.8700	  589.00	  634.60	-2336.10	  449.13
     85.9700	  675.00	  632.57	-2248.07	  448.93
     86.0700	  672.00	  632.39	-2250.89	  448.73
     86.1700	  623.00	  634.02	-2301.52	  448.52
     86.2700	  639.00	  637.46	-2288.96	  448.32
     86.3700	  647.00	  642.65	-2286.15	  448.12
     86.4700	  668.00	  649.50	-2272.00	  447.91
     86.5700	  640.00	  657.85	-2308.35	  447.71
     86.6700	  615.00	  667.48	-2342.98	  447.51
     86.7700	  667.00	  678.04	-2301.54	  447.31
     86.8700	  691.00	  689.15	-2288.65	  447.11
     86.9700	  695.00	  700.28	-2295.78	  446.91
     87.0700	  688.00	  710.85	-2313.35	  446.70
     87.1700	  674.00	  720.34	-2336.84	  446.50
     87.2700	  712.00	  728.39	-2306.89	  446.30
     87.3700	  705.00	  734.98	-2320.48	  446.10
     87.4700	  729.00	  740.45	-2301.95	  445.91
     87.5700	  720.00	  745.37	-2315.87	  445.71
     87.6700	  720.00	  750.28	-2320.78	  445.51
     87.7700	  738.00	  755.53	-2308.03	  445.31
     87.8700	  767.00	  761.21	-2284.71	  445.11
     87.9700	  718.00	  767.07	-2339.57	  444.91
     88.0700	  821.00	  772.55	-2242.05	  444.72
     88.1700	  756.00	  776.82	-2311.32	  444.52
     88.2700	  791.00	  778.87	-2278.37	  444.32
     88.3700	  756.00	  777.82	-2312.32	  444.13
     88.4700	  744.00	  773.16	-2319.66	  443.93
     88.5700	  776.00	  764.96	-2279.46	  443.74
     88.6700	  711.00	  753.81	-2333.31	  443.54
     88.7700	  719.00	  740.23	-2311.73	  443.35
     88.8700	  742.00	  726.02	-2274.52	  443.16
     88.9700	  749.00	  711.72	-2253.22	  442.96
     89.0700	  754.00	  698.14	-2234.64	  442.77
     89.1700	  688.00	  685.93	-2288.43	  442.58
     89.2700	  639.00	  675.59	-2327.09	  442.39
     89.3700	  690.00	  667.42	-2267.92	  442.20
     89.4700	  701.00	  661.54	-2251.04	  442.01
     89.5700	  674.00	  657.88	-2274.38	  441.82
     89.6700	  639.00	  656.21	-2307.71	  441.63
     89.7700	  652.00	  656.20	-2294.70	  441.44
     89.8700	  742.00	  657.38	-2205.88	  441.26
     89.9700	  707.00	  659.23	-2242.73	  441.07
     90.0700	  713.00	  661.18	-2238.68	  440.88
     90.1700	  692.00	  662.64	-2261.14	  440.70
     90.2700	  683.00	  663.12	-2270.62	  440.51
     90.3700	  700.00	  662.27	-2252.77	  440.33
     90.4700	  674.00	  659.97	-2276.47	  440.14
     90.5700	  717.00	  656.36	-2229.86	  439.96
     90.6700	  687.00	  651.73	-2255.23	  439.78
     90.7700	  698.00	  646.46	-2238.96	  439.60
     90.8700	  689.00	  640.91	-2242.41	  439.41
     90.9700	  649.00	  635.40	-2276.90	  439.23
     91.0700	  653.00	  630.20	-2267.70	  439.05
     91.1700	  594.00	  625.49	-2321.99	  438.88
     91.2700	  644.00	  621.40	-2267.90	  438.70
     91.3700	  611.00	  617.99	-2297.49	  438.52
     91.4700	  614.00	  615.27	-2291.77	  438.34
     91.5700	  642.00	  613.21	-2261.71	  438.17
     91.6700	  631.00	  611.77	-2271.27	  437.99
     91.7700	  620.00	  610.88	-2281.38	  437.82
     91.8700	  600.00	  610.51	-2301.01	  437.65
     91.9700	  607.00	  610.60	-2294.10	  437.47
     92.0700	  572.00	  611.16	-2329.66	  437.30
     92.1700	  634.00	  612.22	-2268.72	  437.13
     92.2700	  602.00	  613.84	-2302.34	  436.96
     92.3700	  582.00	  616.13	-2324.63	  436.79
     92.4700	  636.00	  619.24	-2273.74	  436.62
     92.5700	  665.00	  623.36	-2248.86	  436.46
     92.6700	  601.00	  628.69	-2318.19	  436.29
     92.7700	  611.00	  635.47	-2314.97	  436.12
     92.8700	  639.00	  643.93	-2295.43	  435.96
     92.9700	  686.00	  654.27	-2258.77	  435.79
     93.0700	  634.00	  666.63	-2323.13	  435.63
     93.1700	  698.00	  681.08	-2273.58	  435.47
     93.2700	  654.00	  697.60	-2334.09	  435.31
     93.3700	  631.00	  716.01	-2375.51	  435.15
     93.4700	  710.00	  736.02	-2316.52	  434.99
     93.5700	  728.00	  757.19	-2319.69	  434.83
     93.6700	  761.00	  778.90	-2308.40	  434.67
     93.7700	  769.00	  800.44	-2321.94	  434.52
     93.8700	  780.00	  821.01	-2331.51	  434.36
     93.9700	  753.00	  839.86	-2377.36	  434.21
     94.0700	  786.00	  856.51	-2361.01	  434.06
     94.1700	  795.00	  870.90	-2366.40	  433.90
     94.2700	  867.00	  883.14	-2306.64	  433.75
     94.3700	  872.00	  894.59	-2313.09	  433.60
     94.4700	  914.00	  905.82	-2282.32	  433.45
     94.5700	  914.00	  917.59	-2294.09	  433.31
     94.6700	  923.00	  930.46	-2297.96	  433.16
     94.7700	  923.00	  944.76	-2312.26	  433.01
     94.8700	 1002.00	  960.60	-2249.10	  432.87
     94.9700	 1003.00	  978.02	-2265.52	  432.72
     95.0700	 1028.00	  996.92	-2259.42	  432.58
     95.1700	 1039.00	 1017.08	-2268.58	  432.44
     95.2700	 1027.00	 1038.01	-2301.51	  432.30
     95.3700	 1101.00	 1058.79	-2248.29	  432.16
     95.4700	 1045.00	 1078.02	-2323.52	  432.02
     95.5700	 1068.00	 1093.90	-2316.40	  431.89
     95.6700	 1052.00	 1104.42	-2342.92	  431.75
     95.7700	 1081.00	 1107.67	-2317.17	  431.62
     95.8700	 1073.00	 1102.26	-2319.76	  431.48
     95.9700	 1075.00	 1087.77	-2303.27	  431.35
     96.0700	 1032.00	 1064.85	-2323.35	  431.22
     96.1700	 1022.00	 1035.10	-2303.60	  431.09
     96.2700	 1024.00	 1000.74	-2267.24	  430.96
     96.3700	  936.00	  964.20	-2318.70	  430.84
     96.4700	  920.00	  927.93	-2298.43	  430.71
     96.5700	  838.00	  894.19	-2346.69	  430.59
     96.6700	  957.00	  865.04	-2198.54	  430.46
     96.7700	  860.00	  842.20	-2272.70	  430.34
     96.8700	  848.00	  827.13	-2269.63	  430.22
     96.9700	  799.00	  820.99	-2312.49	  430.10
     97.0700	  865.00	  824.69	-2250.19	  429.98
     97.1700	  931.00	  838.89	-2198.39	  429.87
     97.2700	  903.00	  864.00	-2251.50	  429.75
     97.3700	  953.00	  900.20	-2237.70	  429.64
     97.4700	 1030.00	  947.35	-2207.85	  429.53
     97.5700	 1095.00	 1004.97	-2200.47	  429.41
     97.6700	 1130.00	 1072.16	-2232.66	  429.30
     97.7700	 1109.00	 1147.49	-2328.99	  429.20
     97.8700	 1222.00	 1228.95	-2297.45	  429.09
     97.9700	 1377.00	 1313.89	-2227.39	  428.98
     98.0700	 1437.00	 1398.98	-2252.48	  428.88
     98.1700	 1443.00	 1480.29	-2327.79	  428.77
     98.2700	 1526.00	 1553.37	-2317.87	  428.67
     98.3700	 1551.00	 1613.49	-2352.99	  428.57
     98.4700	 1611.00	 1656.25	-2335.75	  428.47
     98.5700	 1608.00	 1678.27	-2360.77	  428.38
     98.6700	 1617.00	 1677.97	-2351.47	  428.28
     98.7700	 1599.00	 1655.86	-2347.36	  428.19
     98.8700	 1516.00	 1614.45	-2388.95	  428.09
     98.9700	 1536.00	 1557.56	-2312.06	  428.00
     99.0700	 1432.00	 1489.71	-2348.21	  427.91
     99.1700	 1448.00	 1415.43	-2257.93	  427.82
     99.2700	 1277.00	 1338.98	-2352.48	  427.74
     99.3700	 1275.00	 1264.20	-2279.70	  427.65
     99.4700	 1247.00	 1194.34	-2237.84	  427.57
     99.5700	 1175.00	 1132.11	-2247.61	  427.48
     99.6700	 1083.00	 1079.69	-2287.19	  427.40
     99.7700	 1080.00	 1038.75	-2249.25	  427.32
     99.8700	  988.00	 1010.61	-2313.10	  427.25
     99.9700	 1051.00	  996.18	-2235.68	  427.17
    100.0700	 1042.00	  996.08	-2244.58	  427.09
    100.1700	 1046.00	 1010.60	-2255.10	  427.02
    100.2700	 1100.00	 1039.74	-2230.24	  426.95
    100.3700	 1092.00	 1083.20	-2281.70	  426.88
    100.4700	 1169.00	 1140.33	-2261.83	  426.81
    100.5700	 1233.00	 1210.14	-2267.64	  426.74
    100.6700	 1338.00	 1291.23	-2243.73	  426.68
    100.7700	 1408.00	 1381.61	-2264.11	  426.62
    100.8700	 1450.00	 1479.13	-2319.63	  426.55
    100.9700	 1594.00	 1580.76	-2277.26	  426.49
    101.0700	 1680.00	 1683.14	-2293.64	  426.43
    101.1700	 1800.00	 1782.51	-2273.01	  426.38
    101.2700	 1920.00	 1875.06	-2245.56	  426.32
    101.3700	 1931.00	 1957.31	-2316.81	  426.27
    101.4700	 1956.00	 2026.53	-2361.03	  426.22
    101.5700	 2049.00	 2080.94	-2322.44	  426.17
    101.6700	 2169.00	 2119.63	-2241.13	  426.12
    101.7700	 2166.00	 2142.28	-2266.78	  426.07
    101.8700	 2142.00	 2148.75	-2297.25	  426.03
    101.9700	 2093.00	 2138.95	-2336.45	  425.98
    102.0700	 2051.00	 2113.03	-2352.53	  425.94
    102.1700	 2164.00	 2071.71	-2198.21	  425.90
    102.2700	 2025.00	 2016.69	-2282.19	  425.86
    102.3700	 2003.00	 1950.71	-2238.21	  425.82
    102.4700	 1920.00	 1877.35	-2247.85	  425.79
    102.5700	 1820.00	 1800.50	-2271.00	  425.76
    102.6700	 1819.00	 1723.90	-2195.40	  425.73
    102.7700	 1672.00	 1650.72	-2269.22	  425.70
    102.8700	 1610.00	 1583.32	-2263.82	  425.67
    102.9700	 1619.00	 1523.26	-2194.76	  425.64
    103.0700	 1489.00	 1471.28	-2272.78	  425.62
    103.1700	 1434.00	 1427.35	-2283.85	  425.60
    103.2700	 1377.00	 1390.75	-2304.25	  425.57
    103.3700	 1397.00	 1360.21	-2253.71	  425.56
    103.4700	 1373.00	 1333.94	-2251.44	  425.54
    103.5700	 1299.00	 1309.87	-2301.37	  425.52
    103.6700	 1307.00	 1285.86	-2269.36	  425.51
    103.7700	 1236.00	 1259.98	-2314.48	  425.50
    103.8700	 1210.00	 1230.83	-2311.33	  425.49
    103.9700	 1148.00	 1197.71	-2340.21	  425.48
    104.0700	 1167.00	 1160.62	-2284.12	  425.48
    104.1700	 1110.00	 1120.18	-2300.68	  425.47
    104.2700	 1141.00	 1077.33	-2226.83	  425.47
    104.3700	 1052.00	 1033.20	-2271.70	  425.47
    104.4700	  940.00	  988.90	-2339.40	  425.47
    104.5700	  930.00	  945.47	-2305.97	  425.47
    104.6700	  984.00	  903.81	-2210.31	  425.48
    104.7700	  932.00	  864.66	-2223.16	  425.49
    104.8700	  889.00	  828.57	-2230.07	  425.50
    104.9700	  829.00	  795.93	-2257.43	  425.51
    105.0700	  777.00	  766.87	-2280.37	  425.52
    105.1700	  797.00	  741.60	-2235.10	  425.54
    105.2700	  732.00	  719.95	-2278.45	  425.55
    105.3700	  698.00	  701.72	-2294.22	  425.57
    105.4700	  698.00	  686.64	-2279.14	  425.59
    105.5700	  703.00	  674.39	-2261.89	  425.62
    105.6700	  660.00	  664.64	-2295.14	  425.64
    105.7700	  697.00	  656.99	-2250.49	  425.67
    105.8700	  676.00	  651.24	-2265.74	  425.70
    105.9700	  620.00	  647.07	-2317.57	  425.73
    106.0700	  663.00	  644.26	-2271.76	  425.76
    106.1700	  668.00	  642.63	-2265.13	  425.79
    106.2700	  622.00	  642.04	-2310.54	  425.83
    106.3700	  624.00	  642.43	-2308.93	  425.87
    106.4700	  615.00	  643.74	-2319.24	  425.91
    106.5700	  677.00	  645.98	-2259.48	  425.95
    106.6700	  648.00	  649.17	-2291.67	  426.00
    106.7700	  648.00	  653.35	-2295.85	  426.04
    106.8700	  688.00	  658.58	-2261.08	  426.09
    106.9700	  644.00	  664.93	-2311.43	  426.14
    107.0700	  704.00	  672.46	-2258.96	  426.20
    107.1700	  660.00	  681.19	-2311.69	  426.25
    107.2700	  663.00	  691.13	-2318.63	  426.31
    107.3700	  703.00	  702.25	-2289.75	  426.37
    107.4700	  718.00	  714.43	-2286.93	  426.43
    107.5700	  730.00	  727.53	-2288.03	  426.49
    107.6700	  657.00	  741.32	-2374.82	  426.56
    107.7700	  753.00	  755.51	-2293.01	  426.62
    107.8700	  742.00	  769.73	-2318.23	  426.69
    107.9700	  729.00	  783.59	-2345.09	  426.76
    108.0700	  776.00	  796.62	-2311.12	  426.84
    108.1700	  750.00	  808.37	-2348.87	  426.91
    108.2700	  707.00	  818.34	-2401.84	  426.99
    108.3700	  813.00	  826.22	-2303.72	  427.07
    108.4700	  756.00	  831.75	-2366.25	  427.15
    108.5700	  800.00	  834.87	-2325.37	  427.24
    108.6700	  750.00	  835.73	-2376.23	  427.32
    108.7700	  768.00	  834.69	-2357.19	  427.41
    108.8700	  792.00	  832.22	-2330.72	  427.50
    108.9700	  800.00	  828.83	-2319.33	  427.59
    109.0700	  815.00	  825.07	-2300.57	  427.69
    109.1700	  751.00	  821.41	-2360.91	  427.78
    109.2700	  799.00	  818.23	-2309.73	  427.88
    109.3700	  763.00	  815.83	-2343.33	  427.98
    109.4700	  749.00	  814.38	-2355.88	  428.09
    109.5700	  758.00	  813.92	-2346.42	  428.19
    109.6700	  789.00	  814.39	-2315.89	  428.30
    109.7700	  777.00	  815.59	-2329.09	  428.41
    109.8700	  755.00	  817.23	-2352.73	  428.52
    109.9700	  822.00	  818.92	-2287.42	  428.63
    110.0700	  819.00	  820.23	-2291.73	  428.75
    110.1700	  831.00	  820.66	-2280.16	  428.87
    110.2700	  826.00	  819.83	-2284.33	  428.99
    110.3700	  763.00	  817.38	-2344.88	  429.11
    110.4700	  810.00	  813.12	-2293.62	  429.24
    110.5700	  822.00	  807.03	-2275.53	  429.36
    110.6700	  771.00	  799.23	-2318.73	  429.49
    110.7700	  775.00	  789.95	-2305.45	  429.62
    110.8700	  769.00	  779.53	-2301.03	  429.76
    110.9700	  763.00	  768.32	-2295.82	  429.89
    111.0700	  723.00	  756.67	-2324.17	  430.03
    111.1700	  721.00	  744.90	-2314.40	  430.17
    111.2700	  758.00	  733.33	-2265.83	  430.31
    111.3700	  681.00	  722.20	-2331.70	  430.46
    111.4700	  708.00	  711.73	-2294.23	  430.61
    111.5700	  745.00	  702.08	-2247.58	  430.75
    111.6700	  726.00	  693.39	-2257.89	  430.91
    111.7700	  673.00	  685.74	-2303.24	  431.06
    111.8700	  664.00	  679.16	-2305.66	  431.21
    111.9700	  701.00	  673.66	-2263.16	  431.37
    112.0700	  670.00	  669.21	-2289.71	  431.53
    112.1700	  640.00	  665.77	-2316.27	  431.69
    112.2700	  678.00	  663.25	-2275.75	  431.86
    112.3700	  621.00	  661.58	-2331.08	  432.03
    112.4700	  708.00	  660.66	-2243.16	  432.19
    112.5700	  606.00	  660.38	-2344.88	  432.37
    112.6700	  658.00	  660.65	-2293.15	  432.54
    112.7700	  641.00	  661.37	-2310.87	  432.72
    112.8700	  631.00	  662.44	-2321.94	  432.89
    112.9700	  668.00	  663.80	-2286.30	  433.07
    113.0700	  627.00	  665.36	-2328.86	  433.26
    113.1700	  604.00	  667.08	-2353.58	  433.44
    113.2700	  654.00	  668.91	-2305.41	  433.63
    113.3700	  617.00	  670.83	-2344.33	  433.82
    113.4700	  628.00	  672.84	-2335.34	  434.01
    113.5700	  668.00	  674.97	-2297.47	  434.20
    113.6700	  638.00	  677.23	-2329.73	  434.40
    113.7700	  626.00	  679.67	-2344.17	  434.60
    113.8700	  677.00	  682.33	-2295.83	  434.80
    113.9700	  682.00	  685.32	-2293.82	  435.00
    114.0700	  683.00	  688.70	-2296.20	  435.20
    114.1700	  663.00	  692.58	-2320.08	  435.41
    114.2700	  641.00	  697.08	-2346.58	  435.62
    114.3700	  674.00	  702.37	-2318.87	  435.83
    114.4700	  658.00	  708.66	-2341.16	  436.04
    114.5700	  687.00	  716.22	-2319.72	  436.26
    114.6700	  687.00	  725.41	-2328.91	  436.48
    114.7700	  741.00	  736.65	-2286.15	  436.70
    114.8700	  784.00	  750.54	-2257.04	  436.92
    114.9700	  824.00	  767.77	-2234.27	  437.15
    115.0700	  800.00	  789.24	-2279.74	  437.38
    115.1700	  815.00	  816.04	-2291.54	  437.60
    115.2700	  889.00	  849.49	-2250.99	  437.84
    115.3700	  933.00	  891.17	-2248.67	  438.07
    115.4700	  982.00	  942.90	-2251.40	  438.31
    115.5700	 1071.00	 1006.79	-2226.29	  438.55
    115.6700	 1319.00	 1085.16	-2056.66	  438.79
    115.7700	 1293.00	 1180.59	-2178.09	  439.03
    115.8700	 1499.00	 1295.82	-2087.32	  439.28
    115.9700	 1615.00	 1433.63	-2109.13	  439.52
    116.0700	 1793.00	 1596.78	-2094.28	  439.77
    116.1700	 2015.00	 1787.83	-2063.33	  440.03
    116.2700	 2245.00	 2009.04	-2054.54	  440.28
    116.3700	 2550.00	 2262.19	-2002.69	  440.54
    116.4700	 2922.00	 2548.27	-1916.77	  440.79
    116.5700	 3177.00	 2867.39	-1980.89	  441.06
    116.6700	 3311.00	 3218.54	-2198.04	  441.32
    116.7700	 3782.00	 3599.52	-2108.02	  441.59
    116.8700	 4203.00	 4006.89	-2094.39	  441.85
    116.9700	 4553.00	 4435.58	-2173.08	  442.12
    117.0700	 4934.00	 4879.13	-2235.63	  442.40
    117.1700	 5304.00	 5329.61	-2316.11	  442.67
    117.2700	 5674.00	 5777.90	-2394.40	  442.95
    117.3700	 6060.00	 6213.71	-2444.21	  443.23
    117.4700	 6499.00	 6625.69	-2417.19	  443.51
    117.5700	 6806.00	 7001.98	-2486.48	  443.79
    117.6700	 7062.00	 7330.53	-2559.03	  444.08
    117.7700	 7375.00	 7599.89	-2515.39	  444.36
    117.8700	 7423.00	 7799.89	-2667.39	  444.65
    117.9700	 7606.00	 7922.42	-2606.92	  444.95
    118.0700	 7498.00	 7962.47	-2754.97	  445.24
    118.1700	 7410.00	 7918.65	-2799.15	  445.54
    118.2700	 7464.00	 7793.33	-2619.83	  445.84
    118.3700	 7243.00	 7592.32	-2639.82	  446.14
    118.4700	 7081.00	 7324.27	-2533.77	  446.44
    118.5700	 6765.00	 6999.73	-2525.23	  446.75
    118.6700	 6402.00	 6630.40	-2518.90	  447.06
    118.7700	 6029.00	 6228.10	-2489.60	  447.37
    118.8700	 5790.00	 5804.37	-2304.87	  447.68
    118.9700	 5401.00	 5370.16	-2259.66	  447.99
    119.0700	 5089.00	 4935.34	-2136.84	  448.31
    119.1700	 4714.00	 4508.62	-2085.12	  448.63
    119.2700	 4368.00	 4097.21	-2019.71	  448.95
    119.3700	 4050.00	 3706.88	-1947.38	  449.27
    119.4700	 3638.00	 3342.09	-1994.59	  449.60
    119.5700	 3333.00	 3005.83	-1963.33	  449.92
    119.6700	 3124.00	 2699.86	-1866.36	  450.25
    119.7700	 2764.00	 2424.69	-1951.19	  450.59
    119.8700	 2448.00	 2179.90	-2022.40	  450.92
    119.9700	 2261.00	 1964.40	-1993.90	  451.26
    120.0700	 2086.00	 1776.43	-1980.93	  451.59
    120.1700	 1846.00	 1613.90	-2058.40	  451.93
    120.2700	 1693.00	 1474.39	-2071.89	  452.28
    120.3700	 1561.00	 1355.41	-2084.91	  452.62
    120.4700	 1440.00	 1254.50	-2105.00	  452.97
    120.5700	 1288.00	 1169.27	-2171.77	  453.32
    120.6700	 1294.00	 1097.50	-2094.00	  453.67
    120.7700	 1217.00	 1037.16	-2110.66	  454.02
    120.8700	 1071.00	  986.43	-2205.93	  454.38
    120.9700	 1084.00	  943.78	-2150.28	  454.73
    121.0700	 1035.00	  907.85	-2163.35	  455.09
    121.1700	  959.00	  877.54	-2209.04	  455.46
    121.2700	  910.00	  851.91	-2232.41	  455.82
    121.3700	  929.00	  830.22	-2191.72	  456.19
    121.4700	  831.00	  811.85	-2271.35	  456.55
    121.5700	  798.00	  796.32	-2288.82	  456.92
    121.6700	  711.00	  783.24	-2362.74	  457.29
    121.7700	  723.00	  772.29	-2339.79	  457.67
    121.8700	  791.00	  763.23	-2262.73	  458.05
    121.9700	  739.00	  755.87	-2307.37	  458.42
    122.0700	  715.00	  750.05	-2325.55	  458.80
    122.1700	  737.00	  745.64	-2299.14	  459.19
    122.2700	  701.00	  742.54	-2332.04	  459.57
    122.3700	  706.00	  740.66	-2325.16	  459.96
    122.4700	  686.00	  739.94	-2344.44	  460.34
    122.5700	  722.00	  740.30	-2308.80	  460.74
    122.6700	  734.00	  741.70	-2298.20	  461.13
    122.7700	  659.00	  744.07	-2375.57	  461.52
    122.8700	  704.00	  747.38	-2333.88	  461.92
    122.9700	  715.00	  751.55	-2327.05	  462.32
    123.0700	  664.00	  756.53	-2383.03	  462.72
    123.1700	  719.00	  762.25	-2333.75	  463.12
    123.2700	  746.00	  768.65	-2313.15	  463.52
    123.3700	  743.00	  775.63	-2323.13	  463.93
    123.4700	  766.00	  783.10	-2307.60	  464.34
    123.5700	  736.00	  790.96	-2345.46	  464.75
    123.6700	  797.00	  799.11	-2292.61	  465.16
    123.7700	  830.00	  807.43	-2267.93	  465.57
    123.8700	  787.00	  815.78	-2319.28	  465.99
    123.9700	  824.00	  824.05	-2290.55	  466.41
    124.0700	  780.00	  832.11	-2342.61	  466.83
    124.1700	  779.00	  839.82	-2351.32	  467.25
    124.2700	  782.00	  847.09	-2355.59	  467.67
    124.3700	  758.00	  853.83	-2386.33	  468.10
    124.4700	  815.00	  859.93	-2335.43	  468.53
    124.5700	  812.00	  865.42	-2343.92	  468.95
    124.6700	  818.00	  870.27	-2342.77	  469.39
    124.7700	  842.00	  874.50	-2323.00	  469.82
    124.8700	  777.00	  878.15	-2391.65	  470.25
    124.9700	  861.00	  612.51	-2042.01	  470.69
    125.0700	  857.00	  612.95	-2290.50	  471.13
    125.1700	  881.00	  613.39	-2290.50	  471.57
    125.2700	  826.00	  613.83	-2290.50	  472.01
    125.3700	  801.00	  614.28	-2290.50	  472.45
    125.4700	  878.00	  614.72	-2290.50	  472.90
    125.5700	  858.00	  615.17	-2290.50	  473.35
    125.6700	  838.00	  615.62	-2290.50	  473.80
    125.7700	  814.00	  616.07	-2290.50	  474.25
    125.8700	  805.00	  616.52	-2290.50	  474.70
    125.9700	  862.00	  616.98	-2290.50	  475.15
    126.0700	  858.00	  617.43	-2290.50	  475.61
    126.1700	  801.00	  617.89	-2290.50	  476.07
    126.2700	  825.00	  618.35	-2290.50	  476.53
    126.3700	  822.00	  618.81	-2290.50	  476.99
    126.4700	  801.00	  619.27	-2290.50	  477.45
    126.5700	  836.00	  619.74	-2290.50	  477.92
    126.6700	  765.00	  620.20	-2290.50	  478.38
    126.7700	  750.00	  620.67	-2290.50	  478.85
    126.8700	  751.00	  621.14	-2290.50	  479.32
    126.9700	  802.00	  621.61	-2290.50	  479.79
    127.0700	  747.00	  622.09	-2290.50	  480.26
    127.1700	  687.00	  622.56	-2290.50	  480.74
    127.2700	  666.00	  623.04	-2290.50	  481.21
    127.3700	  742.00	  623.51	-2290.50	  481.69
    127.4700	  687.00	  623.99	-2290.50	  482.17
    127.5700	  688.00	  624.47	-2290.50	  482.65
    127.6700	  654.00	  624.95	-2290.50	  483.13
    127.7700	  699.00	  625.44	-2290.50	  483.61
    127.8700	  706.00	  625.92	-2290.50	  484.10
    127.9700	  677.00	  626.41	-2290.50	  484.59
    128.0700	  694.00	  626.90	-2290.50	  485.07
    128.1700	  675.00	  627.39	-2290.50	  485.56
    128.2700	  684.00	  627.88	-2290.50	  486.06
    128.3700	  687.00	  628.37	-2290.50	  486.55
    128.4700	  683.00	  628.87	-2290.50	  487.04
    128.5700	    0.00	  629.36	-2290.50	  487.54
    128.6700	    0.00	  629.86	-2290.50	  488.03
     12.4529	        	        	        	        	       0	(  0  0  2)	  0  1
     12.4529	        	        	        	        	    -572	(  0  0  2)	  0  1
     25.1460	        	        	        	        	       0	(  0  0  4)	  0  1
     25.1460	        	        	        	        	    -572	(  0  0  4)	  0  1
     28.5826	        	        	        	        	       0	(  1  0  0)	  0  1
     28.5826	        	        	        	        	    -572	(  1  0  0)	  0  1
     29.2869	        	        	        	        	       0	(  1  0  1)	  0  1
     29.2869	        	        	        	        	    -572	(  1  0  1)	  0  1
     31.3135	        	        	        	        	       0	(  1  0  2)	  0  1
     31.3135	        	        	        	        	    -572	(  1  0  2)	  0  1
     34.4532	        	        	        	        	       0	(  1  0  3)	  0  1
     34.4532	        	        	        	        	    -572	(  1  0  3)	  0  1
     38.1637	        	        	        	        	       0	(  0  0  6)	  0  1
     38.1637	        	        	        	        	    -572	(  0  0  6)	  0  1
     38.4705	        	        	        	        	       0	(  1  0  4)	  0  1
     38.4705	        	        	        	        	    -572	(  1  0  4)	  0  1
     43.1681	        	        	        	        	       0	(  1  0  5)	  0  1
     43.1681	        	        	        	        	    -572	(  1  0  5)	  0  1
     48.4061	        	        	        	        	       0	(  1  0  6)	  0  1
     48.4061	        	        	        	        	    -572	(  1  0  6)	  0  1
     50.7001	        	        	        	        	       0	(  1  1  0)	  0  1
     50.7001	        	        	        	        	    -572	(  1  1  0)	  0  1
     51.7188	        	        	        	        	       0	(  0  0  8)	  0  1
     51.7188	        	        	        	        	    -572	(  0  0  8)	  0  1
     52.4428	        	        	        	        	       0	(  1  1  2)	  0  1
     52.4428	        	        	        	        	    -572	(  1  1  2)	  0  1
     54.0970	        	        	        	        	       0	(  1  0  7)	  0  1
     54.0970	        	        	        	        	    -572	(  1  0  7)	  0  1
     57.4479	        	        	        	        	       0	(  1  1  4)	  0  1
     57.4479	        	        	        	        	    -572	(  1  1  4)	  0  1
     59.2754	        	        	        	        	       0	(  2  0  0)	  0  1
     59.2754	        	        	        	        	    -572	(  2  0  0)	  0  1
     59.6718	        	        	        	        	       0	(  2  0  1)	  0  1
     59.6718	        	        	        	        	    -572	(  2  0  1)	  0  1
     60.1951	        	        	        	        	       0	(  1  0  8)	  0  1
     60.1951	        	        	        	        	    -572	(  1  0  8)	  0  1
     60.8513	        	        	        	        	       0	(  2  0  2)	  0  1
     60.8513	        	        	        	        	    -572	(  2  0  2)	  0  1
     62.7880	        	        	        	        	       0	(  2  0  3)	  0  1
     62.7880	        	        	        	        	    -572	(  2  0  3)	  0  1
     65.2353	        	        	        	        	       0	(  1  1  6)	  0  1
     65.2353	        	        	        	        	    -572	(  1  1  6)	  0  1
     65.4448	        	        	        	        	       0	(  2  0  4)	  0  1
     65.4448	        	        	        	        	    -572	(  2  0  4)	  0  1
     66.1072	        	        	        	        	       0	(  0  0 10)	  0  1
     66.1072	        	        	        	        	    -572	(  0  0 10)	  0  1
     66.6877	        	        	        	        	       0	(  1  0  9)	  0  1
     66.6877	        	        	        	        	    -572	(  1  0  9)	  0  1
     68.7812	        	        	        	        	       0	(  2  0  5)	  0  1
     68.7812	        	        	        	        	    -572	(  2  0  5)	  0  1
     72.7605	        	        	        	        	       0	(  2  0  6)	  0  1
     72.7605	        	        	        	        	    -572	(  2  0  6)	  0  1
     73.5907	        	        	        	        	       0	(  1  0 10)	  0  1
     73.5907	        	        	        	        	    -572	(  1  0 10)	  0  1
     75.4039	        	        	        	        	       0	(  1  1  8)	  0  1
     75.4039	        	        	        	        	    -572	(  1  1  8)	  0  1
     77.3573	        	        	        	        	       0	(  2  0  7)	  0  1
     77.3573	        	        	        	        	    -572	(  2  0  7)	  0  1
     80.9496	        	        	        	        	       0	(  1  0 11)	  0  1
     80.9496	        	        	        	        	    -572	(  1  0 11)	  0  1
     81.7604	        	        	        	        	       0	(  2  1  0)	  0  1
     81.7604	        	        	        	        	    -572	(  2  1  0)	  0  1
     81.7934	        	        	        	        	       0	(  0  0 12)	  0  1
     81.7934	        	        	        	        	    -572	(  0  0 12)	  0  1
     82.1054	        	        	        	        	       0	(  2  1  1)	  0  1
     82.1054	        	        	        	        	    -572	(  2  1  1)	  0  1
     82.5627	        	        	        	        	       0	(  2  0  8)	  0  1
     82.5627	        	        	        	        	    -572	(  2  0  8)	  0  1
     83.1388	        	        	        	        	       0	(  2  1  2)	  0  1
     83.1388	        	        	        	        	    -572	(  2  1  2)	  0  1
     84.8565	        	        	        	        	       0	(  2  1  3)	  0  1
     84.8565	        	        	        	        	    -572	(  2  1  3)	  0  1
     87.2539	        	        	        	        	       0	(  2  1  4)	  0  1
     87.2539	        	        	        	        	    -572	(  2  1  4)	  0  1
     87.8589	        	        	        	        	       0	(  1  1 10)	  0  1
     87.8589	        	        	        	        	    -572	(  1  1 10)	  0  1
     88.3914	        	        	        	        	       0	(  2  0  9)	  0  1
     88.3914	        	        	        	        	    -572	(  2  0  9)	  0  1
     88.8449	        	        	        	        	       0	(  1  0 12)	  0  1
     88.8449	        	        	        	        	    -572	(  1  0 12)	  0  1
     90.3301	        	        	        	        	       0	(  2  1  5)	  0  1
     90.3301	        	        	        	        	    -572	(  2  1  5)	  0  1
     94.0924	        	        	        	        	       0	(  2  1  6)	  0  1
     94.0924	        	        	        	        	    -572	(  2  1  6)	  0  1
     94.8899	        	        	        	        	       0	(  2  0 10)	  0  1
     94.8899	        	        	        	        	    -572	(  2  0 10)	  0  1
     95.8472	        	        	        	        	       0	(  3  0  0)	  0  1
     95.8472	        	        	        	        	    -572	(  3  0  0)	  0  1
     96.1908	        	        	        	        	       0	(  3  0  1)	  0  1
     96.1908	        	        	        	        	    -572	(  3  0  1)	  0  1
     97.2232	        	        	        	        	       0	(  3  0  2)	  0  1
     97.2232	        	        	        	        	    -572	(  3  0  2)	  0  1
     97.4085	        	        	        	        	       0	(  1  0 13)	  0  1
     97.4085	        	        	        	        	    -572	(  1  0 13)	  0  1
     98.5635	        	        	        	        	       0	(  2  1  7)	  0  1
     98.5635	        	        	        	        	    -572	(  2  1  7)	  0  1
     98.9492	        	        	        	        	       0	(  3  0  3)	  0  1
     98.9492	        	        	        	        	    -572	(  3  0  3)	  0  1
     99.6350	        	        	        	        	       0	(  0  0 14)	  0  1
     99.6350	        	        	        	        	    -572	(  0  0 14)	  0  1
    101.3800	        	        	        	        	       0	(  3  0  4)	  0  1
    101.3800	        	        	        	        	    -572	(  3  0  4)	  0  1
    102.1520	        	        	        	        	       0	(  2  0 11)	  0  1
    102.1520	        	        	        	        	    -572	(  2  0 11)	  0  1
    103.0073	        	        	        	        	       0	(  1  1 12)	  0  1
    103.0073	        	        	        	        	    -572	(  1  1 12)	  0  1
    103.7913	        	        	        	        	       0	(  2  1  8)	  0  1
    103.7913	        	        	        	        	    -572	(  2  1  8)	  0  1
    104.5371	        	        	        	        	       0	(  3  0  5)	  0  1
    104.5371	        	        	        	        	    -572	(  3  0  5)	  0  1
    106.8587	        	        	        	        	       0	(  1  0 14)	  0  1
    106.8587	        	        	        	        	    -572	(  1  0 14)	  0  1
    108.4596	        	        	        	        	       0	(  3  0  6)	  0  1
    108.4596	        	        	        	        	    -572	(  3  0  6)	  0  1
    109.8655	        	        	        	        	       0	(  2  1  9)	  0  1
    109.8655	        	        	        	        	    -572	(  2  1  9)	  0  1
    110.3485	        	        	        	        	       0	(  2  0 12)	  0  1
    110.3485	        	        	        	        	    -572	(  2  0 12)	  0  1
    113.2166	        	        	        	        	       0	(  3  0  7)	  0  1
    113.2166	        	        	        	        	    -572	(  3  0  7)	  0  1
    116.9490	        	        	        	        	       0	(  2  1 10)	  0  1
    116.9490	        	        	        	        	    -572	(  2  1 10)	  0  1
    117.5851	        	        	        	        	       0	(  1  0 15)	  0  1
    117.5851	        	        	        	        	    -572	(  1  0 15)	  0  1
    118.0240	        	        	        	        	       0	(  2  2  0)	  0  1
    118.0240	        	        	        	        	    -572	(  2  2  0)	  0  1
    118.9292	        	        	        	        	       0	(  3  0  8)	  0  1
    118.9292	        	        	        	        	    -572	(  3  0  8)	  0  1
    119.5851	        	        	        	        	       0	(  2  2  2)	  0  1
    119.5851	        	        	        	        	    -572	(  2  2  2)	  0  1
    119.7968	        	        	        	        	       0	(  2  0 13)	  0  1
    119.7968	        	        	        	        	    -572	(  2  0 13)	  0  1
    121.6946	        	        	        	        	       0	(  0  0 16)	  0  1
    121.6946	        	        	        	        	    -572	(  0  0 16)	  0  1
    122.3697	        	        	        	        	       0	(  1  1 14)	  0  1
    122.3697	        	        	        	        	    -572	(  1  1 14)	  0  1
    124.4264	        	        	        	        	       0	(  2  2  4)	  0  1
    124.4264	        	        	        	        	    -572	(  2  2  4)	  0  1
    125.3484	        	        	        	        	       0	(  2  1 11)	  0  1
    125.3484	        	        	        	        	    -572	(  2  1 11)	  0  1
    125.8176	        	        	        	        	       0	(  3  0  9)	  0  1
    125.8176	        	        	        	        	    -572	(  3  0  9)	  0  1
    126.3386	        	        	        	        	       0	(  3  1  0)	  0  1
    126.3386	        	        	        	        	    -572	(  3  1  0)	  0  1
    126.7645	        	        	        	        	       0	(  3  1  1)	  0  1
    126.7645	        	        	        	        	    -572	(  3  1  1)	  0  1
    128.0565	        	        	        	        	       0	(  3  1  2)	  0  1
    128.0565	        	        	        	        	    -572	(  3  1  2)	  0  1
    130.2627	        	        	        	        	       0	(  3  1  3)	  0  1
    130.2627	        	        	        	        	    -572	(  3  1  3)	  0  1
    130.4005	        	        	        	        	       0	(  1  0 16)	  0  1
    130.4005	        	        	        	        	    -572	(  1  0 16)	  0  1
    131.1565	        	        	        	        	       0	(  2  0 14)	  0  1
    131.1565	        	        	        	        	    -572	(  2  0 14)	  0  1
    133.2171	        	        	        	        	       0	(  2  2  6)	  0  1
    133.2171	        	        	        	        	    -572	(  2  2  6)	  0  1
    133.4795	        	        	        	        	       0	(  3  1  4)	  0  1
    133.4795	        	        	        	        	    -572	(  3  1  4)	  0  1
    134.3196	        	        	        	        	       0	(  3  0 10)	  0  1
    134.3196	        	        	        	        	    -572	(  3  0 10)	  0  1
    135.7161	        	        	        	        	       0	(  2  1 12)	  0  1
    135.7161	        	        	        	        	    -572	(  2  1 12)	  0  1
    137.8893	        	        	        	        	       0	(  3  1  5)	  0  1
    137.8893	        	        	        	        	    -572	(  3  1  5)	  0  1
    143.8595	        	        	        	        	       0	(  3  1  6)	  0  1
    143.8595	        	        	        	        	    -572	(  3  1  6)	  0  1
    145.4996	        	        	        	        	       0	(  3  0 11)	  0  1
    145.4996	        	        	        	        	    -572	(  3  0 11)	  0  1
    146.2388	        	        	        	        	       0	(  2  0 15)	  0  1
    146.2388	        	        	        	        	    -572	(  2  0 15)	  0  1
    147.7008	        	        	        	        	       0	(  1  0 17)	  0  1
    147.7008	        	        	        	        	    -572	(  1  0 17)	  0  1
    148.4361	        	        	        	        	       0	(  2  2  8)	  0  1
    148.4361	        	        	        	        	    -572	(  2  2  8)	  0  1
    149.9144	        	        	        	        	       0	(  2  1 13)	  0  1
    149.9144	        	        	        	        	    -572	(  2  1 13)	  0  1
    152.2872	        	        	        	        	       0	(  3  1  7)	  0  1
    152.2872	        	        	        	        	    -572	(  3  1  7)	  0  1
    153.3544	        	        	        	        	       0	(  1  1 16)	  0  1
    153.3544	        	        	        	        	    -572	(  1  1 16)	  0  1
    158.6946	        	        	        	        	       0	(  0  0 18)	  0  1
    158.6946	        	        	        	        	    -572	(  0  0 18)	  0  1
    163.9778	        	        	        	        	       0	(  4  0  0)	  0  1
    163.9778	        	        	        	        	    -572	(  4  0  0)	  0  1
    164.0973	        	        	        	        	       0	(  3  0 12)	  0  1
    164.0973	        	        	        	        	    -572	(  3  0 12)	  0  1
    165.2738	        	        	        	        	       0	(  4  0  1)	  0  1
    165.2738	        	        	        	        	    -572	(  4  0  1)	  0  1
    167.1906	        	        	        	        	       0	(  3  1  8)	  0  1
    167.1906	        	        	        	        	    -572	(  3  1  8)	  0  1
