MSG Master    CELL:    5.88795   5.88795  23.14576   90.0000   90.0000  120.0000   SPGR: P 63/m m c             TEMP:    629.65
  2   1280     2.52000     0.00000    -0.09509     0.00000     0.00000    0
    96    96     0     0     2
       0.00000      10.00000
     125.00000     130.00000
 2Theta	Yobs	Ycal	Yobs-Ycal	Backg	Posr	(hkl)	K
      0.7700	    0.00	  783.02	-1902.00	  656.29
      0.8700	    0.00	  781.77	-1902.00	  655.05
      0.9700	   40.00	  780.53	-1902.00	  653.81
      1.0700	   54.00	  779.30	-1902.00	  652.57
      1.1700	   45.00	  778.06	-1902.00	  651.34
      1.2700	   37.00	  776.83	-1902.00	  650.11
      1.3700	   61.00	  775.61	-1902.00	  648.88
      1.4700	   98.00	  774.39	-1902.00	  647.66
      1.5700	  279.00	  773.17	-1902.00	  646.44
      1.6700	  462.00	  771.96	-1902.00	  645.23
      1.7700	  569.00	  770.74	-1902.00	  644.02
      1.8700	  683.00	  769.54	-1902.00	  642.81
      1.9700	  691.00	  768.34	-1902.00	  641.61
      2.0700	  768.00	  767.14	-1902.00	  640.41
      2.1700	  788.00	  765.94	-1902.00	  639.22
      2.2700	  764.00	  764.75	-1902.00	  638.02
      2.3700	  765.00	  763.56	-1902.00	  636.84
      2.4700	  719.00	  762.38	-1902.00	  635.65
      2.5700	  703.00	  761.20	-1902.00	  634.47
      2.6700	  673.00	  760.02	-1902.00	  633.30
      2.7700	  603.00	  758.85	-1902.00	  632.12
      2.8700	  621.00	  757.68	-1902.00	  630.96
      2.9700	  596.00	  756.52	-1902.00	  629.79
      3.0700	  622.00	  755.36	-1902.00	  628.63
      3.1700	  599.00	  754.20	-1902.00	  627.47
      3.2700	  657.00	  753.05	-1902.00	  626.32
      3.3700	  941.00	  751.90	-1902.00	  625.17
      3.4700	 1055.00	  750.75	-1902.00	  624.02
      3.5700	 1181.00	  749.61	-1902.00	  622.88
      3.6700	 1201.00	  748.47	-1902.00	  621.74
      3.7700	 1410.00	  747.33	-1902.00	  620.61
      3.8700	 1491.00	  746.20	-1902.00	  619.48
      3.9700	 1502.00	  745.08	-1902.00	  618.35
      4.0700	 1592.00	  743.95	-1902.00	  617.23
      4.1700	 1567.00	  742.83	-1902.00	  616.11
      4.2700	 1746.00	  741.72	-1902.00	  614.99
      4.3700	 1610.00	  740.61	-1902.00	  613.88
      4.4700	 1587.00	  739.50	-1902.00	  612.77
      4.5700	 1527.00	  738.39	-1902.00	  611.67
      4.6700	 1456.00	  737.29	-1902.00	  610.57
      4.7700	 1387.00	  736.20	-1902.00	  609.47
      4.8700	 1362.00	  735.10	-1902.00	  608.38
      4.9700	 1296.00	  734.01	-1902.00	  607.29
      5.0700	 1251.00	  732.93	-1902.00	  606.20
      5.1700	 1171.00	  731.85	-1902.00	  605.12
      5.2700	 1256.00	  730.77	-1902.00	  604.04
      5.3700	 1165.00	  729.70	-1902.00	  602.97
      5.4700	 1180.00	  728.63	-1902.00	  601.90
      5.5700	 1107.00	  727.56	-1902.00	  600.83
      5.6700	 1081.00	  726.50	-1902.00	  599.77
      5.7700	 1089.00	  725.44	-1902.00	  598.71
      5.8700	 1072.00	  724.38	-1902.00	  597.66
      5.9700	 1083.00	  723.33	-1902.00	  596.61
      6.0700	 1023.00	  722.28	-1902.00	  595.56
      6.1700	  973.00	  721.24	-1902.00	  594.51
      6.2700	  926.00	  720.20	-1902.00	  593.47
      6.3700	  971.00	  719.16	-1902.00	  592.44
      6.4700	  983.00	  718.13	-1902.00	  591.40
      6.5700	  918.00	  717.10	-1902.00	  590.38
      6.6700	  912.00	  716.08	-1902.00	  589.35
      6.7700	  951.00	  715.05	-1902.00	  588.33
      6.8700	  953.00	  714.04	-1902.00	  587.31
      6.9700	  880.00	  713.02	-1902.00	  586.30
      7.0700	  885.00	  712.01	-1902.00	  585.29
      7.1700	  887.00	  711.01	-1902.00	  584.28
      7.2700	  854.00	  710.00	-1902.00	  583.28
      7.3700	  850.00	  709.01	-1902.00	  582.28
      7.4700	  776.00	  708.01	-1902.00	  581.28
      7.5700	  841.00	  707.02	-1902.00	  580.29
      7.6700	  824.00	  706.03	-1902.00	  579.31
      7.7700	  772.00	  705.05	-1902.00	  578.32
      7.8700	  790.00	  704.07	-1902.00	  577.34
      7.9700	  788.00	  703.09	-1902.00	  576.37
      8.0700	  773.00	  702.12	-1902.00	  575.39
      8.1700	  793.00	  701.15	-1902.00	  574.42
      8.2700	  760.00	  700.18	-1902.00	  573.46
      8.3700	  720.00	  699.22	-1902.00	  572.50
      8.4700	  731.00	  698.26	-1902.00	  571.54
      8.5700	  834.00	  697.31	-1902.00	  570.58
      8.6700	  771.00	  696.36	-1902.00	  569.63
      8.7700	  707.00	  695.41	-1902.00	  568.69
      8.8700	  722.00	  694.47	-1902.00	  567.74
      8.9700	  768.00	  693.53	-1902.00	  566.80
      9.0700	  730.00	  692.59	-1902.00	  565.87
      9.1700	  754.00	  691.66	-1902.00	  564.94
      9.2700	  715.00	  690.73	-1902.00	  564.01
      9.3700	  704.00	  689.81	-1902.00	  563.08
      9.4700	  751.00	  688.89	-1902.00	  562.16
      9.5700	  716.00	  687.97	-1902.00	  561.25
      9.6700	  691.00	  687.06	-1902.00	  560.33
      9.7700	  709.00	  686.15	-1902.00	  559.42
      9.8700	  720.00	  685.24	-1902.00	  558.52
      9.9700	  694.00	  684.34	-1902.00	  557.61
     10.0700	  698.00	  685.60	-1889.60	  556.72
     10.1700	  685.00	  684.95	-1901.95	  555.82
     10.2700	  695.00	  684.35	-1891.35	  554.93
     10.3700	  710.00	  683.82	-1875.82	  554.04
     10.4700	  684.00	  683.39	-1901.39	  553.16
     10.5700	  744.00	  683.11	-1841.11	  552.28
     10.6700	  714.00	  683.05	-1871.05	  551.40
     10.7700	  682.00	  683.30	-1903.30	  550.53
     10.8700	  688.00	  683.95	-1897.95	  549.66
     10.9700	  674.00	  685.10	-1913.10	  548.79
     11.0700	  707.00	  686.77	-1881.77	  547.93
     11.1700	  730.00	  688.98	-1860.98	  547.07
     11.2700	  681.00	  691.75	-1912.75	  546.22
     11.3700	  722.00	  695.15	-1875.15	  545.36
     11.4700	  684.00	  699.28	-1917.28	  544.52
     11.5700	  733.00	  704.33	-1873.33	  543.67
     11.6700	  736.00	  710.55	-1876.55	  542.83
     11.7700	  709.00	  718.28	-1911.28	  541.99
     11.8700	  784.00	  727.79	-1845.78	  541.16
     11.9700	  770.00	  739.03	-1871.03	  540.33
     12.0700	  833.00	  751.16	-1820.16	  539.51
     12.1700	  793.00	  761.86	-1870.86	  538.68
     12.2700	  850.00	  766.93	-1818.93	  537.86
     12.3700	  870.00	  761.30	-1793.30	  537.05
     12.4700	  797.00	  744.32	-1849.32	  536.24
     12.5700	  757.00	  722.78	-1867.78	  535.43
     12.6700	  703.00	  703.63	-1902.63	  534.62
     12.7700	  662.00	  689.33	-1929.33	  533.82
     12.8700	  608.00	  679.61	-1973.61	  533.03
     12.9700	  640.00	  673.21	-1935.21	  532.23
     13.0700	  647.00	  668.94	-1923.94	  531.44
     13.1700	  645.00	  665.91	-1922.91	  530.65
     13.2700	  631.00	  663.59	-1934.59	  529.87
     13.3700	  634.00	  661.68	-1929.68	  529.09
     13.4700	  592.00	  660.04	-1970.04	  528.32
     13.5700	  578.00	  658.59	-1982.59	  527.54
     13.6700	  642.00	  657.28	-1917.28	  526.77
     13.7700	  713.00	  656.07	-1845.07	  526.01
     13.8700	  652.00	  654.94	-1904.94	  525.25
     13.9700	  636.00	  653.87	-1919.87	  524.49
     14.0700	  655.00	  652.86	-1899.85	  523.73
     14.1700	  673.00	  651.88	-1880.88	  522.98
     14.2700	  629.00	  650.94	-1923.94	  522.23
     14.3700	  677.00	  650.03	-1875.03	  521.49
     14.4700	  652.00	  649.15	-1899.15	  520.75
     14.5700	  645.00	  648.29	-1905.29	  520.01
     14.6700	  625.00	  647.44	-1924.44	  519.28
     14.7700	  608.00	  646.61	-1940.61	  518.54
     14.8700	  628.00	  645.80	-1919.80	  517.82
     14.9700	  615.00	  645.00	-1932.00	  517.09
     15.0700	  568.00	  644.21	-1978.21	  516.37
     15.1700	  635.00	  643.43	-1910.43	  515.66
     15.2700	  618.00	  642.66	-1926.66	  514.94
     15.3700	  668.00	  641.90	-1875.90	  514.23
     15.4700	  626.00	  641.15	-1917.15	  513.53
     15.5700	  615.00	  640.40	-1927.40	  512.82
     15.6700	  619.00	  639.66	-1922.66	  512.12
     15.7700	  657.00	  638.93	-1883.93	  511.43
     15.8700	  629.00	  638.21	-1911.21	  510.74
     15.9700	  644.00	  637.49	-1895.49	  510.05
     16.0700	  620.00	  636.78	-1918.78	  509.36
     16.1700	  650.00	  636.07	-1888.07	  508.68
     16.2700	  634.00	  635.37	-1903.37	  508.00
     16.3700	  609.00	  634.67	-1927.67	  507.32
     16.4700	  661.00	  633.98	-1874.98	  506.65
     16.5700	  601.00	  633.29	-1934.29	  505.98
     16.6700	  614.00	  632.61	-1920.61	  505.32
     16.7700	  605.00	  631.93	-1928.93	  504.65
     16.8700	  613.00	  631.26	-1920.26	  504.00
     16.9700	  624.00	  630.59	-1908.59	  503.34
     17.0700	  596.00	  629.92	-1935.92	  502.69
     17.1700	  633.00	  629.26	-1898.26	  502.04
     17.2700	  608.00	  628.61	-1922.61	  501.39
     17.3700	  655.00	  627.96	-1874.96	  500.75
     17.4700	  649.00	  627.31	-1880.31	  500.11
     17.5700	  591.00	  626.66	-1937.66	  499.48
     17.6700	  630.00	  626.02	-1898.02	  498.85
     17.7700	  629.00	  625.39	-1898.39	  498.22
     17.8700	  613.00	  624.76	-1913.76	  497.59
     17.9700	  627.00	  624.13	-1899.13	  496.97
     18.0700	  577.00	  623.50	-1948.50	  496.35
     18.1700	  629.00	  622.88	-1895.88	  495.73
     18.2700	  604.00	  622.27	-1920.27	  495.12
     18.3700	  584.00	  621.65	-1939.65	  494.51
     18.4700	  593.00	  621.04	-1930.04	  493.91
     18.5700	  640.00	  620.44	-1882.44	  493.30
     18.6700	  609.00	  621.12	-1914.12	  492.71
     18.7700	  591.00	  621.30	-1932.30	  492.11
     18.8700	  623.00	  620.75	-1899.75	  491.52
     18.9700	  579.00	  620.20	-1943.20	  490.93
     19.0700	  656.00	  619.66	-1865.66	  490.34
     19.1700	  638.00	  619.12	-1883.12	  489.76
     19.2700	  606.00	  618.59	-1914.59	  489.18
     19.3700	  642.00	  618.06	-1878.06	  488.60
     19.4700	  640.00	  617.54	-1879.54	  488.03
     19.5700	  609.00	  617.03	-1910.03	  487.46
     19.6700	  560.00	  616.52	-1958.52	  486.89
     19.7700	  597.00	  616.01	-1921.01	  486.33
     19.8700	  610.00	  615.51	-1907.51	  485.77
     19.9700	  586.00	  615.02	-1931.02	  485.21
     20.0700	  613.00	  614.57	-1903.57	  484.65
     20.1700	  641.00	  614.09	-1875.09	  484.10
     20.2700	  596.00	  613.62	-1919.61	  483.55
     20.3700	  596.00	  613.15	-1919.15	  483.01
     20.4700	  585.00	  612.68	-1929.68	  482.47
     20.5700	  617.00	  612.23	-1897.23	  481.93
     20.6700	  634.00	  611.78	-1879.78	  481.39
     20.7700	  581.00	  611.34	-1932.34	  480.86
     20.8700	  605.00	  610.90	-1907.90	  480.33
     20.9700	  609.00	  610.48	-1903.48	  479.81
     21.0700	  628.00	  610.06	-1884.06	  479.28
     21.1700	  565.00	  609.65	-1946.65	  478.76
     21.2700	  658.00	  609.24	-1853.24	  478.25
     21.3700	  606.00	  608.85	-1904.85	  477.73
     21.4700	  644.00	  608.46	-1866.46	  477.22
     21.5700	  584.00	  608.09	-1926.09	  476.71
     21.6700	  629.00	  607.72	-1880.72	  476.21
     21.7700	  591.00	  607.37	-1918.37	  475.71
     21.8700	  644.00	  607.02	-1865.02	  475.21
     21.9700	  623.00	  606.69	-1885.69	  474.71
     22.0700	  602.00	  606.37	-1906.37	  474.22
     22.1700	  588.00	  606.06	-1920.06	  473.73
     22.2700	  625.00	  605.96	-1882.96	  473.24
     22.3700	  633.00	  605.69	-1874.69	  472.76
     22.4700	  596.00	  605.43	-1911.43	  472.28
     22.5700	  640.00	  605.19	-1867.19	  471.80
     22.6700	  603.00	  604.98	-1903.98	  471.33
     22.7700	  611.00	  604.78	-1895.78	  470.86
     22.8700	  578.00	  604.61	-1928.61	  470.39
     22.9700	  590.00	  604.47	-1916.47	  469.92
     23.0700	  641.00	  604.36	-1865.36	  469.46
     23.1700	  635.00	  604.28	-1871.28	  469.00
     23.2700	  608.00	  604.25	-1898.25	  468.54
     23.3700	  602.00	  604.27	-1904.27	  468.09
     23.4700	  599.00	  604.35	-1907.35	  467.64
     23.5700	  592.00	  604.51	-1914.51	  467.19
     23.6700	  626.00	  604.76	-1880.76	  466.75
     23.7700	  650.00	  605.14	-1857.14	  466.30
     23.8700	  603.00	  605.71	-1904.71	  465.86
     23.9700	  585.00	  606.55	-1923.55	  465.43
     24.0700	  608.00	  607.82	-1901.82	  464.99
     24.1700	  598.00	  609.71	-1913.71	  464.56
     24.2700	  598.00	  612.67	-1916.67	  464.14
     24.3700	  663.00	  617.09	-1856.09	  463.71
     24.4700	  626.00	  623.37	-1899.37	  463.29
     24.5700	  655.00	  631.70	-1878.70	  462.87
     24.6700	  705.00	  641.79	-1838.79	  462.45
     24.7700	  672.00	  652.55	-1882.55	  462.04
     24.8700	  755.00	  661.72	-1808.72	  461.63
     24.9700	  703.00	  665.82	-1864.82	  461.22
     25.0700	  686.00	  661.92	-1877.92	  460.82
     25.1700	  715.00	  651.54	-1838.54	  460.41
     25.2700	  705.00	  639.66	-1836.66	  460.02
     25.3700	  628.00	  629.85	-1903.85	  459.62
     25.4700	  666.00	  623.01	-1859.01	  459.22
     25.5700	  668.00	  618.90	-1852.90	  458.83
     25.6700	  599.00	  616.83	-1919.83	  458.44
     25.7700	  621.00	  616.13	-1897.13	  458.06
     25.8700	  610.00	  616.33	-1908.33	  457.68
     25.9700	  632.00	  617.15	-1887.15	  457.30
     26.0700	  635.00	  618.46	-1885.46	  456.92
     26.1700	  645.00	  620.23	-1877.23	  456.54
     26.2700	  611.00	  622.45	-1913.45	  456.17
     26.3700	  620.00	  625.17	-1907.17	  455.80
     26.4700	  647.00	  628.45	-1883.45	  455.44
     26.5700	  661.00	  632.39	-1873.39	  455.07
     26.6700	  667.00	  637.11	-1872.11	  454.71
     26.7700	  680.00	  642.79	-1864.79	  454.35
     26.8700	  682.00	  649.64	-1869.64	  454.00
     26.9700	  625.00	  657.99	-1934.99	  453.64
     27.0700	  676.00	  668.26	-1894.26	  453.29
     27.1700	  692.00	  681.06	-1891.06	  452.94
     27.2700	  673.00	  697.32	-1926.32	  452.60
     27.3700	  659.00	  718.65	-1961.65	  452.25
     27.4700	  762.00	  748.19	-1888.19	  451.91
     27.5700	  742.00	  792.62	-1952.62	  451.58
     27.6700	  802.00	  865.60	-1965.60	  451.24
     27.7700	  849.00	  992.54	-2045.54	  450.91
     27.8700	  966.00	 1214.63	-2150.63	  450.58
     27.9700	 1202.00	 1586.40	-2286.40	  450.25
     28.0700	 1779.00	 2156.94	-2279.94	  449.93
     28.1700	 2700.00	 2929.90	-2131.90	  449.61
     28.2700	 4164.00	 3804.37	-1542.37	  449.29
     28.3700	 5061.00	 4525.76	-1366.76	  448.97
     28.4700	 5398.00	 4727.57	-1231.57	  448.65
     28.5700	 4485.00	 4243.36	-1660.36	  448.34
     28.6700	 3341.00	 3455.19	-2016.19	  448.03
     28.7700	 2563.00	 2859.92	-2198.92	  447.72
     28.8700	 2428.00	 2643.81	-2117.81	  447.42
     28.9700	 2717.00	 2730.46	-1915.46	  447.12
     29.0700	 3062.00	 2897.06	-1737.06	  446.82
     29.1700	 3181.00	 2878.77	-1599.77	  446.52
     29.2700	 2652.00	 2537.91	-1787.90	  446.23
     29.3700	 2044.00	 2015.22	-1873.22	  445.93
     29.4700	 1452.00	 1529.52	-1979.52	  445.64
     29.5700	 1102.00	 1178.07	-1978.07	  445.36
     29.6700	  881.00	  961.03	-1982.03	  445.07
     29.7700	  876.00	  839.37	-1865.37	  444.79
     29.8700	  760.00	  772.20	-1914.20	  444.51
     29.9700	  750.00	  732.28	-1884.28	  444.23
     30.0700	  732.00	  705.76	-1875.76	  443.96
     30.1700	  713.00	  686.65	-1875.65	  443.68
     30.2700	  702.00	  672.44	-1872.44	  443.41
     30.3700	  699.00	  662.12	-1865.12	  443.14
     30.4700	  667.00	  655.52	-1890.52	  442.88
     30.5700	  644.00	  653.08	-1911.08	  442.61
     30.6700	  676.00	  655.72	-1881.72	  442.35
     30.7700	  652.00	  664.26	-1914.26	  442.09
     30.8700	  672.00	  678.35	-1908.35	  441.84
     30.9700	  745.00	  695.37	-1852.37	  441.58
     31.0700	  746.00	  709.62	-1865.62	  441.33
     31.1700	  694.00	  712.90	-1920.90	  441.08
     31.2700	  725.00	  699.75	-1876.75	  440.83
     31.3700	  727.00	  675.21	-1850.21	  440.59
     31.4700	  655.00	  649.75	-1896.74	  440.35
     31.5700	  656.00	  629.40	-1875.40	  440.11
     31.6700	  629.00	  615.39	-1888.39	  439.87
     31.7700	  664.00	  606.56	-1844.56	  439.63
     31.8700	  672.00	  601.16	-1831.15	  439.40
     31.9700	  589.00	  597.71	-1910.71	  439.17
     32.0700	  615.00	  595.34	-1882.34	  438.94
     32.1700	  616.00	  593.60	-1879.60	  438.71
     32.2700	  643.00	  592.30	-1851.30	  438.48
     32.3700	  578.00	  591.34	-1915.34	  438.26
     32.4700	  597.00	  590.68	-1895.68	  438.04
     32.5700	  563.00	  590.33	-1929.33	  437.82
     32.6700	  635.00	  590.28	-1857.28	  437.61
     32.7700	  554.00	  590.56	-1938.56	  437.39
     32.8700	  601.00	  591.25	-1892.25	  437.18
     32.9700	  604.00	  592.37	-1890.37	  436.97
     33.0700	  607.00	  594.07	-1889.07	  436.76
     33.1700	  695.00	  596.56	-1803.56	  436.56
     33.2700	  603.00	  600.21	-1899.21	  436.35
     33.3700	  594.00	  605.79	-1913.79	  436.15
     33.4700	  658.00	  614.75	-1858.75	  435.95
     33.5700	  581.00	  629.74	-1950.74	  435.75
     33.6700	  613.00	  655.08	-1944.08	  435.56
     33.7700	  708.00	  696.50	-1890.50	  435.37
     33.8700	  800.00	  759.41	-1861.41	  435.17
     33.9700	  833.00	  844.88	-1913.88	  434.98
     34.0700	 1029.00	  944.31	-1817.31	  434.80
     34.1700	 1108.00	 1035.81	-1829.81	  434.61
     34.2700	 1159.00	 1085.27	-1828.27	  434.43
     34.3700	 1150.00	 1062.79	-1814.79	  434.25
     34.4700	 1066.00	  976.16	-1812.16	  434.07
     34.5700	  889.00	  867.62	-1880.62	  433.89
     34.6700	  725.00	  771.35	-1948.35	  433.72
     34.7700	  748.00	  700.11	-1854.11	  433.54
     34.8700	  645.00	  653.38	-1910.38	  433.37
     34.9700	  639.00	  625.11	-1888.11	  433.20
     35.0700	  614.00	  608.53	-1896.53	  433.04
     35.1700	  674.00	  598.49	-1826.49	  432.87
     35.2700	  590.00	  591.90	-1903.90	  432.71
     35.3700	  570.00	  587.20	-1919.20	  432.55
     35.4700	  599.00	  583.61	-1886.61	  432.39
     35.5700	  629.00	  580.77	-1853.77	  432.23
     35.6700	  591.00	  578.48	-1889.48	  432.07
     35.7700	  591.00	  576.59	-1887.59	  431.92
     35.8700	  558.00	  575.02	-1919.02	  431.77
     35.9700	  613.00	  573.71	-1862.71	  431.62
     36.0700	  526.00	  572.62	-1948.62	  431.47
     36.1700	  592.00	  571.70	-1881.70	  431.32
     36.2700	  564.00	  570.93	-1908.93	  431.18
     36.3700	  604.00	  570.30	-1868.30	  431.03
     36.4700	  582.00	  569.79	-1889.79	  430.89
     36.5700	  571.00	  569.41	-1900.41	  430.75
     36.6700	  609.00	  569.15	-1862.15	  430.61
     36.7700	  574.00	  569.53	-1897.53	  430.48
     36.8700	  548.00	  569.56	-1923.56	  430.34
     36.9700	  574.00	  569.78	-1897.78	  430.21
     37.0700	  558.00	  570.44	-1914.44	  430.08
     37.1700	  559.00	  571.27	-1914.27	  429.95
     37.2700	  544.00	  572.64	-1930.64	  429.83
     37.3700	  583.00	  574.82	-1893.82	  429.70
     37.4700	  599.00	  578.37	-1881.37	  429.58
     37.5700	  621.00	  583.94	-1864.93	  429.45
     37.6700	  638.00	  592.41	-1856.41	  429.33
     37.7700	  576.00	  604.68	-1930.67	  429.22
     37.8700	  627.00	  621.17	-1896.17	  429.10
     37.9700	  612.00	  641.19	-1931.19	  428.98
     38.0700	  619.00	  662.40	-1945.40	  428.87
     38.1700	  628.00	  680.53	-1954.53	  428.76
     38.2700	  675.00	  689.34	-1916.34	  428.65
     38.3700	  693.00	  683.32	-1892.32	  428.54
     38.4700	  620.00	  662.65	-1944.65	  428.43
     38.5700	  599.00	  637.87	-1940.87	  428.33
     38.6700	  575.00	  614.83	-1941.83	  428.22
     38.7700	  586.00	  596.80	-1912.79	  428.12
     38.8700	  571.00	  584.18	-1915.18	  428.02
     38.9700	  596.00	  576.04	-1882.04	  427.92
     39.0700	  568.00	  571.01	-1905.01	  427.82
     39.1700	  571.00	  567.90	-1898.90	  427.73
     39.2700	  567.00	  565.88	-1900.88	  427.63
     39.3700	  586.00	  564.47	-1880.47	  427.54
     39.4700	  618.00	  563.40	-1847.40	  427.45
     39.5700	  585.00	  562.57	-1879.57	  427.36
     39.6700	  572.00	  561.89	-1891.89	  427.27
     39.7700	  588.00	  560.62	-1874.62	  427.19
     39.8700	  573.00	  560.17	-1889.17	  427.10
     39.9700	  561.00	  559.79	-1900.79	  427.02
     40.0700	  565.00	  559.48	-1896.48	  426.93
     40.1700	  562.00	  559.22	-1899.22	  426.85
     40.2700	  583.00	  559.01	-1878.01	  426.77
     40.3700	  550.00	  558.83	-1910.83	  426.70
     40.4700	  567.00	  558.70	-1893.70	  426.62
     40.5700	  547.00	  559.13	-1914.13	  426.54
     40.6700	  528.00	  559.07	-1933.07	  426.47
     40.7700	  530.00	  559.04	-1931.04	  426.40
     40.8700	  541.00	  559.05	-1920.05	  426.33
     40.9700	  552.00	  559.09	-1909.09	  426.26
     41.0700	  535.00	  559.18	-1926.18	  426.19
     41.1700	  592.00	  559.31	-1869.31	  426.12
     41.2700	  579.00	  559.49	-1882.49	  426.06
     41.3700	  565.00	  559.79	-1896.79	  425.99
     41.4700	  586.00	  560.11	-1876.11	  425.93
     41.5700	  577.00	  560.52	-1885.52	  425.87
     41.6700	  553.00	  561.05	-1910.05	  425.81
     41.7700	  589.00	  561.73	-1874.73	  425.75
     41.8700	  597.00	  562.66	-1867.66	  425.69
     41.9700	  538.00	  563.97	-1927.97	  425.64
     42.0700	  586.00	  565.92	-1881.92	  425.58
     42.1700	  580.00	  568.99	-1890.99	  425.53
     42.2700	  573.00	  573.90	-1902.90	  425.48
     42.3700	  544.00	  581.64	-1939.64	  425.43
     42.4700	  578.00	  593.25	-1917.25	  425.38
     42.5700	  543.00	  609.35	-1968.35	  425.33
     42.6700	  612.00	  629.58	-1919.58	  425.28
     42.7700	  599.00	  651.61	-1954.61	  425.23
     42.8700	  639.00	  670.56	-1933.56	  425.19
     42.9700	  632.00	  679.78	-1949.78	  425.14
     43.0700	  631.00	  674.70	-1945.69	  425.10
     43.1700	  649.00	  657.62	-1910.61	  425.06
     43.2700	  611.00	  635.32	-1926.32	  425.02
     43.3700	  581.00	  614.00	-1935.00	  424.98
     43.4700	  615.00	  596.63	-1883.63	  424.94
     43.5700	  596.00	  583.94	-1889.94	  424.91
     43.6700	  542.00	  575.61	-1935.61	  424.87
     43.7700	  595.00	  570.21	-1877.21	  424.84
     43.8700	  588.00	  566.87	-1880.87	  424.80
     43.9700	  528.00	  564.78	-1938.78	  424.77
     44.0700	  573.00	  563.41	-1892.41	  424.74
     44.1700	  593.00	  562.46	-1871.46	  424.71
     44.2700	  614.00	  561.76	-1849.76	  424.68
     44.3700	  564.00	  561.24	-1899.24	  424.65
     44.4700	  539.00	  560.83	-1923.83	  424.63
     44.5700	  569.00	  560.53	-1893.53	  424.60
     44.6700	  556.00	  560.30	-1906.30	  424.58
     44.7700	  572.00	  560.36	-1890.36	  424.55
     44.8700	  550.00	  560.25	-1912.25	  424.53
     44.9700	  577.00	  560.19	-1885.19	  424.51
     45.0700	  575.00	  560.19	-1887.19	  424.49
     45.1700	  559.00	  560.21	-1903.21	  424.47
     45.2700	  580.00	  560.27	-1882.27	  424.45
     45.3700	  565.00	  560.35	-1897.35	  424.43
     45.4700	  575.00	  560.47	-1887.47	  424.41
     45.5700	  589.00	  560.62	-1873.62	  424.40
     45.6700	  549.00	  560.89	-1913.89	  424.38
     45.7700	  543.00	  561.10	-1920.10	  424.37
     45.8700	  619.00	  561.35	-1844.35	  424.36
     45.9700	  562.00	  561.63	-1901.63	  424.34
     46.0700	  501.00	  561.94	-1962.94	  424.33
     46.1700	  595.00	  562.30	-1869.30	  424.32
     46.2700	  559.00	  562.70	-1905.70	  424.31
     46.3700	  584.00	  563.25	-1881.25	  424.30
     46.4700	  534.00	  563.77	-1931.77	  424.30
     46.5700	  570.00	  564.16	-1896.16	  424.29
     46.6700	  557.00	  564.83	-1909.83	  424.28
     46.7700	  590.00	  565.58	-1877.58	  424.28
     46.8700	  557.00	  566.46	-1911.46	  424.27
     46.9700	  547.00	  567.50	-1922.50	  424.27
     47.0700	  557.00	  568.76	-1913.76	  424.27
     47.1700	  543.00	  570.38	-1929.38	  424.27
     47.2700	  567.00	  572.57	-1907.57	  424.27
     47.3700	  562.00	  575.69	-1915.69	  424.27
     47.4700	  542.00	  580.25	-1940.25	  424.27
     47.5700	  551.00	  586.85	-1937.85	  424.27
     47.6700	  619.00	  596.12	-1879.12	  424.27
     47.7700	  622.00	  608.37	-1888.37	  424.27
     47.8700	  597.00	  623.31	-1928.31	  424.28
     47.9700	  638.00	  639.59	-1903.59	  424.28
     48.0700	  652.00	  654.42	-1904.42	  424.29
     48.1700	  658.00	  663.81	-1907.81	  424.29
     48.2700	  662.00	  664.54	-1904.54	  424.30
     48.3700	  670.00	  656.88	-1888.88	  424.31
     48.4700	  661.00	  645.03	-1886.03	  424.31
     48.5700	  589.00	  632.22	-1945.22	  424.32
     48.6700	  597.00	  621.48	-1926.48	  424.33
     48.7700	  584.00	  613.95	-1931.95	  424.34
     48.8700	  564.00	  609.86	-1947.86	  424.35
     48.9700	  638.00	  608.91	-1872.91	  424.36
     49.0700	  563.00	  610.66	-1949.65	  424.38
     49.1700	  567.00	  614.74	-1949.74	  424.39
     49.2700	  583.00	  621.09	-1940.09	  424.40
     49.3700	  594.00	  630.12	-1938.12	  424.42
     49.4700	  629.00	  643.16	-1916.16	  424.43
     49.5700	  647.00	  663.36	-1918.35	  424.45
     49.6700	  651.00	  697.28	-1948.28	  424.46
     49.7700	  720.00	  757.06	-1939.06	  424.48
     49.8700	  824.00	  861.74	-1939.74	  424.49
     49.9700	 1041.00	 1035.53	-1896.53	  424.51
     50.0700	 1313.00	 1300.00	-1889.00	  424.53
     50.1700	 1740.00	 1660.36	-1822.36	  424.55
     50.2700	 2200.00	 2088.46	-1790.46	  424.57
     50.3700	 2511.00	 2510.08	-1901.08	  424.59
     50.4700	 2852.00	 2807.28	-1857.28	  424.61
     50.5700	 2850.00	 2862.15	-1914.15	  424.63
     50.6700	 2669.00	 2646.90	-1879.90	  424.65
     50.7700	 2208.00	 2256.04	-1950.04	  424.67
     50.8700	 1768.00	 1821.52	-1955.52	  424.69
     50.9700	 1343.00	 1436.42	-1995.42	  424.71
     51.0700	  965.00	 1144.61	-2081.61	  424.74
     51.1700	  861.00	  950.23	-1991.23	  424.76
     51.2700	  787.00	  834.43	-1949.43	  424.78
     51.3700	  804.00	  770.68	-1868.68	  424.81
     51.4700	  767.00	  735.39	-1870.39	  424.83
     51.5700	  708.00	  712.88	-1906.88	  424.86
     51.6700	  739.00	  695.56	-1858.56	  424.88
     51.7700	  690.00	  681.50	-1893.50	  424.91
     51.8700	  667.00	  670.81	-1905.81	  424.94
     51.9700	  694.00	  663.64	-1871.64	  424.96
     52.0700	  618.00	  659.42	-1943.42	  424.99
     52.1700	  671.00	  656.80	-1887.80	  425.02
     52.2700	  693.00	  654.04	-1863.04	  425.04
     52.3700	  710.00	  650.00	-1842.00	  425.07
     52.4700	  661.00	  645.06	-1886.06	  425.10
     52.5700	  667.00	  640.62	-1875.62	  425.13
     52.6700	  674.00	  638.22	-1866.22	  425.16
     52.7700	  658.00	  639.23	-1883.23	  425.19
     52.8700	  643.00	  645.16	-1904.16	  425.22
     52.9700	  641.00	  657.96	-1918.95	  425.25
     53.0700	  711.00	  680.21	-1871.21	  425.28
     53.1700	  711.00	  715.12	-1906.12	  425.31
     53.2700	  785.00	  765.90	-1882.90	  425.34
     53.3700	  809.00	  834.61	-1927.61	  425.37
     53.4700	  899.00	  920.70	-1923.70	  425.40
     53.5700	 1065.00	 1019.09	-1856.09	  425.44
     53.6700	 1084.00	 1117.91	-1935.91	  425.47
     53.7700	 1287.00	 1197.66	-1812.66	  425.50
     53.8700	 1286.00	 1234.96	-1850.96	  425.53
     53.9700	 1263.00	 1215.82	-1854.82	  425.57
     54.0700	 1159.00	 1147.42	-1890.42	  425.60
     54.1700	 1098.00	 1052.21	-1856.21	  425.63
     54.2700	 1016.00	  952.26	-1838.26	  425.66
     54.3700	  846.00	  861.87	-1917.87	  425.70
     54.4700	  758.00	  787.88	-1931.88	  425.73
     54.5700	  703.00	  731.95	-1930.95	  425.77
     54.6700	  697.00	  692.48	-1897.48	  425.80
     54.7700	  717.00	  666.23	-1851.23	  425.83
     54.8700	  688.00	  649.64	-1863.64	  425.87
     54.9700	  640.00	  639.60	-1901.60	  425.90
     55.0700	  641.00	  633.83	-1894.83	  425.94
     55.1700	  632.00	  630.86	-1900.86	  425.97
     55.2700	  627.00	  629.80	-1904.80	  426.01
     55.3700	  647.00	  630.22	-1885.22	  426.04
     55.4700	  598.00	  631.90	-1935.90	  426.08
     55.5700	  623.00	  634.82	-1913.82	  426.11
     55.6700	  650.00	  639.07	-1891.07	  426.15
     55.7700	  662.00	  644.85	-1884.85	  426.18
     55.8700	  640.00	  652.60	-1914.60	  426.22
     55.9700	  612.00	  663.14	-1953.14	  426.26
     56.0700	  667.00	  678.03	-1913.03	  426.29
     56.1700	  712.00	  700.16	-1890.16	  426.33
     56.2700	  696.00	  734.46	-1940.46	  426.36
     56.3700	  790.00	  788.65	-1900.65	  426.40
     56.4700	  905.00	  873.45	-1870.45	  426.43
     56.5700	  968.00	 1001.53	-1935.53	  426.47
     56.6700	 1158.00	 1184.59	-1928.59	  426.51
     56.7700	 1445.00	 1428.68	-1885.68	  426.54
     56.8700	 1815.00	 1728.34	-1815.34	  426.58
     56.9700	 2191.00	 2060.50	-1771.50	  426.61
     57.0700	 2424.00	 2379.43	-1857.43	  426.65
     57.1700	 2692.00	 2616.64	-1826.64	  426.68
     57.2700	 2667.00	 2700.20	-1935.20	  426.72
     57.3700	 2519.00	 2599.24	-1982.24	  426.76
     57.4700	 2265.00	 2350.50	-1987.50	  426.79
     57.5700	 1964.00	 2028.37	-1966.37	  426.83
     57.6700	 1603.00	 1700.04	-1999.04	  426.86
     57.7700	 1218.00	 1408.63	-2092.63	  426.90
     57.8700	 1131.00	 1174.92	-1945.92	  426.93
     57.9700	  912.00	 1003.10	-1993.10	  426.97
     58.0700	  879.00	  886.69	-1909.69	  427.00
     58.1700	  790.00	  814.62	-1926.62	  427.04
     58.2700	  801.00	  776.15	-1877.15	  427.07
     58.3700	  797.00	  763.41	-1868.41	  427.11
     58.4700	  700.00	  772.18	-1974.18	  427.14
     58.5700	  761.00	  801.02	-1942.02	  427.18
     58.6700	  837.00	  849.55	-1914.55	  427.21
     58.7700	  919.00	  916.48	-1899.48	  427.25
     58.8700	  964.00	  997.81	-1935.81	  427.28
     58.9700	 1079.00	 1085.43	-1908.43	  427.31
     59.0700	 1171.00	 1167.63	-1898.63	  427.35
     59.1700	 1260.00	 1233.38	-1875.38	  427.38
     59.2700	 1258.00	 1277.72	-1921.72	  427.42
     59.3700	 1377.00	 1300.11	-1825.11	  427.45
     59.4700	 1324.00	 1299.32	-1877.32	  427.48
     59.5700	 1297.00	 1275.53	-1880.53	  427.51
     59.6700	 1208.00	 1236.58	-1930.58	  427.55
     59.7700	 1181.00	 1196.27	-1917.27	  427.58
     59.8700	 1245.00	 1167.29	-1824.29	  427.61
     59.9700	 1186.00	 1158.18	-1874.18	  427.64
     60.0700	 1262.00	 1175.15	-1815.15	  427.68
     60.1700	 1267.00	 1222.82	-1857.82	  427.71
     60.2700	 1317.00	 1301.23	-1886.22	  427.74
     60.3700	 1494.00	 1401.71	-1809.71	  427.77
     60.4700	 1546.00	 1505.07	-1861.07	  427.80
     60.5700	 1647.00	 1582.51	-1837.51	  427.83
     60.6700	 1520.00	 1603.49	-1985.49	  427.86
     60.7700	 1524.00	 1552.47	-1930.47	  427.89
     60.8700	 1467.00	 1440.53	-1875.53	  427.92
     60.9700	 1264.00	 1295.79	-1933.79	  427.95
     61.0700	 1090.00	 1146.28	-1958.28	  427.98
     61.1700	  972.00	 1011.75	-1941.75	  428.01
     61.2700	  816.00	  903.11	-1989.11	  428.04
     61.3700	  781.00	  824.20	-1945.20	  428.07
     61.4700	  792.00	  774.15	-1884.15	  428.09
     61.5700	  756.00	  750.23	-1896.23	  428.12
     61.6700	  813.00	  750.18	-1839.18	  428.15
     61.7700	  802.00	  773.56	-1873.56	  428.18
     61.8700	  874.00	  821.88	-1849.87	  428.20
     61.9700	  941.00	  897.29	-1858.29	  428.23
     62.0700	 1007.00	 1000.54	-1895.54	  428.25
     62.1700	 1164.00	 1128.56	-1866.56	  428.28
     62.2700	 1350.00	 1272.13	-1824.13	  428.30
     62.3700	 1465.00	 1414.30	-1851.30	  428.33
     62.4700	 1467.00	 1530.04	-1965.04	  428.35
     62.5700	 1608.00	 1590.69	-1884.69	  428.38
     62.6700	 1548.00	 1577.20	-1931.20	  428.40
     62.7700	 1433.00	 1493.52	-1962.52	  428.42
     62.8700	 1303.00	 1363.57	-1962.57	  428.45
     62.9700	 1239.00	 1215.92	-1878.92	  428.47
     63.0700	 1014.00	 1073.07	-1961.07	  428.49
     63.1700	  871.00	  948.99	-1979.99	  428.51
     63.2700	  836.00	  850.20	-1916.20	  428.53
     63.3700	  754.00	  777.37	-1925.37	  428.55
     63.4700	  731.00	  727.36	-1898.36	  428.57
     63.5700	  732.00	  695.42	-1865.42	  428.59
     63.6700	  670.00	  676.76	-1908.76	  428.61
     63.7700	  669.00	  667.60	-1900.60	  428.63
     63.8700	  711.00	  665.74	-1856.74	  428.65
     63.9700	  696.00	  670.37	-1876.37	  428.67
     64.0700	  681.00	  682.10	-1903.10	  428.69
     64.1700	  728.00	  702.62	-1876.62	  428.70
     64.2700	  755.00	  734.38	-1881.38	  428.72
     64.3700	  801.00	  780.07	-1881.07	  428.73
     64.4700	  881.00	  841.38	-1862.38	  428.75
     64.5700	  977.00	  920.07	-1845.07	  428.76
     64.6700	 1057.00	 1013.87	-1858.87	  428.78
     64.7700	 1136.00	 1117.33	-1883.33	  428.79
     64.8700	 1229.00	 1220.47	-1893.47	  428.81
     64.9700	 1309.00	 1309.28	-1902.28	  428.82
     65.0700	 1423.00	 1368.77	-1847.77	  428.83
     65.1700	 1361.00	 1388.10	-1929.10	  428.84
     65.2700	 1340.00	 1363.52	-1925.52	  428.85
     65.3700	 1279.00	 1300.92	-1923.92	  428.86
     65.4700	 1222.00	 1213.47	-1893.47	  428.87
     65.5700	 1079.00	 1116.40	-1939.40	  428.88
     65.6700	 1020.00	 1022.06	-1904.06	  428.89
     65.7700	  884.00	  937.25	-1955.25	  428.90
     65.8700	  798.00	  865.38	-1969.38	  428.91
     65.9700	  812.00	  807.03	-1897.03	  428.92
     66.0700	  745.00	  761.40	-1918.39	  428.92
     66.1700	  706.00	  726.94	-1922.94	  428.93
     66.2700	  665.00	  701.71	-1938.71	  428.94
     66.3700	  652.00	  683.73	-1933.73	  428.94
     66.4700	  675.00	  671.34	-1898.34	  428.94
     66.5700	  613.00	  663.16	-1952.16	  428.95
     66.6700	  625.00	  658.35	-1935.35	  428.95
     66.7700	  618.00	  656.35	-1940.35	  428.95
     66.8700	  611.00	  656.90	-1947.90	  428.96
     66.9700	  627.00	  659.99	-1934.99	  428.96
     67.0700	  654.00	  666.21	-1914.21	  428.96
     67.1700	  669.00	  676.10	-1909.10	  428.96
     67.2700	  696.00	  691.55	-1897.55	  428.96
     67.3700	  713.00	  715.42	-1904.42	  428.96
     67.4700	  769.00	  751.87	-1884.87	  428.95
     67.5700	  786.00	  806.52	-1922.52	  428.95
     67.6700	  888.00	  886.12	-1900.12	  428.95
     67.7700	 1007.00	  997.68	-1892.68	  428.94
     67.8700	 1095.00	 1146.91	-1953.91	  428.94
     67.9700	 1445.00	 1336.14	-1793.14	  428.93
     68.0700	 1596.00	 1562.08	-1868.08	  428.93
     68.1700	 1880.00	 1813.59	-1835.59	  428.92
     68.2700	 2072.00	 2070.24	-1900.24	  428.91
     68.3700	 2361.00	 2301.10	-1842.10	  428.91
     68.4700	 2455.00	 2466.98	-1913.98	  428.90
     68.5700	 2496.00	 2530.74	-1936.74	  428.89
     68.6700	 2404.00	 2475.65	-1973.65	  428.88
     68.7700	 2312.00	 2316.19	-1906.18	  428.87
     68.8700	 2097.00	 2088.56	-1893.56	  428.86
     68.9700	 1771.00	 1832.40	-1963.40	  428.84
     69.0700	 1575.00	 1579.51	-1906.51	  428.83
     69.1700	 1373.00	 1351.07	-1880.07	  428.82
     69.2700	 1098.00	 1158.76	-1962.76	  428.80
     69.3700	 1038.00	 1006.38	-1870.38	  428.79
     69.4700	  993.00	  891.96	-1800.96	  428.77
     69.5700	  843.00	  809.95	-1868.95	  428.76
     69.6700	  744.00	  753.38	-1911.38	  428.74
     69.7700	  791.00	  715.38	-1826.38	  428.72
     69.8700	  727.00	  690.19	-1865.19	  428.70
     69.9700	  718.00	  673.45	-1857.45	  428.68
     70.0700	  741.00	  662.16	-1823.16	  428.66
     70.1700	  651.00	  654.40	-1905.40	  428.64
     70.2700	  664.00	  648.99	-1886.99	  428.62
     70.3700	  680.00	  645.27	-1867.27	  428.60
     70.4700	  671.00	  642.88	-1873.88	  428.57
     70.5700	  637.00	  641.67	-1906.67	  428.55
     70.6700	  692.00	  641.58	-1851.58	  428.53
     70.7700	  592.00	  642.73	-1952.73	  428.50
     70.8700	  614.00	  645.15	-1933.15	  428.47
     70.9700	  683.00	  649.71	-1868.71	  428.45
     71.0700	  651.00	  657.04	-1908.04	  428.42
     71.1700	  631.00	  668.41	-1939.41	  428.39
     71.2700	  678.00	  685.79	-1909.79	  428.36
     71.3700	  732.00	  711.87	-1881.87	  428.33
     71.4700	  761.00	  750.10	-1891.10	  428.30
     71.5700	  760.00	  804.52	-1946.52	  428.27
     71.6700	  893.00	  879.20	-1888.20	  428.24
     71.7700	  967.00	  977.47	-1912.47	  428.20
     71.8700	 1107.00	 1100.89	-1895.89	  428.17
     71.9700	 1192.00	 1248.02	-1958.02	  428.13
     72.0700	 1473.00	 1413.48	-1842.48	  428.10
     72.1700	 1530.00	 1586.85	-1958.85	  428.06
     72.2700	 1687.00	 1752.28	-1967.28	  428.02
     72.3700	 1817.00	 1888.54	-1973.54	  427.98
     72.4700	 1982.00	 1972.90	-1892.90	  427.95
     72.5700	 1974.00	 1985.90	-1913.90	  427.91
     72.6700	 1870.00	 1925.23	-1957.23	  427.87
     72.7700	 1833.00	 1804.43	-1873.43	  427.82
     72.8700	 1674.00	 1646.11	-1874.11	  427.78
     72.9700	 1419.00	 1472.90	-1955.90	  427.74
     73.0700	 1330.00	 1302.65	-1874.65	  427.69
     73.1700	 1072.00	 1147.56	-1977.56	  427.65
     73.2700	 1000.00	 1014.59	-1916.59	  427.60
     73.3700	  948.00	  906.38	-1860.38	  427.56
     73.4700	  817.00	  822.33	-1907.33	  427.51
     73.5700	  796.00	  759.64	-1865.64	  427.46
     73.6700	  747.00	  714.47	-1869.47	  427.41
     73.7700	  760.00	  682.76	-1824.76	  427.36
     73.8700	  706.00	  660.88	-1856.88	  427.31
     73.9700	  705.00	  645.92	-1842.92	  427.26
     74.0700	  641.00	  635.21	-1896.21	  427.21
     74.1700	  599.00	  628.34	-1931.34	  427.16
     74.2700	  639.00	  623.86	-1886.86	  427.10
     74.3700	  643.00	  621.16	-1880.16	  427.05
     74.4700	  619.00	  619.88	-1902.88	  426.99
     74.5700	  664.00	  619.73	-1857.72	  426.93
     74.6700	  650.00	  620.45	-1872.45	  426.88
     74.7700	  683.00	  621.75	-1840.75	  426.82
     74.8700	  652.00	  623.28	-1873.28	  426.76
     74.9700	  652.00	  624.62	-1874.62	  426.70
     75.0700	  706.00	  625.31	-1821.31	  426.64
     75.1700	  705.00	  625.02	-1822.02	  426.58
     75.2700	  683.00	  623.61	-1842.61	  426.51
     75.3700	  655.00	  621.47	-1868.47	  426.45
     75.4700	  688.00	  619.04	-1833.04	  426.39
     75.5700	  673.00	  616.95	-1845.95	  426.32
     75.6700	  702.00	  615.84	-1815.84	  426.26
     75.7700	  676.00	  616.41	-1842.41	  426.19
     75.8700	  670.00	  619.39	-1851.39	  426.12
     75.9700	  659.00	  625.56	-1868.56	  426.05
     76.0700	  636.00	  635.65	-1901.65	  425.98
     76.1700	  689.00	  650.56	-1863.56	  425.91
     76.2700	  661.00	  670.80	-1911.80	  425.84
     76.3700	  686.00	  696.63	-1912.63	  425.77
     76.4700	  746.00	  727.78	-1883.78	  425.70
     76.5700	  693.00	  763.34	-1972.34	  425.62
     76.6700	  754.00	  801.56	-1949.56	  425.55
     76.7700	  841.00	  839.76	-1900.76	  425.47
     76.8700	  846.00	  874.28	-1930.28	  425.39
     76.9700	  908.00	  900.68	-1894.68	  425.32
     77.0700	  880.00	  914.63	-1936.63	  425.24
     77.1700	  867.00	  913.37	-1948.37	  425.16
     77.2700	  837.00	  897.07	-1962.07	  425.08
     77.3700	  870.00	  868.73	-1900.73	  425.00
     77.4700	  804.00	  832.78	-1930.78	  424.92
     77.5700	  771.00	  793.53	-1924.53	  424.83
     77.6700	  774.00	  754.52	-1882.52	  424.75
     77.7700	  701.00	  718.09	-1919.09	  424.67
     77.8700	  658.00	  686.21	-1930.21	  424.58
     77.9700	  621.00	  659.46	-1940.46	  424.50
     78.0700	  639.00	  637.94	-1900.94	  424.41
     78.1700	  647.00	  621.28	-1876.28	  424.32
     78.2700	  633.00	  608.82	-1877.82	  424.23
     78.3700	  614.00	  599.75	-1887.75	  424.14
     78.4700	  584.00	  593.31	-1911.31	  424.05
     78.5700	  607.00	  588.80	-1883.80	  423.96
     78.6700	  610.00	  585.62	-1877.62	  423.87
     78.7700	  621.00	  583.47	-1864.47	  423.77
     78.8700	  610.00	  581.99	-1873.99	  423.68
     78.9700	  561.00	  580.99	-1921.99	  423.59
     79.0700	  571.00	  580.37	-1911.37	  423.49
     79.1700	  622.00	  580.06	-1860.06	  423.39
     79.2700	  550.00	  580.04	-1932.04	  423.30
     79.3700	  544.00	  580.30	-1938.30	  423.20
     79.4700	  554.00	  580.87	-1928.87	  423.10
     79.5700	  610.00	  581.78	-1873.78	  423.00
     79.6700	  597.00	  583.11	-1888.11	  422.90
     79.7700	  588.00	  584.95	-1898.95	  422.80
     79.8700	  584.00	  587.44	-1905.44	  422.69
     79.9700	  581.00	  590.79	-1911.79	  422.59
     80.0700	  602.00	  595.33	-1895.33	  422.49
     80.1700	  626.00	  601.50	-1877.50	  422.38
     80.2700	  635.00	  609.94	-1876.94	  422.27
     80.3700	  641.00	  621.48	-1882.48	  422.17
     80.4700	  659.00	  637.11	-1880.11	  422.06
     80.5700	  660.00	  657.75	-1899.75	  421.95
     80.6700	  687.00	  684.99	-1899.99	  421.84
     80.7700	  765.00	  719.67	-1856.67	  421.73
     80.8700	  818.00	  762.44	-1846.44	  421.62
     80.9700	  789.00	  813.31	-1926.30	  421.51
     81.0700	  874.00	  871.30	-1899.30	  421.40
     81.1700	  882.00	  934.28	-1954.28	  421.28
     81.2700	 1031.00	  998.81	-1869.81	  421.17
     81.3700	 1043.00	 1060.29	-1919.29	  421.05
     81.4700	 1150.00	 1113.42	-1865.42	  420.94
     81.5700	 1141.00	 1153.27	-1914.27	  420.82
     81.6700	 1157.00	 1176.54	-1921.54	  420.70
     81.7700	 1194.00	 1182.01	-1890.01	  420.58
     81.8700	 1149.00	 1170.33	-1923.33	  420.46
     81.9700	 1076.00	 1143.60	-1969.60	  420.34
     82.0700	 1083.00	 1105.04	-1924.04	  420.22
     82.1700	 1107.00	 1058.46	-1853.46	  420.10
     82.2700	  983.00	 1007.50	-1926.50	  419.98
     82.3700	  960.00	  955.35	-1897.35	  419.85
     82.4700	  932.00	  904.64	-1874.64	  419.73
     82.5700	  878.00	  857.39	-1881.39	  419.60
     82.6700	  818.00	  814.84	-1898.84	  419.48
     82.7700	  708.00	  777.41	-1971.41	  419.35
     82.8700	  722.00	  744.88	-1924.88	  419.22
     82.9700	  693.00	  716.70	-1925.70	  419.10
     83.0700	  694.00	  692.36	-1900.36	  418.97
     83.1700	  641.00	  671.49	-1932.49	  418.84
     83.2700	  658.00	  653.91	-1897.91	  418.71
     83.3700	  636.00	  639.52	-1905.52	  418.57
     83.4700	  633.00	  628.24	-1897.24	  418.44
     83.5700	  612.00	  619.99	-1909.99	  418.31
     83.6700	  597.00	  614.66	-1919.66	  418.18
     83.7700	  585.00	  612.08	-1929.08	  418.04
     83.8700	  583.00	  612.01	-1931.01	  417.91
     83.9700	  622.00	  614.08	-1894.08	  417.77
     84.0700	  573.00	  617.83	-1946.83	  417.63
     84.1700	  615.00	  622.68	-1909.68	  417.50
     84.2700	  603.00	  627.85	-1926.85	  417.36
     84.3700	  609.00	  632.74	-1925.74	  417.22
     84.4700	  636.00	  636.43	-1902.43	  417.08
     84.5700	  666.00	  638.10	-1874.10	  416.94
     84.6700	  603.00	  637.42	-1936.42	  416.80
     84.7700	  584.00	  634.25	-1952.25	  416.65
     84.8700	  607.00	  628.96	-1923.96	  416.51
     84.9700	  604.00	  622.15	-1920.15	  416.37
     85.0700	  579.00	  614.54	-1937.54	  416.22
     85.1700	  602.00	  606.76	-1906.76	  416.08
     85.2700	  608.00	  599.35	-1893.35	  415.93
     85.3700	  575.00	  592.72	-1919.72	  415.79
     85.4700	  576.00	  587.15	-1913.15	  415.64
     85.5700	  599.00	  582.84	-1885.84	  415.49
     85.6700	  556.00	  579.87	-1925.87	  415.34
     85.7700	  596.00	  578.28	-1884.28	  415.20
     85.8700	  574.00	  578.07	-1906.07	  415.05
     85.9700	  563.00	  579.20	-1918.20	  414.90
     86.0700	  619.00	  581.65	-1864.65	  414.74
     86.1700	  570.00	  585.36	-1917.36	  414.59
     86.2700	  584.00	  590.26	-1908.26	  414.44
     86.3700	  602.00	  596.28	-1896.28	  414.29
     86.4700	  602.00	  603.27	-1903.27	  414.13
     86.5700	  610.00	  611.07	-1903.07	  413.98
     86.6700	  570.00	  619.46	-1951.46	  413.82
     86.7700	  597.00	  628.15	-1933.15	  413.67
     86.8700	  648.00	  636.89	-1890.89	  413.51
     86.9700	  615.00	  645.40	-1932.40	  413.36
     87.0700	  651.00	  653.53	-1904.53	  413.20
     87.1700	  631.00	  661.37	-1932.37	  413.04
     87.2700	  623.00	  669.14	-1948.14	  412.88
     87.3700	  634.00	  677.09	-1945.09	  412.72
     87.4700	  661.00	  685.40	-1926.40	  412.56
     87.5700	  664.00	  694.01	-1932.01	  412.40
     87.6700	  655.00	  702.61	-1949.61	  412.24
     87.7700	  752.00	  710.61	-1860.61	  412.08
     87.8700	  785.00	  717.18	-1834.18	  411.92
     87.9700	  706.00	  721.34	-1917.34	  411.75
     88.0700	  683.00	  722.22	-1941.22	  411.59
     88.1700	  700.00	  719.29	-1921.29	  411.43
     88.2700	  675.00	  712.59	-1939.59	  411.26
     88.3700	  706.00	  702.71	-1898.71	  411.10
     88.4700	  679.00	  690.55	-1913.55	  410.93
     88.5700	  683.00	  677.13	-1896.13	  410.77
     88.6700	  663.00	  663.42	-1902.42	  410.60
     88.7700	  643.00	  650.27	-1909.27	  410.43
     88.8700	  619.00	  637.94	-1920.94	  410.26
     88.9700	  623.00	  627.80	-1906.80	  410.10
     89.0700	  671.00	  619.75	-1850.75	  409.93
     89.1700	  614.00	  613.94	-1901.94	  409.76
     89.2700	  648.00	  610.35	-1864.35	  409.59
     89.3700	  636.00	  608.80	-1874.80	  409.42
     89.4700	  608.00	  608.98	-1902.98	  409.25
     89.5700	  619.00	  610.48	-1893.48	  409.08
     89.6700	  662.00	  612.79	-1852.79	  408.91
     89.7700	  677.00	  615.37	-1840.37	  408.73
     89.8700	  656.00	  617.61	-1863.61	  408.56
     89.9700	  634.00	  618.96	-1886.96	  408.39
     90.0700	  657.00	  618.99	-1863.99	  408.22
     90.1700	  678.00	  617.47	-1841.47	  408.04
     90.2700	  632.00	  614.44	-1884.44	  407.87
     90.3700	  661.00	  610.16	-1851.16	  407.69
     90.4700	  625.00	  604.99	-1881.99	  407.52
     90.5700	  599.00	  599.34	-1902.34	  407.34
     90.6700	  572.00	  593.57	-1923.57	  407.17
     90.7700	  612.00	  587.99	-1877.99	  406.99
     90.8700	  576.00	  582.83	-1908.83	  406.82
     90.9700	  578.00	  578.26	-1902.26	  406.64
     91.0700	  607.00	  574.36	-1869.36	  406.46
     91.1700	  586.00	  571.17	-1887.17	  406.29
     91.2700	  602.00	  568.70	-1868.70	  406.11
     91.3700	  582.00	  566.89	-1886.89	  405.93
     91.4700	  569.00	  565.70	-1898.70	  405.75
     91.5700	  593.00	  565.07	-1874.07	  405.57
     91.6700	  563.00	  564.97	-1903.97	  405.39
     91.7700	  623.00	  565.37	-1844.37	  405.21
     91.8700	  587.00	  566.28	-1881.28	  405.04
     91.9700	  546.00	  567.77	-1923.77	  404.86
     92.0700	  545.00	  569.92	-1926.92	  404.68
     92.1700	  594.00	  572.86	-1880.86	  404.50
     92.2700	  585.00	  576.77	-1893.77	  404.31
     92.3700	  589.00	  581.84	-1894.84	  404.13
     92.4700	  613.00	  588.31	-1877.31	  403.95
     92.5700	  579.00	  596.39	-1919.39	  403.77
     92.6700	  646.00	  606.30	-1862.30	  403.59
     92.7700	  601.00	  618.19	-1919.19	  403.41
     92.8700	  603.00	  632.18	-1931.18	  403.23
     92.9700	  616.00	  648.26	-1934.26	  403.05
     93.0700	  615.00	  666.32	-1953.32	  402.86
     93.1700	  673.00	  686.11	-1915.11	  402.68
     93.2700	  664.00	  707.25	-1945.25	  402.50
     93.3700	  692.00	  729.16	-1939.16	  402.32
     93.4700	  738.00	  751.15	-1915.15	  402.13
     93.5700	  732.00	  772.39	-1942.39	  401.95
     93.6700	  768.00	  792.05	-1926.05	  401.77
     93.7700	  782.00	  809.51	-1929.51	  401.59
     93.8700	  806.00	  824.48	-1920.48	  401.40
     93.9700	  804.00	  837.11	-1935.11	  401.22
     94.0700	  775.00	  847.95	-1974.94	  401.04
     94.1700	  830.00	  857.66	-1929.66	  400.85
     94.2700	  855.00	  866.92	-1913.92	  400.67
     94.3700	  851.00	  875.89	-1926.89	  400.49
     94.4700	  921.00	  885.52	-1866.52	  400.30
     94.5700	  935.00	  895.76	-1862.76	  400.12
     94.6700	  875.00	  906.88	-1933.88	  399.94
     94.7700	  912.00	  919.13	-1909.13	  399.75
     94.8700	  897.00	  932.70	-1937.70	  399.57
     94.9700	  965.00	  947.48	-1884.48	  399.39
     95.0700	  941.00	  963.00	-1924.00	  399.20
     95.1700	  969.00	  978.27	-1911.27	  399.02
     95.2700	 1001.00	  991.90	-1892.90	  398.84
     95.3700	 1041.00	 1002.15	-1863.14	  398.65
     95.4700	  960.00	 1007.21	-1949.21	  398.47
     95.5700	 1022.00	 1005.59	-1885.59	  398.29
     95.6700	 1006.00	  996.45	-1892.45	  398.10
     95.7700	  987.00	  979.90	-1894.90	  397.92
     95.8700	  956.00	  957.03	-1903.03	  397.74
     95.9700	  892.00	  929.55	-1939.55	  397.56
     96.0700	  894.00	  899.56	-1907.56	  397.37
     96.1700	  861.00	  869.23	-1910.23	  397.19
     96.2700	  863.00	  840.65	-1879.65	  397.01
     96.3700	  830.00	  815.73	-1887.73	  396.83
     96.4700	  797.00	  796.18	-1901.18	  396.65
     96.5700	  829.00	  783.48	-1856.48	  396.47
     96.6700	  816.00	  778.83	-1864.83	  396.28
     96.7700	  742.00	  783.20	-1943.20	  396.10
     96.8700	  830.00	  797.34	-1869.34	  395.92
     96.9700	  867.00	  821.72	-1856.72	  395.74
     97.0700	  885.00	  856.59	-1873.59	  395.56
     97.1700	  857.00	  901.84	-1946.84	  395.38
     97.2700	  961.00	  957.05	-1898.05	  395.20
     97.3700	 1068.00	 1021.36	-1855.36	  395.02
     97.4700	 1100.00	 1093.39	-1895.39	  394.84
     97.5700	 1176.00	 1171.21	-1897.21	  394.67
     97.6700	 1178.00	 1252.25	-1976.25	  394.49
     97.7700	 1360.00	 1333.34	-1875.34	  394.31
     97.8700	 1348.00	 1410.70	-1964.70	  394.13
     97.9700	 1424.00	 1480.00	-1958.00	  393.96
     98.0700	 1494.00	 1536.74	-1944.74	  393.78
     98.1700	 1519.00	 1576.69	-1959.69	  393.60
     98.2700	 1546.00	 1596.72	-1952.71	  393.43
     98.3700	 1503.00	 1595.38	-1994.38	  393.25
     98.4700	 1587.00	 1573.34	-1888.34	  393.08
     98.5700	 1501.00	 1533.07	-1934.07	  392.90
     98.6700	 1437.00	 1478.30	-1943.30	  392.73
     98.7700	 1377.00	 1413.28	-1938.28	  392.55
     98.8700	 1322.00	 1342.28	-1922.27	  392.38
     98.9700	 1261.00	 1269.30	-1910.30	  392.21
     99.0700	 1239.00	 1197.92	-1860.92	  392.04
     99.1700	 1162.00	 1131.23	-1871.23	  391.87
     99.2700	 1047.00	 1071.79	-1926.79	  391.70
     99.3700	 1066.00	 1021.73	-1857.73	  391.53
     99.4700	  961.00	  982.77	-1923.77	  391.36
     99.5700	  962.00	  956.21	-1896.21	  391.19
     99.6700	  946.00	  943.03	-1899.03	  391.02
     99.7700	 1007.00	  943.88	-1838.88	  390.85
     99.8700	  988.00	  959.09	-1873.09	  390.68
     99.9700	 1038.00	  988.72	-1852.72	  390.52
    100.0700	 1101.00	 1032.54	-1833.54	  390.35
    100.1700	 1061.00	 1089.97	-1930.97	  390.19
    100.2700	 1211.00	 1160.10	-1851.10	  390.02
    100.3700	 1257.00	 1241.58	-1886.58	  389.86
    100.4700	 1332.00	 1332.59	-1902.59	  389.70
    100.5700	 1466.00	 1430.78	-1866.78	  389.53
    100.6700	 1560.00	 1533.26	-1875.26	  389.37
    100.7700	 1689.00	 1636.53	-1849.53	  389.21
    100.8700	 1806.00	 1736.89	-1832.89	  389.05
    100.9700	 1801.00	 1830.29	-1931.29	  388.89
    101.0700	 1853.00	 1912.99	-1961.99	  388.74
    101.1700	 1981.00	 1981.97	-1902.97	  388.58
    101.2700	 2085.00	 2035.04	-1852.04	  388.42
    101.3700	 2079.00	 2070.91	-1893.91	  388.27
    101.4700	 2059.00	 2088.86	-1931.86	  388.11
    101.5700	 2104.00	 2088.57	-1886.57	  387.96
    101.6700	 2085.00	 2070.14	-1887.14	  387.81
    101.7700	 1970.00	 2034.24	-1966.24	  387.66
    101.8700	 2045.00	 1982.54	-1839.54	  387.50
    101.9700	 2094.00	 1917.84	-1725.84	  387.35
    102.0700	 1888.00	 1843.86	-1857.86	  387.21
    102.1700	 1850.00	 1764.79	-1816.79	  387.06
    102.2700	 1607.00	 1684.73	-1979.73	  386.91
    102.3700	 1661.00	 1607.28	-1848.28	  386.77
    102.4700	 1589.00	 1535.26	-1848.26	  386.62
    102.5700	 1489.00	 1470.61	-1883.61	  386.48
    102.6700	 1465.00	 1414.41	-1851.41	  386.34
    102.7700	 1459.00	 1366.94	-1809.94	  386.19
    102.8700	 1328.00	 1327.74	-1901.74	  386.05
    102.9700	 1280.00	 1295.73	-1917.73	  385.92
    103.0700	 1235.00	 1269.25	-1936.25	  385.78
    103.1700	 1204.00	 1246.26	-1944.26	  385.64
    103.2700	 1199.00	 1224.54	-1927.54	  385.51
    103.3700	 1185.00	 1201.94	-1918.94	  385.37
    103.4700	 1153.00	 1176.70	-1925.70	  385.24
    103.5700	 1099.00	 1147.68	-1950.68	  385.11
    103.6700	 1048.00	 1114.50	-1968.50	  384.98
    103.7700	 1015.00	 1077.45	-1964.45	  384.85
    103.8700	  987.00	 1037.34	-1952.34	  384.72
    103.9700	 1038.00	  995.23	-1859.23	  384.59
    104.0700	  980.00	  952.24	-1874.24	  384.47
    104.1700	  979.00	  909.46	-1832.46	  384.35
    104.2700	  904.00	  867.86	-1865.86	  384.22
    104.3700	  829.00	  828.26	-1901.26	  384.10
    104.4700	  835.00	  791.30	-1858.30	  383.98
    104.5700	  756.00	  757.48	-1903.48	  383.86
    104.6700	  743.00	  727.08	-1886.08	  383.75
    104.7700	  718.00	  700.24	-1884.24	  383.63
    104.8700	  715.00	  676.97	-1863.97	  383.52
    104.9700	  665.00	  657.13	-1894.13	  383.41
    105.0700	  615.00	  640.51	-1927.51	  383.30
    105.1700	  639.00	  626.78	-1889.78	  383.19
    105.2700	  646.00	  615.70	-1871.70	  383.08
    105.3700	  614.00	  606.92	-1894.92	  382.98
    105.4700	  575.00	  600.12	-1927.12	  382.87
    105.5700	  651.00	  595.02	-1846.02	  382.77
    105.6700	  626.00	  591.36	-1867.36	  382.67
    105.7700	  608.00	  588.96	-1882.96	  382.57
    105.8700	  599.00	  587.62	-1890.62	  382.47
    105.9700	  599.00	  587.32	-1890.32	  382.38
    106.0700	  625.00	  587.95	-1864.95	  382.28
    106.1700	  595.00	  589.50	-1896.50	  382.19
    106.2700	  597.00	  591.97	-1896.97	  382.10
    106.3700	  580.00	  595.41	-1917.41	  382.01
    106.4700	  588.00	  599.88	-1913.88	  381.92
    106.5700	  639.00	  605.44	-1868.44	  381.84
    106.6700	  656.00	  612.16	-1858.16	  381.75
    106.7700	  653.00	  620.10	-1869.10	  381.67
    106.8700	  590.00	  629.30	-1941.30	  381.59
    106.9700	  616.00	  639.72	-1925.72	  381.52
    107.0700	  661.00	  651.32	-1892.32	  381.44
    107.1700	  645.00	  663.97	-1920.97	  381.37
    107.2700	  663.00	  677.47	-1916.47	  381.30
    107.3700	  665.00	  691.59	-1928.59	  381.23
    107.4700	  731.00	  706.01	-1877.01	  381.16
    107.5700	  721.00	  720.33	-1901.33	  381.09
    107.6700	  689.00	  734.14	-1947.14	  381.03
    107.7700	  743.00	  746.99	-1905.99	  380.97
    107.8700	  711.00	  758.39	-1949.39	  380.91
    107.9700	  782.00	  767.93	-1887.93	  380.85
    108.0700	  704.00	  775.28	-1973.28	  380.80
    108.1700	  794.00	  780.25	-1888.25	  380.74
    108.2700	  767.00	  782.93	-1917.93	  380.69
    108.3700	  733.00	  783.55	-1952.55	  380.64
    108.4700	  809.00	  782.49	-1875.49	  380.60
    108.5700	  712.00	  780.24	-1970.24	  380.55
    108.6700	  735.00	  777.33	-1944.32	  380.51
    108.7700	  744.00	  774.20	-1932.20	  380.47
    108.8700	  736.00	  771.27	-1937.27	  380.44
    108.9700	  708.00	  768.83	-1962.83	  380.40
    109.0700	  753.00	  767.06	-1916.06	  380.37
    109.1700	  781.00	  766.03	-1887.03	  380.34
    109.2700	  744.00	  765.67	-1923.67	  380.31
    109.3700	  723.00	  765.80	-1944.80	  380.29
    109.4700	  710.00	  766.15	-1958.15	  380.26
    109.5700	  757.00	  766.35	-1911.35	  380.24
    109.6700	  753.00	  765.97	-1914.97	  380.23
    109.7700	  751.00	  764.61	-1915.61	  380.21
    109.8700	  701.00	  761.88	-1962.88	  380.20
    109.9700	  757.00	  757.54	-1902.54	  380.19
    110.0700	  750.00	  751.48	-1903.48	  380.18
    110.1700	  694.00	  743.75	-1951.75	  380.18
    110.2700	  746.00	  734.52	-1890.52	  380.18
    110.3700	  697.00	  724.10	-1929.10	  380.18
    110.4700	  708.00	  712.80	-1906.80	  380.18
    110.5700	  709.00	  700.97	-1893.97	  380.19
    110.6700	  678.00	  688.95	-1912.95	  380.20
    110.7700	  671.00	  677.02	-1908.02	  380.21
    110.8700	  653.00	  665.47	-1914.47	  380.22
    110.9700	  685.00	  654.51	-1871.50	  380.24
    111.0700	  593.00	  644.31	-1953.31	  380.26
    111.1700	  670.00	  635.03	-1867.03	  380.28
    111.2700	  623.00	  626.75	-1905.75	  380.31
    111.3700	  604.00	  619.54	-1917.54	  380.34
    111.4700	  591.00	  613.41	-1924.41	  380.37
    111.5700	  585.00	  608.35	-1925.35	  380.40
    111.6700	  624.00	  604.32	-1882.32	  380.44
    111.7700	  619.00	  601.26	-1884.26	  380.48
    111.8700	  580.00	  599.09	-1921.09	  380.53
    111.9700	  592.00	  597.73	-1907.73	  380.57
    112.0700	  563.00	  597.07	-1936.07	  380.62
    112.1700	  579.00	  597.03	-1920.03	  380.68
    112.2700	  592.00	  597.50	-1907.50	  380.73
    112.3700	  566.00	  598.40	-1934.40	  380.79
    112.4700	  587.00	  599.64	-1914.64	  380.86
    112.5700	  606.00	  601.14	-1897.14	  380.92
    112.6700	  568.00	  602.84	-1936.84	  380.99
    112.7700	  568.00	  604.68	-1938.68	  381.06
    112.8700	  571.00	  606.64	-1937.64	  381.14
    112.9700	  633.00	  608.70	-1877.70	  381.22
    113.0700	  593.00	  610.85	-1919.85	  381.30
    113.1700	  602.00	  613.11	-1913.11	  381.39
    113.2700	  560.00	  615.53	-1957.52	  381.48
    113.3700	  599.00	  618.13	-1921.13	  381.57
    113.4700	  596.00	  620.98	-1926.98	  381.67
    113.5700	  584.00	  624.14	-1942.14	  381.77
    113.6700	  621.00	  627.70	-1908.70	  381.87
    113.7700	  630.00	  631.77	-1903.77	  381.98
    113.8700	  585.00	  636.45	-1953.45	  382.09
    113.9700	  651.00	  641.92	-1892.92	  382.20
    114.0700	  657.00	  648.37	-1893.37	  382.32
    114.1700	  637.00	  656.06	-1921.06	  382.44
    114.2700	  646.00	  665.32	-1921.32	  382.57
    114.3700	  693.00	  676.56	-1885.56	  382.69
    114.4700	  671.00	  690.31	-1921.31	  382.83
    114.5700	  735.00	  707.24	-1874.24	  382.96
    114.6700	  779.00	  728.17	-1851.17	  383.10
    114.7700	  823.00	  754.13	-1833.13	  383.25
    114.8700	  821.00	  786.33	-1867.33	  383.40
    114.9700	  866.00	  826.23	-1862.22	  383.55
    115.0700	  859.00	  875.51	-1918.51	  383.70
    115.1700	  945.00	  936.13	-1893.13	  383.86
    115.2700	 1073.00	 1010.27	-1839.27	  384.03
    115.3700	 1125.00	 1100.31	-1877.31	  384.19
    115.4700	 1342.00	 1208.77	-1768.77	  384.37
    115.5700	 1427.00	 1338.24	-1813.24	  384.54
    115.6700	 1584.00	 1491.33	-1809.33	  384.72
    115.7700	 1865.00	 1670.51	-1707.51	  384.90
    115.8700	 1994.00	 1877.91	-1785.91	  385.09
    115.9700	 2309.00	 2115.21	-1708.21	  385.28
    116.0700	 2622.00	 2383.44	-1663.44	  385.48
    116.1700	 2814.00	 2682.88	-1770.88	  385.68
    116.2700	 3238.00	 3012.85	-1676.85	  385.89
    116.3700	 3515.00	 3371.46	-1758.46	  386.10
    116.4700	 3757.00	 3755.61	-1900.61	  386.31
    116.5700	 4156.00	 4160.81	-1906.81	  386.53
    116.6700	 4608.00	 4581.32	-1875.32	  386.75
    116.7700	 4907.00	 5010.13	-2005.13	  386.98
    116.8700	 5273.00	 5438.75	-2067.75	  387.21
    116.9700	 5781.00	 5857.61	-1978.61	  387.44
    117.0700	 6073.00	 6256.11	-2085.11	  387.68
    117.1700	 6502.00	 6623.07	-2023.07	  387.93
    117.2700	 6809.00	 6947.02	-2040.02	  388.18
    117.3700	 7233.00	 7216.66	-1885.65	  388.43
    117.4700	 7232.00	 7421.76	-2091.76	  388.69
    117.5700	 7325.00	 7554.04	-2131.03	  388.95
    117.6700	 7491.00	 7608.00	-2019.00	  389.22
    117.7700	 7532.00	 7581.58	-1951.58	  389.49
    117.8700	 7305.00	 7476.41	-2073.41	  389.77
    117.9700	 7116.00	 7297.59	-2083.59	  390.05
    118.0700	 6850.00	 7053.15	-2105.15	  390.34
    118.1700	 6467.00	 6753.00	-2188.00	  390.63
    118.2700	 6208.00	 6408.11	-2102.11	  390.93
    118.3700	 5862.00	 6029.90	-2069.90	  391.23
    118.4700	 5599.00	 5629.48	-1932.48	  391.54
    118.5700	 5238.00	 5217.32	-1881.32	  391.85
    118.6700	 4966.00	 4802.82	-1738.82	  392.17
    118.7700	 4544.00	 4394.22	-1752.22	  392.49
    118.8700	 4048.00	 3998.59	-1852.59	  392.82
    118.9700	 3756.00	 3621.61	-1767.61	  393.15
    119.0700	 3538.00	 3267.68	-1631.68	  393.48
    119.1700	 3224.00	 2939.81	-1617.80	  393.83
    119.2700	 2816.00	 2639.82	-1725.82	  394.17
    119.3700	 2484.00	 2368.61	-1786.61	  394.53
    119.4700	 2312.00	 2126.08	-1716.08	  394.89
    119.5700	 2106.00	 1911.46	-1707.46	  395.25
    119.6700	 1824.00	 1723.30	-1801.30	  395.62
    119.7700	 1679.00	 1559.76	-1782.76	  395.99
    119.8700	 1604.00	 1418.76	-1716.76	  396.37
    119.9700	 1443.00	 1298.04	-1757.04	  396.76
    120.0700	 1335.00	 1195.31	-1762.30	  397.15
    120.1700	 1181.00	 1108.29	-1829.29	  397.54
    120.2700	 1063.00	 1034.84	-1873.84	  397.94
    120.3700	 1057.00	  973.01	-1818.01	  398.35
    120.4700	 1011.00	  921.04	-1812.04	  398.76
    120.5700	  950.00	  877.37	-1829.37	  399.18
    120.6700	  861.00	  840.65	-1881.65	  399.61
    120.7700	  817.00	  809.75	-1894.75	  400.04
    120.8700	  760.00	  783.72	-1925.72	  400.47
    120.9700	  789.00	  761.78	-1874.78	  400.91
    121.0700	  780.00	  743.27	-1865.27	  401.36
    121.1700	  774.00	  727.68	-1855.68	  401.81
    121.2700	  722.00	  714.59	-1894.59	  402.27
    121.3700	  699.00	  703.66	-1906.66	  402.74
    121.4700	  652.00	  694.62	-1944.62	  403.21
    121.5700	  694.00	  687.25	-1895.25	  403.68
    121.6700	  659.00	  681.37	-1924.37	  404.17
    121.7700	  697.00	  676.85	-1881.85	  404.66
    121.8700	  703.00	  673.57	-1872.57	  405.15
    121.9700	  656.00	  671.44	-1917.44	  405.65
    122.0700	  680.00	  670.37	-1892.37	  406.16
    122.1700	  653.00	  670.30	-1919.30	  406.67
    122.2700	  645.00	  671.15	-1928.15	  407.19
    122.3700	  649.00	  672.88	-1925.88	  407.72
    122.4700	  670.00	  675.42	-1907.42	  408.25
    122.5700	  640.00	  678.72	-1940.72	  408.79
    122.6700	  695.00	  682.70	-1889.70	  409.34
    122.7700	  651.00	  687.30	-1938.30	  409.89
    122.8700	  650.00	  692.44	-1944.44	  410.45
    122.9700	  690.00	  698.04	-1910.04	  411.01
    123.0700	  694.00	  704.00	-1912.00	  411.58
    123.1700	  703.00	  710.23	-1909.23	  412.16
    123.2700	  697.00	  716.61	-1921.61	  412.74
    123.3700	  675.00	  723.04	-1950.04	  413.34
    123.4700	  703.00	  729.39	-1928.39	  413.93
    123.5700	  783.00	  735.54	-1854.54	  414.54
    123.6700	  741.00	  741.37	-1902.37	  415.15
    123.7700	  688.00	  746.78	-1960.78	  415.77
    123.8700	  727.00	  751.66	-1926.66	  416.39
    123.9700	  759.00	  755.94	-1898.94	  417.02
    124.0700	  726.00	  759.58	-1935.58	  417.66
    124.1700	  720.00	  762.55	-1944.55	  418.31
    124.2700	  732.00	  764.86	-1934.86	  418.96
    124.3700	  754.00	  766.52	-1914.52	  419.62
    124.4700	  739.00	  767.64	-1930.64	  420.29
    124.5700	  734.00	  768.26	-1936.26	  420.96
    124.6700	  762.00	  768.44	-1908.44	  421.64
    124.7700	  766.00	  768.26	-1904.26	  422.33
    124.8700	  698.00	  767.77	-1971.77	  423.03
    124.9700	  767.00	  550.46	-1685.46	  423.73
    125.0700	  798.00	  551.17	-1902.00	  424.44
    125.1700	  740.00	  551.88	-1902.00	  425.16
    125.2700	  725.00	  552.61	-1902.00	  425.88
    125.3700	  765.00	  553.34	-1902.00	  426.62
    125.4700	  690.00	  554.08	-1902.00	  427.36
    125.5700	  746.00	  554.83	-1902.00	  428.10
    125.6700	  688.00	  555.58	-1902.00	  428.86
    125.7700	  725.00	  556.35	-1902.00	  429.62
    125.8700	  675.00	  557.12	-1902.00	  430.39
    125.9700	  758.00	  557.89	-1902.00	  431.17
    126.0700	  688.00	  558.68	-1902.00	  431.95
    126.1700	  691.00	  559.47	-1902.00	  432.75
    126.2700	  675.00	  560.27	-1902.00	  433.55
    126.3700	  649.00	  561.08	-1902.00	  434.36
    126.4700	  658.00	  561.90	-1902.00	  435.18
    126.5700	  653.00	  562.73	-1902.00	  436.00
    126.6700	  664.00	  563.56	-1902.00	  436.83
    126.7700	  670.00	  564.40	-1902.00	  437.67
    126.8700	  689.00	  565.25	-1902.00	  438.52
    126.9700	  629.00	  566.10	-1902.00	  439.38
    127.0700	  646.00	  566.97	-1902.00	  440.24
    127.1700	  600.00	  567.84	-1902.00	  441.12
    127.2700	  626.00	  568.72	-1902.00	  442.00
    127.3700	  652.00	  569.61	-1902.00	  442.89
    127.4700	  580.00	  570.51	-1902.00	  443.79
    127.5700	  589.00	  571.42	-1902.00	  444.69
    127.6700	  598.00	  572.33	-1902.00	  445.61
    127.7700	  599.00	  573.26	-1902.00	  446.53
    127.8700	  638.00	  574.19	-1902.00	  447.46
    127.9700	  606.00	  575.13	-1902.00	  448.40
    128.0700	  639.00	  576.08	-1902.00	  449.35
    128.1700	  632.00	  577.03	-1902.00	  450.31
    128.2700	  631.00	  578.00	-1902.00	  451.28
    128.3700	  662.00	  578.98	-1902.00	  452.25
    128.4700	  645.00	  579.96	-1902.00	  453.23
    128.5700	    0.00	  580.95	-1902.00	  454.23
    128.6700	    0.00	  581.95	-1902.00	  455.23
     12.4059	        	        	        	        	       0	(  0  0  2)	  0  1
     12.4059	        	        	        	        	    -475	(  0  0  2)	  0  1
     25.0589	        	        	        	        	       0	(  0  0  4)	  0  1
     25.0589	        	        	        	        	    -475	(  0  0  4)	  0  1
     28.5170	        	        	        	        	       0	(  1  0  0)	  0  1
     28.5170	        	        	        	        	    -475	(  1  0  0)	  0  1
     29.2183	        	        	        	        	       0	(  1  0  1)	  0  1
     29.2183	        	        	        	        	    -475	(  1  0  1)	  0  1
     31.2363	        	        	        	        	       0	(  1  0  2)	  0  1
     31.2363	        	        	        	        	    -475	(  1  0  2)	  0  1
     34.3631	        	        	        	        	       0	(  1  0  3)	  0  1
     34.3631	        	        	        	        	    -475	(  1  0  3)	  0  1
     38.0333	        	        	        	        	       0	(  0  0  6)	  0  1
     38.0333	        	        	        	        	    -475	(  0  0  6)	  0  1
     38.3642	        	        	        	        	       0	(  1  0  4)	  0  1
     38.3642	        	        	        	        	    -475	(  1  0  4)	  0  1
     43.0430	        	        	        	        	       0	(  1  0  5)	  0  1
     43.0430	        	        	        	        	    -475	(  1  0  5)	  0  1
     48.2601	        	        	        	        	       0	(  1  0  6)	  0  1
     48.2601	        	        	        	        	    -475	(  1  0  6)	  0  1
     50.5854	        	        	        	        	       0	(  1  1  0)	  0  1
     50.5854	        	        	        	        	    -475	(  1  1  0)	  0  1
     51.5395	        	        	        	        	       0	(  0  0  8)	  0  1
     51.5395	        	        	        	        	    -475	(  0  0  8)	  0  1
     52.3200	        	        	        	        	       0	(  1  1  2)	  0  1
     52.3200	        	        	        	        	    -475	(  1  1  2)	  0  1
     53.9279	        	        	        	        	       0	(  1  0  7)	  0  1
     53.9279	        	        	        	        	    -475	(  1  0  7)	  0  1
     57.3020	        	        	        	        	       0	(  1  1  4)	  0  1
     57.3020	        	        	        	        	    -475	(  1  1  4)	  0  1
     59.1394	        	        	        	        	       0	(  2  0  0)	  0  1
     59.1394	        	        	        	        	    -475	(  2  0  0)	  0  1
     59.5338	        	        	        	        	       0	(  2  0  1)	  0  1
     59.5338	        	        	        	        	    -475	(  2  0  1)	  0  1
     60.0004	        	        	        	        	       0	(  1  0  8)	  0  1
     60.0004	        	        	        	        	    -475	(  1  0  8)	  0  1
     60.7076	        	        	        	        	       0	(  2  0  2)	  0  1
     60.7076	        	        	        	        	    -475	(  2  0  2)	  0  1
     62.6349	        	        	        	        	       0	(  2  0  3)	  0  1
     62.6349	        	        	        	        	    -475	(  2  0  3)	  0  1
     65.0530	        	        	        	        	       0	(  1  1  6)	  0  1
     65.0530	        	        	        	        	    -475	(  1  1  6)	  0  1
     65.2788	        	        	        	        	       0	(  2  0  4)	  0  1
     65.2788	        	        	        	        	    -475	(  2  0  4)	  0  1
     65.8694	        	        	        	        	       0	(  0  0 10)	  0  1
     65.8694	        	        	        	        	    -475	(  0  0 10)	  0  1
     66.4644	        	        	        	        	       0	(  1  0  9)	  0  1
     66.4644	        	        	        	        	    -475	(  1  0  9)	  0  1
     68.5987	        	        	        	        	       0	(  2  0  5)	  0  1
     68.5987	        	        	        	        	    -475	(  2  0  5)	  0  1
     72.5581	        	        	        	        	       0	(  2  0  6)	  0  1
     72.5581	        	        	        	        	    -475	(  2  0  6)	  0  1
     73.3350	        	        	        	        	       0	(  1  0 10)	  0  1
     73.3350	        	        	        	        	    -475	(  1  0 10)	  0  1
     75.1717	        	        	        	        	       0	(  1  1  8)	  0  1
     75.1717	        	        	        	        	    -475	(  1  1  8)	  0  1
     77.1310	        	        	        	        	       0	(  2  0  7)	  0  1
     77.1310	        	        	        	        	    -475	(  2  0  7)	  0  1
     80.6563	        	        	        	        	       0	(  1  0 11)	  0  1
     80.6563	        	        	        	        	    -475	(  1  0 11)	  0  1
     81.4798	        	        	        	        	       0	(  0  0 12)	  0  1
     81.4798	        	        	        	        	    -475	(  0  0 12)	  0  1
     81.5577	        	        	        	        	       0	(  2  1  0)	  0  1
     81.5577	        	        	        	        	    -475	(  2  1  0)	  0  1
     81.9008	        	        	        	        	       0	(  2  1  1)	  0  1
     81.9008	        	        	        	        	    -475	(  2  1  1)	  0  1
     82.3081	        	        	        	        	       0	(  2  0  8)	  0  1
     82.3081	        	        	        	        	    -475	(  2  0  8)	  0  1
     82.9283	        	        	        	        	       0	(  2  1  2)	  0  1
     82.9283	        	        	        	        	    -475	(  2  1  2)	  0  1
     84.6361	        	        	        	        	       0	(  2  1  3)	  0  1
     84.6361	        	        	        	        	    -475	(  2  1  3)	  0  1
     87.0194	        	        	        	        	       0	(  2  1  4)	  0  1
     87.0194	        	        	        	        	    -475	(  2  1  4)	  0  1
     87.5581	        	        	        	        	       0	(  1  1 10)	  0  1
     87.5581	        	        	        	        	    -475	(  1  1 10)	  0  1
     88.1031	        	        	        	        	       0	(  2  0  9)	  0  1
     88.1031	        	        	        	        	    -475	(  2  0  9)	  0  1
     88.5069	        	        	        	        	       0	(  1  0 12)	  0  1
     88.5069	        	        	        	        	    -475	(  1  0 12)	  0  1
     90.0770	        	        	        	        	       0	(  2  1  5)	  0  1
     90.0770	        	        	        	        	    -475	(  2  1  5)	  0  1
     93.8155	        	        	        	        	       0	(  2  1  6)	  0  1
     93.8155	        	        	        	        	    -475	(  2  1  6)	  0  1
     94.5608	        	        	        	        	       0	(  2  0 10)	  0  1
     94.5608	        	        	        	        	    -475	(  2  0 10)	  0  1
     95.5903	        	        	        	        	       0	(  3  0  0)	  0  1
     95.5903	        	        	        	        	    -475	(  3  0  0)	  0  1
     95.9316	        	        	        	        	       0	(  3  0  1)	  0  1
     95.9316	        	        	        	        	    -475	(  3  0  1)	  0  1
     96.9571	        	        	        	        	       0	(  3  0  2)	  0  1
     96.9571	        	        	        	        	    -475	(  3  0  2)	  0  1
     97.0150	        	        	        	        	       0	(  1  0 13)	  0  1
     97.0150	        	        	        	        	    -475	(  1  0 13)	  0  1
     98.2567	        	        	        	        	       0	(  2  1  7)	  0  1
     98.2567	        	        	        	        	    -475	(  2  1  7)	  0  1
     98.6714	        	        	        	        	       0	(  3  0  3)	  0  1
     98.6714	        	        	        	        	    -475	(  3  0  3)	  0  1
     99.2097	        	        	        	        	       0	(  0  0 14)	  0  1
     99.2097	        	        	        	        	    -475	(  0  0 14)	  0  1
    101.0852	        	        	        	        	       0	(  3  0  4)	  0  1
    101.0852	        	        	        	        	    -475	(  3  0  4)	  0  1
    101.7717	        	        	        	        	       0	(  2  0 11)	  0  1
    101.7717	        	        	        	        	    -475	(  2  0 11)	  0  1
    102.6045	        	        	        	        	       0	(  1  1 12)	  0  1
    102.6045	        	        	        	        	    -475	(  1  1 12)	  0  1
    103.4467	        	        	        	        	       0	(  2  1  8)	  0  1
    103.4467	        	        	        	        	    -475	(  2  1  8)	  0  1
    104.2191	        	        	        	        	       0	(  3  0  5)	  0  1
    104.2191	        	        	        	        	    -475	(  3  0  5)	  0  1
    106.3923	        	        	        	        	       0	(  1  0 14)	  0  1
    106.3923	        	        	        	        	    -475	(  1  0 14)	  0  1
    108.1110	        	        	        	        	       0	(  3  0  6)	  0  1
    108.1110	        	        	        	        	    -475	(  3  0  6)	  0  1
    109.4722	        	        	        	        	       0	(  2  1  9)	  0  1
    109.4722	        	        	        	        	    -475	(  2  1  9)	  0  1
    109.9011	        	        	        	        	       0	(  2  0 12)	  0  1
    109.9011	        	        	        	        	    -475	(  2  0 12)	  0  1
    112.8275	        	        	        	        	       0	(  3  0  7)	  0  1
    112.8275	        	        	        	        	    -475	(  3  0  7)	  0  1
    116.4899	        	        	        	        	       0	(  2  1 10)	  0  1
    116.4899	        	        	        	        	    -475	(  2  1 10)	  0  1
    117.0140	        	        	        	        	       0	(  1  0 15)	  0  1
    117.0140	        	        	        	        	    -475	(  1  0 15)	  0  1
    117.6424	        	        	        	        	       0	(  2  2  0)	  0  1
    117.6424	        	        	        	        	    -475	(  2  2  0)	  0  1
    118.4853	        	        	        	        	       0	(  3  0  8)	  0  1
    118.4853	        	        	        	        	    -475	(  3  0  8)	  0  1
    119.1882	        	        	        	        	       0	(  2  2  2)	  0  1
    119.1882	        	        	        	        	    -475	(  2  2  2)	  0  1
    119.2541	        	        	        	        	       0	(  2  0 13)	  0  1
    119.2541	        	        	        	        	    -475	(  2  0 13)	  0  1
    121.0565	        	        	        	        	       0	(  0  0 16)	  0  1
    121.0565	        	        	        	        	    -475	(  0  0 16)	  0  1
    121.7781	        	        	        	        	       0	(  1  1 14)	  0  1
    121.7781	        	        	        	        	    -475	(  1  1 14)	  0  1
    123.9782	        	        	        	        	       0	(  2  2  4)	  0  1
    123.9782	        	        	        	        	    -475	(  2  2  4)	  0  1
    124.7942	        	        	        	        	       0	(  2  1 11)	  0  1
    124.7942	        	        	        	        	    -475	(  2  1 11)	  0  1
    125.2957	        	        	        	        	       0	(  3  0  9)	  0  1
    125.2957	        	        	        	        	    -475	(  3  0  9)	  0  1
    125.8875	        	        	        	        	       0	(  3  1  0)	  0  1
    125.8875	        	        	        	        	    -475	(  3  1  0)	  0  1
    126.3083	        	        	        	        	       0	(  3  1  1)	  0  1
    126.3083	        	        	        	        	    -475	(  3  1  1)	  0  1
    127.5846	        	        	        	        	       0	(  3  1  2)	  0  1
    127.5846	        	        	        	        	    -475	(  3  1  2)	  0  1
    129.6537	        	        	        	        	       0	(  1  0 16)	  0  1
    129.6537	        	        	        	        	    -475	(  1  0 16)	  0  1
    129.7625	        	        	        	        	       0	(  3  1  3)	  0  1
    129.7625	        	        	        	        	    -475	(  3  1  3)	  0  1
    130.4585	        	        	        	        	       0	(  2  0 14)	  0  1
    130.4585	        	        	        	        	    -475	(  2  0 14)	  0  1
    132.6542	        	        	        	        	       0	(  2  2  6)	  0  1
    132.6542	        	        	        	        	    -475	(  2  2  6)	  0  1
    132.9341	        	        	        	        	       0	(  3  1  4)	  0  1
    132.9341	        	        	        	        	    -475	(  3  1  4)	  0  1
    133.6747	        	        	        	        	       0	(  3  0 10)	  0  1
    133.6747	        	        	        	        	    -475	(  3  0 10)	  0  1
    135.0027	        	        	        	        	       0	(  2  1 12)	  0  1
    135.0027	        	        	        	        	    -475	(  2  1 12)	  0  1
    137.2724	        	        	        	        	       0	(  3  1  5)	  0  1
    137.2724	        	        	        	        	    -475	(  3  1  5)	  0  1
    143.1220	        	        	        	        	       0	(  3  1  6)	  0  1
    143.1220	        	        	        	        	    -475	(  3  1  6)	  0  1
    144.6140	        	        	        	        	       0	(  3  0 11)	  0  1
    144.6140	        	        	        	        	    -475	(  3  0 11)	  0  1
    145.1946	        	        	        	        	       0	(  2  0 15)	  0  1
    145.1946	        	        	        	        	    -475	(  2  0 15)	  0  1
    146.5220	        	        	        	        	       0	(  1  0 17)	  0  1
    146.5220	        	        	        	        	    -475	(  1  0 17)	  0  1
    147.5497	        	        	        	        	       0	(  2  2  8)	  0  1
    147.5497	        	        	        	        	    -475	(  2  2  8)	  0  1
    148.8293	        	        	        	        	       0	(  2  1 13)	  0  1
    148.8293	        	        	        	        	    -475	(  2  1 13)	  0  1
    151.3023	        	        	        	        	       0	(  3  1  7)	  0  1
    151.3023	        	        	        	        	    -475	(  3  1  7)	  0  1
    151.9919	        	        	        	        	       0	(  1  1 16)	  0  1
    151.9919	        	        	        	        	    -475	(  1  1 16)	  0  1
    156.8804	        	        	        	        	       0	(  0  0 18)	  0  1
    156.8804	        	        	        	        	    -475	(  0  0 18)	  0  1
    162.1837	        	        	        	        	       0	(  3  0 12)	  0  1
    162.1837	        	        	        	        	    -475	(  3  0 12)	  0  1
    162.4388	        	        	        	        	       0	(  4  0  0)	  0  1
    162.4388	        	        	        	        	    -475	(  4  0  0)	  0  1
    163.6082	        	        	        	        	       0	(  4  0  1)	  0  1
    163.6082	        	        	        	        	    -475	(  4  0  1)	  0  1
    165.1143	        	        	        	        	       0	(  3  1  8)	  0  1
    165.1143	        	        	        	        	    -475	(  3  1  8)	  0  1
    167.7556	        	        	        	        	       0	(  4  0  2)	  0  1
    167.7556	        	        	        	        	    -475	(  4  0  2)	  0  1
