MSG Master    CELL:    5.87633   5.87633  23.07403   90.0000   90.0000  120.0000   SPGR: P 63/m m c             TEMP:    445.85
  2   1280     2.52000     0.00000    -0.08560     0.00000     0.00000    0
    95    95     0     0     2
       0.00000      10.00000
     125.00000     130.00000
 2Theta	Yobs	Ycal	Yobs-Ycal	Backg	Posr	(hkl)	K
      0.7700	    0.00	  981.87	-2277.75	  839.89
      0.8700	    0.00	  978.52	-2277.75	  836.53
      0.9700	   48.00	  975.19	-2277.75	  833.20
      1.0700	   45.00	  971.88	-2277.75	  829.90
      1.1700	   43.00	  968.59	-2277.75	  826.61
      1.2700	   59.00	  965.33	-2277.75	  823.34
      1.3700	   49.00	  962.08	-2277.75	  820.10
      1.4700	   98.00	  958.86	-2277.75	  816.88
      1.5700	  316.00	  955.66	-2277.75	  813.68
      1.6700	  475.00	  952.48	-2277.75	  810.49
      1.7700	  603.00	  949.32	-2277.75	  807.34
      1.8700	  631.00	  946.18	-2277.75	  804.20
      1.9700	  783.00	  943.06	-2277.75	  801.08
      2.0700	  779.00	  939.97	-2277.75	  797.98
      2.1700	  756.00	  936.89	-2277.75	  794.90
      2.2700	  800.00	  933.83	-2277.75	  791.85
      2.3700	  719.00	  930.80	-2277.75	  788.81
      2.4700	  690.00	  927.78	-2277.75	  785.80
      2.5700	  728.00	  924.79	-2277.75	  782.80
      2.6700	  628.00	  921.81	-2277.75	  779.83
      2.7700	  650.00	  918.86	-2277.75	  776.87
      2.8700	  680.00	  915.92	-2277.75	  773.94
      2.9700	  669.00	  913.01	-2277.75	  771.02
      3.0700	  635.00	  910.11	-2277.75	  768.13
      3.1700	  609.00	  907.24	-2277.75	  765.25
      3.2700	  778.00	  904.38	-2277.75	  762.39
      3.3700	  896.00	  901.54	-2277.75	  759.56
      3.4700	 1108.00	  898.73	-2277.75	  756.74
      3.5700	 1219.00	  895.93	-2277.75	  753.94
      3.6700	 1354.00	  893.15	-2277.75	  751.17
      3.7700	 1439.00	  890.39	-2277.75	  748.41
      3.8700	 1472.00	  887.65	-2277.75	  745.67
      3.9700	 1576.00	  884.93	-2277.75	  742.94
      4.0700	 1644.00	  882.23	-2277.75	  740.24
      4.1700	 1651.00	  879.54	-2277.75	  737.56
      4.2700	 1717.00	  876.88	-2277.75	  734.89
      4.3700	 1692.00	  874.23	-2277.75	  732.25
      4.4700	 1584.00	  871.61	-2277.75	  729.62
      4.5700	 1477.00	  869.00	-2277.75	  727.01
      4.6700	 1581.00	  866.41	-2277.75	  724.42
      4.7700	 1444.00	  863.83	-2277.75	  721.85
      4.8700	 1564.00	  861.28	-2277.75	  719.30
      4.9700	 1434.00	  858.75	-2277.75	  716.76
      5.0700	 1297.00	  856.23	-2277.75	  714.24
      5.1700	 1316.00	  853.73	-2277.75	  711.74
      5.2700	 1301.00	  851.25	-2277.75	  709.26
      5.3700	 1292.00	  848.78	-2277.75	  706.80
      5.4700	 1263.00	  846.34	-2277.75	  704.35
      5.5700	 1258.00	  843.91	-2277.75	  701.92
      5.6700	 1239.00	  841.50	-2277.75	  699.51
      5.7700	 1144.00	  839.10	-2277.75	  697.12
      5.8700	 1151.00	  836.73	-2277.75	  694.74
      5.9700	 1165.00	  834.37	-2277.75	  692.39
      6.0700	 1110.00	  832.03	-2277.75	  690.04
      6.1700	 1083.00	  829.70	-2277.75	  687.72
      6.2700	 1123.00	  827.40	-2277.75	  685.41
      6.3700	 1035.00	  825.11	-2277.75	  683.12
      6.4700	  988.00	  822.83	-2277.75	  680.85
      6.5700	 1055.00	  820.58	-2277.75	  678.59
      6.6700	  996.00	  818.34	-2277.75	  676.35
      6.7700	 1038.00	  816.12	-2277.75	  674.13
      6.8700	  986.00	  813.91	-2277.75	  671.93
      6.9700	  974.00	  811.72	-2277.75	  669.74
      7.0700	  947.00	  809.55	-2277.75	  667.56
      7.1700	  904.00	  807.39	-2277.75	  665.41
      7.2700	  924.00	  805.25	-2277.75	  663.27
      7.3700	  921.00	  803.13	-2277.75	  661.14
      7.4700	  882.00	  801.02	-2277.75	  659.03
      7.5700	  921.00	  798.93	-2277.75	  656.94
      7.6700	  871.00	  796.85	-2277.75	  654.87
      7.7700	  838.00	  794.79	-2277.75	  652.81
      7.8700	  826.00	  792.75	-2277.75	  650.76
      7.9700	  819.00	  790.72	-2277.75	  648.73
      8.0700	  823.00	  788.70	-2277.75	  646.72
      8.1700	  806.00	  786.71	-2277.75	  644.72
      8.2700	  892.00	  784.73	-2277.75	  642.74
      8.3700	  796.00	  782.76	-2277.75	  640.78
      8.4700	  819.00	  780.81	-2277.75	  638.82
      8.5700	  784.00	  778.87	-2277.75	  636.89
      8.6700	  759.00	  776.95	-2277.75	  634.97
      8.7700	  828.00	  775.05	-2277.75	  633.06
      8.8700	  781.00	  773.16	-2277.75	  631.17
      8.9700	  748.00	  771.28	-2277.75	  629.30
      9.0700	  831.00	  769.42	-2277.75	  627.44
      9.1700	  766.00	  767.58	-2277.75	  625.59
      9.2700	  770.00	  765.75	-2277.75	  623.76
      9.3700	  751.00	  763.93	-2277.75	  621.95
      9.4700	  846.00	  762.13	-2277.75	  620.15
      9.5700	  820.00	  760.34	-2277.75	  618.36
      9.6700	  722.00	  758.57	-2277.75	  616.59
      9.7700	  765.00	  756.81	-2277.75	  614.83
      9.8700	  748.00	  755.07	-2277.75	  613.09
      9.9700	  760.00	  753.34	-2277.75	  611.36
     10.0700	  730.00	  753.76	-2301.51	  609.64
     10.1700	  746.00	  752.29	-2284.04	  607.94
     10.2700	  728.00	  750.87	-2300.62	  606.25
     10.3700	  730.00	  749.54	-2297.29	  604.58
     10.4700	  728.00	  748.29	-2298.04	  602.92
     10.5700	  733.00	  747.19	-2291.94	  601.28
     10.6700	  747.00	  746.27	-2277.02	  599.65
     10.7700	  719.00	  745.61	-2304.36	  598.03
     10.8700	  743.00	  745.31	-2280.06	  596.42
     10.9700	  718.00	  745.45	-2305.20	  594.83
     11.0700	  724.00	  746.09	-2299.84	  593.26
     11.1700	  762.00	  747.25	-2263.00	  591.69
     11.2700	  737.00	  748.96	-2289.71	  590.14
     11.3700	  791.00	  751.25	-2238.00	  588.60
     11.4700	  765.00	  754.22	-2266.97	  587.08
     11.5700	  789.00	  757.99	-2246.74	  585.57
     11.6700	  769.00	  762.76	-2271.51	  584.07
     11.7700	  791.00	  768.80	-2255.55	  582.59
     11.8700	  763.00	  776.35	-2291.10	  581.12
     11.9700	  814.00	  785.48	-2249.23	  579.66
     12.0700	  855.00	  795.72	-2218.47	  578.21
     12.1700	  836.00	  805.64	-2247.39	  576.78
     12.2700	  882.00	  812.32	-2208.07	  575.36
     12.3700	  841.00	  811.44	-2248.19	  573.95
     12.4700	  849.00	  800.01	-2228.76	  572.55
     12.5700	  799.00	  781.05	-2259.80	  571.17
     12.6700	  712.00	  761.40	-2327.15	  569.80
     12.7700	  753.00	  745.23	-2269.98	  568.44
     12.8700	  743.00	  733.33	-2268.08	  567.09
     12.9700	  691.00	  725.01	-2311.76	  565.76
     13.0700	  719.00	  719.22	-2277.97	  564.44
     13.1700	  723.00	  715.04	-2269.79	  563.13
     13.2700	  761.00	  711.82	-2228.57	  561.83
     13.3700	  674.00	  709.17	-2312.92	  560.54
     13.4700	  702.00	  706.88	-2282.63	  559.27
     13.5700	  668.00	  704.82	-2314.57	  558.01
     13.6700	  659.00	  702.94	-2321.69	  556.75
     13.7700	  695.00	  701.18	-2283.93	  555.51
     13.8700	  722.00	  699.54	-2255.29	  554.29
     13.9700	  728.00	  697.97	-2247.72	  553.07
     14.0700	  763.00	  696.47	-2211.22	  551.87
     14.1700	  686.00	  695.02	-2286.77	  550.67
     14.2700	  684.00	  693.63	-2287.38	  549.49
     14.3700	  656.00	  692.27	-2314.02	  548.32
     14.4700	  626.00	  690.95	-2342.70	  547.16
     14.5700	  671.00	  689.66	-2296.41	  546.01
     14.6700	  706.00	  688.40	-2260.15	  544.88
     14.7700	  679.00	  687.17	-2285.92	  543.75
     14.8700	  700.00	  685.96	-2263.71	  542.63
     14.9700	  671.00	  684.76	-2291.51	  541.53
     15.0700	  662.00	  683.59	-2299.34	  540.43
     15.1700	  620.00	  682.44	-2340.19	  539.35
     15.2700	  692.00	  681.31	-2267.06	  538.28
     15.3700	  693.00	  680.19	-2264.94	  537.22
     15.4700	  683.00	  679.09	-2273.84	  536.17
     15.5700	  720.00	  678.00	-2235.75	  535.13
     15.6700	  679.00	  676.93	-2275.68	  534.10
     15.7700	  673.00	  675.87	-2280.62	  533.08
     15.8700	  670.00	  674.82	-2282.57	  532.07
     15.9700	  707.00	  673.79	-2244.54	  531.07
     16.0700	  684.00	  672.77	-2266.52	  530.08
     16.1700	  608.00	  671.77	-2341.52	  529.10
     16.2700	  683.00	  670.77	-2265.52	  528.13
     16.3700	  718.00	  669.79	-2229.54	  527.17
     16.4700	  686.00	  668.82	-2260.57	  526.22
     16.5700	  671.00	  667.86	-2274.61	  525.29
     16.6700	  667.00	  666.92	-2277.67	  524.36
     16.7700	  667.00	  665.98	-2276.73	  523.44
     16.8700	  618.00	  665.05	-2324.80	  522.53
     16.9700	  661.00	  664.14	-2280.89	  521.63
     17.0700	  658.00	  663.24	-2282.99	  520.74
     17.1700	  636.00	  662.34	-2304.09	  519.86
     17.2700	  634.00	  661.46	-2305.21	  518.99
     17.3700	  670.00	  660.59	-2268.34	  518.12
     17.4700	  612.00	  659.73	-2325.48	  517.27
     17.5700	  658.00	  658.87	-2278.62	  516.43
     17.6700	  672.00	  658.03	-2263.78	  515.59
     17.7700	  602.00	  657.20	-2332.95	  514.77
     17.8700	  657.00	  656.38	-2277.13	  513.95
     17.9700	  637.00	  655.56	-2296.31	  513.15
     18.0700	  677.00	  654.76	-2255.51	  512.35
     18.1700	  624.00	  653.97	-2307.72	  511.56
     18.2700	  682.00	  653.18	-2248.93	  510.78
     18.3700	  652.00	  652.41	-2278.16	  510.01
     18.4700	  699.00	  651.64	-2230.39	  509.25
     18.5700	  667.00	  650.88	-2261.63	  508.50
     18.6700	  712.00	  650.14	-2215.89	  507.75
     18.7700	  713.00	  649.40	-2214.15	  507.02
     18.8700	  633.00	  648.67	-2293.42	  506.29
     18.9700	  608.00	  647.95	-2317.70	  505.57
     19.0700	  645.00	  648.55	-2281.30	  504.86
     19.1700	  643.00	  650.02	-2284.77	  504.16
     19.2700	  617.00	  649.40	-2310.15	  503.47
     19.3700	  636.00	  648.80	-2290.55	  502.78
     19.4700	  670.00	  648.20	-2255.95	  502.11
     19.5700	  619.00	  647.61	-2306.36	  501.44
     19.6700	  648.00	  647.04	-2276.79	  500.78
     19.7700	  701.00	  646.47	-2223.22	  500.12
     19.8700	  660.00	  645.92	-2263.67	  499.48
     19.9700	  650.00	  645.38	-2273.13	  498.84
     20.0700	  628.00	  644.85	-2294.60	  498.22
     20.1700	  664.00	  644.39	-2258.14	  497.59
     20.2700	  681.00	  643.89	-2240.64	  496.98
     20.3700	  647.00	  643.39	-2274.14	  496.38
     20.4700	  651.00	  642.92	-2269.67	  495.78
     20.5700	  655.00	  642.45	-2265.20	  495.19
     20.6700	  645.00	  642.00	-2274.75	  494.61
     20.7700	  639.00	  641.56	-2280.31	  494.03
     20.8700	  666.00	  641.13	-2252.88	  493.47
     20.9700	  596.00	  640.71	-2322.46	  492.91
     21.0700	  696.00	  640.31	-2222.06	  492.36
     21.1700	  649.00	  639.93	-2268.68	  491.81
     21.2700	  644.00	  639.56	-2273.31	  491.28
     21.3700	  652.00	  639.20	-2264.95	  490.75
     21.4700	  655.00	  638.86	-2261.61	  490.22
     21.5700	  651.00	  638.53	-2265.28	  489.71
     21.6700	  646.00	  638.23	-2269.98	  489.20
     21.7700	  629.00	  637.93	-2286.68	  488.70
     21.8700	  632.00	  637.66	-2283.41	  488.20
     21.9700	  669.00	  637.41	-2246.16	  487.72
     22.0700	  666.00	  637.17	-2248.92	  487.24
     22.1700	  637.00	  636.95	-2277.70	  486.76
     22.2700	  641.00	  636.96	-2273.71	  486.29
     22.3700	  671.00	  636.79	-2243.54	  485.83
     22.4700	  643.00	  636.65	-2271.40	  485.38
     22.5700	  616.00	  636.53	-2298.28	  484.93
     22.6700	  628.00	  636.44	-2286.19	  484.49
     22.7700	  648.00	  636.38	-2266.13	  484.06
     22.8700	  634.00	  636.35	-2280.10	  483.63
     22.9700	  657.00	  636.36	-2257.11	  483.21
     23.0700	  648.00	  636.40	-2266.15	  482.80
     23.1700	  616.00	  636.49	-2298.24	  482.39
     23.2700	  628.00	  636.63	-2286.38	  481.99
     23.3700	  662.00	  636.82	-2252.57	  481.60
     23.4700	  655.00	  637.09	-2259.84	  481.21
     23.5700	  655.00	  637.42	-2260.17	  480.83
     23.6700	  658.00	  637.86	-2257.61	  480.45
     23.7700	  620.00	  638.41	-2296.16	  480.08
     23.8700	  640.00	  639.11	-2276.86	  479.71
     23.9700	  627.00	  640.03	-2290.78	  479.36
     24.0700	  651.00	  641.26	-2268.01	  479.00
     24.1700	  724.00	  642.96	-2196.71	  478.66
     24.2700	  664.00	  645.37	-2259.12	  478.32
     24.3700	  717.00	  648.83	-2209.58	  477.98
     24.4700	  685.00	  653.73	-2246.48	  477.65
     24.5700	  676.00	  660.33	-2262.08	  477.33
     24.6700	  660.00	  668.83	-2286.58	  477.01
     24.7700	  723.00	  678.77	-2233.52	  476.70
     24.8700	  728.00	  689.02	-2238.77	  476.39
     24.9700	  748.00	  697.43	-2227.18	  476.09
     25.0700	  726.00	  700.89	-2252.64	  475.80
     25.1700	  746.00	  697.25	-2229.00	  475.51
     25.2700	  737.00	  688.41	-2229.16	  475.23
     25.3700	  695.00	  678.54	-2261.29	  474.95
     25.4700	  655.00	  670.57	-2293.32	  474.67
     25.5700	  662.00	  665.29	-2281.04	  474.40
     25.6700	  645.00	  662.48	-2295.23	  474.14
     25.7700	  704.00	  661.59	-2235.34	  473.88
     25.8700	  645.00	  662.08	-2294.83	  473.63
     25.9700	  694.00	  663.55	-2247.30	  473.38
     26.0700	  702.00	  665.78	-2241.53	  473.14
     26.1700	  700.00	  668.66	-2246.41	  472.90
     26.2700	  651.00	  672.19	-2298.94	  472.67
     26.3700	  673.00	  676.42	-2281.17	  472.44
     26.4700	  654.00	  681.41	-2305.16	  472.22
     26.5700	  581.00	  687.30	-2384.05	  472.00
     26.6700	  671.00	  694.25	-2301.00	  471.79
     26.7700	  710.00	  702.47	-2270.22	  471.58
     26.8700	  705.00	  712.27	-2285.02	  471.38
     26.9700	  687.00	  724.04	-2314.79	  471.18
     27.0700	  705.00	  738.30	-2311.05	  470.99
     27.1700	  719.00	  755.82	-2314.57	  470.80
     27.2700	  755.00	  777.65	-2300.40	  470.61
     27.3700	  762.00	  805.47	-2321.22	  470.43
     27.4700	  778.00	  842.26	-2342.01	  470.26
     27.5700	  810.00	  894.29	-2362.04	  470.09
     27.6700	  839.00	  975.52	-2414.27	  469.92
     27.7700	  916.00	 1115.31	-2477.06	  469.76
     27.8700	 1035.00	 1368.31	-2611.06	  469.60
     27.9700	 1391.00	 1821.42	-2708.17	  469.45
     28.0700	 2028.00	 2585.32	-2835.07	  469.30
     28.1700	 3166.00	 3751.39	-2863.14	  469.15
     28.2700	 5389.00	 5298.29	-2187.04	  469.01
     28.3700	 7827.00	 6952.12	-1402.87	  468.87
     28.4700	 9111.00	 8106.04	-1272.79	  468.74
     28.5700	 8866.00	 8040.85	-1452.60	  468.61
     28.6700	 6901.00	 6753.55	-2130.30	  468.49
     28.7700	 5001.00	 5243.45	-2520.20	  468.37
     28.8700	 3974.00	 4329.51	-2633.26	  468.25
     28.9700	 4155.00	 4174.88	-2297.63	  468.14
     29.0700	 4787.00	 4497.50	-1988.25	  468.03
     29.1700	 5283.00	 4808.37	-1803.12	  467.93
     29.2700	 4745.00	 4630.50	-2163.25	  467.82
     29.3700	 3835.00	 3859.13	-2301.88	  467.73
     29.4700	 2735.00	 2878.96	-2421.71	  467.63
     29.5700	 1894.00	 2054.32	-2438.07	  467.54
     29.6700	 1330.00	 1499.73	-2447.48	  467.46
     29.7700	 1103.00	 1178.43	-2353.18	  467.37
     29.8700	 1126.00	 1006.24	-2157.99	  467.29
     29.9700	  918.00	  912.08	-2271.83	  467.22
     30.0700	  876.00	  854.81	-2256.56	  467.15
     30.1700	  797.00	  815.62	-2296.37	  467.08
     30.2700	  773.00	  786.84	-2291.59	  467.01
     30.3700	  745.00	  765.24	-2297.99	  466.95
     30.4700	  726.00	  749.43	-2301.18	  466.89
     30.5700	  743.00	  739.11	-2273.86	  466.84
     30.6700	  727.00	  734.86	-2285.61	  466.79
     30.7700	  814.00	  737.81	-2201.56	  466.74
     30.8700	  735.00	  748.78	-2291.53	  466.69
     30.9700	  764.00	  766.81	-2280.56	  466.65
     31.0700	  761.00	  787.70	-2304.45	  466.61
     31.1700	  910.00	  803.21	-2170.96	  466.58
     31.2700	  756.00	  802.58	-2324.33	  466.55
     31.3700	  754.00	  780.96	-2304.71	  466.52
     31.4700	  728.00	  747.58	-2297.33	  466.49
     31.5700	  764.00	  715.43	-2229.18	  466.47
     31.6700	  703.00	  690.72	-2265.47	  466.45
     31.7700	  715.00	  674.10	-2236.85	  466.43
     31.8700	  659.00	  663.73	-2282.48	  466.41
     31.9700	  690.00	  657.32	-2245.07	  466.40
     32.0700	  706.00	  653.13	-2224.88	  466.39
     32.1700	  642.00	  650.17	-2285.92	  466.39
     32.2700	  662.00	  647.94	-2263.69	  466.38
     32.3700	  686.00	  646.24	-2237.99	  466.38
     32.4700	  636.00	  644.96	-2286.71	  466.38
     32.5700	  685.00	  644.07	-2236.82	  466.39
     32.6700	  725.00	  643.57	-2196.32	  466.40
     32.7700	  688.00	  643.41	-2233.16	  466.41
     32.8700	  695.00	  643.65	-2226.40	  466.42
     32.9700	  667.00	  644.33	-2255.08	  466.43
     33.0700	  642.00	  645.54	-2281.29	  466.45
     33.1700	  644.00	  647.41	-2281.16	  466.47
     33.2700	  711.00	  650.18	-2216.93	  466.49
     33.3700	  654.00	  654.28	-2278.03	  466.52
     33.4700	  695.00	  660.57	-2243.32	  466.55
     33.5700	  710.00	  670.69	-2238.44	  466.58
     33.6700	  670.00	  687.61	-2295.36	  466.61
     33.7700	  717.00	  716.02	-2276.77	  466.64
     33.8700	  794.00	  762.01	-2245.76	  466.68
     33.9700	  835.00	  831.00	-2273.75	  466.72
     34.0700	  945.00	  923.37	-2256.12	  466.76
     34.1700	 1049.00	 1028.96	-2257.71	  466.80
     34.2700	 1254.00	 1123.50	-2147.25	  466.85
     34.3700	 1327.00	 1170.59	-2121.34	  466.89
     34.4700	 1264.00	 1140.73	-2154.48	  466.94
     34.5700	 1073.00	 1046.08	-2250.83	  467.00
     34.6700	  931.00	  931.69	-2278.44	  467.05
     34.7700	  817.00	  831.71	-2292.46	  467.11
     34.8700	  788.00	  758.23	-2247.98	  467.16
     34.9700	  782.00	  710.19	-2205.94	  467.22
     35.0700	  732.00	  681.15	-2226.90	  467.28
     35.1700	  678.00	  664.10	-2263.85	  467.35
     35.2700	  715.00	  653.77	-2216.52	  467.41
     35.3700	  680.00	  647.02	-2244.77	  467.48
     35.4700	  668.00	  642.29	-2252.04	  467.55
     35.5700	  646.00	  638.69	-2270.44	  467.62
     35.6700	  621.00	  635.89	-2292.64	  467.69
     35.7700	  628.00	  633.66	-2283.41	  467.77
     35.8700	  670.00	  631.88	-2239.63	  467.84
     35.9700	  630.00	  630.44	-2278.19	  467.92
     36.0700	  665.00	  629.29	-2242.04	  468.00
     36.1700	  655.00	  628.38	-2251.13	  468.08
     36.2700	  618.00	  627.66	-2287.41	  468.16
     36.3700	  639.00	  627.12	-2265.87	  468.24
     36.4700	  607.00	  626.74	-2297.49	  468.33
     36.5700	  664.00	  626.52	-2240.27	  468.42
     36.6700	  637.00	  626.45	-2267.20	  468.51
     36.7700	  583.00	  626.74	-2321.49	  468.60
     36.8700	  600.00	  627.00	-2304.75	  468.69
     36.9700	  649.00	  627.47	-2256.22	  468.78
     37.0700	  619.00	  628.19	-2286.94	  468.87
     37.1700	  658.00	  629.23	-2248.98	  468.97
     37.2700	  688.00	  631.24	-2220.99	  469.07
     37.3700	  663.00	  633.45	-2248.20	  469.16
     37.4700	  676.00	  636.75	-2238.50	  469.26
     37.5700	  656.00	  641.84	-2263.59	  469.36
     37.6700	  655.00	  649.77	-2272.52	  469.46
     37.7700	  679.00	  662.00	-2260.75	  469.57
     37.8700	  674.00	  680.26	-2284.01	  469.67
     37.9700	  694.00	  705.72	-2289.47	  469.78
     38.0700	  689.00	  735.93	-2324.68	  469.88
     38.1700	  785.00	  771.67	-2264.42	  469.99
     38.2700	  817.00	  803.85	-2264.60	  470.10
     38.3700	  835.00	  821.96	-2264.71	  470.21
     38.4700	  799.00	  816.39	-2295.14	  470.32
     38.5700	  774.00	  788.08	-2291.83	  470.43
     38.6700	  728.00	  749.36	-2299.11	  470.54
     38.7700	  658.00	  712.27	-2332.02	  470.66
     38.8700	  614.00	  682.61	-2346.36	  470.77
     38.9700	  610.00	  661.51	-2329.26	  470.89
     39.0700	  626.00	  647.74	-2299.49	  471.00
     39.1700	  629.00	  639.23	-2287.98	  471.12
     39.2700	  616.00	  634.04	-2295.79	  471.24
     39.3700	  611.00	  630.77	-2297.52	  471.36
     39.4700	  622.00	  628.59	-2284.34	  471.48
     39.5700	  626.00	  625.77	-2277.52	  471.60
     39.6700	  645.00	  624.62	-2257.37	  471.72
     39.7700	  611.00	  623.74	-2290.49	  471.84
     39.8700	  605.00	  623.06	-2295.81	  471.96
     39.9700	  640.00	  622.53	-2260.28	  472.09
     40.0700	  639.00	  622.13	-2260.88	  472.21
     40.1700	  598.00	  621.82	-2301.57	  472.34
     40.2700	  634.00	  621.59	-2265.34	  472.46
     40.3700	  596.00	  621.44	-2303.19	  472.59
     40.4700	  587.00	  621.34	-2312.09	  472.71
     40.5700	  615.00	  621.29	-2284.04	  472.84
     40.6700	  587.00	  621.30	-2312.05	  472.97
     40.7700	  617.00	  621.88	-2282.63	  473.10
     40.8700	  642.00	  621.98	-2257.73	  473.23
     40.9700	  629.00	  622.12	-2270.87	  473.35
     41.0700	  575.00	  622.29	-2325.04	  473.48
     41.1700	  614.00	  622.58	-2286.32	  473.61
     41.2700	  636.00	  622.85	-2264.60	  473.75
     41.3700	  608.00	  623.17	-2292.92	  473.88
     41.4700	  630.00	  623.56	-2271.31	  474.01
     41.5700	  623.00	  624.02	-2278.77	  474.14
     41.6700	  616.00	  624.57	-2286.32	  474.27
     41.7700	  630.00	  625.23	-2272.98	  474.40
     41.8700	  668.00	  626.04	-2235.79	  474.54
     41.9700	  622.00	  627.07	-2282.82	  474.67
     42.0700	  607.00	  628.43	-2299.18	  474.80
     42.1700	  640.00	  630.36	-2268.11	  474.93
     42.2700	  607.00	  633.25	-2304.00	  475.07
     42.3700	  610.00	  637.72	-2305.47	  475.20
     42.4700	  604.00	  644.55	-2318.30	  475.34
     42.5700	  617.00	  654.80	-2315.55	  475.47
     42.6700	  630.00	  669.10	-2316.85	  475.60
     42.7700	  650.00	  687.34	-2315.09	  475.74
     42.8700	  693.00	  707.89	-2292.64	  475.87
     42.9700	  686.00	  726.93	-2318.68	  476.01
     43.0700	  767.00	  738.63	-2249.38	  476.14
     43.1700	  745.00	  737.82	-2270.57	  476.28
     43.2700	  739.00	  724.62	-2263.37	  476.41
     43.3700	  716.00	  704.78	-2266.53	  476.55
     43.4700	  680.00	  684.45	-2282.20	  476.68
     43.5700	  650.00	  667.21	-2294.96	  476.82
     43.6700	  638.00	  654.14	-2293.89	  476.95
     43.7700	  664.00	  645.04	-2258.79	  477.09
     43.8700	  710.00	  639.15	-2206.90	  477.22
     43.9700	  674.00	  635.50	-2239.25	  477.36
     44.0700	  639.00	  633.46	-2272.21	  477.49
     44.1700	  644.00	  632.06	-2265.81	  477.63
     44.2700	  631.00	  631.16	-2277.91	  477.76
     44.3700	  634.00	  630.55	-2274.30	  477.90
     44.4700	  630.00	  630.13	-2277.88	  478.03
     44.5700	  643.00	  629.85	-2264.60	  478.16
     44.6700	  670.00	  629.67	-2237.42	  478.30
     44.7700	  700.00	  629.59	-2207.34	  478.43
     44.8700	  626.00	  629.57	-2281.32	  478.56
     44.9700	  624.00	  629.59	-2283.34	  478.70
     45.0700	  653.00	  629.93	-2254.68	  478.83
     45.1700	  647.00	  630.05	-2260.80	  478.96
     45.2700	  605.00	  630.21	-2302.96	  479.10
     45.3700	  662.00	  630.40	-2246.15	  479.23
     45.4700	  690.00	  630.63	-2218.38	  479.36
     45.5700	  647.00	  630.89	-2261.64	  479.49
     45.6700	  579.00	  631.26	-2330.01	  479.62
     45.7700	  630.00	  631.58	-2279.33	  479.75
     45.8700	  630.00	  631.93	-2279.68	  479.88
     45.9700	  652.00	  632.31	-2258.06	  480.01
     46.0700	  650.00	  632.72	-2260.47	  480.14
     46.1700	  652.00	  633.19	-2258.94	  480.27
     46.2700	  622.00	  633.68	-2289.43	  480.40
     46.3700	  624.00	  634.21	-2287.96	  480.53
     46.4700	  625.00	  634.79	-2287.54	  480.66
     46.5700	  665.00	  635.39	-2248.14	  480.78
     46.6700	  657.00	  636.09	-2256.84	  480.91
     46.7700	  663.00	  636.88	-2251.63	  481.04
     46.8700	  616.00	  637.76	-2299.51	  481.16
     46.9700	  652.00	  638.75	-2264.50	  481.29
     47.0700	  635.00	  639.89	-2282.64	  481.41
     47.1700	  597.00	  641.25	-2322.00	  481.54
     47.2700	  614.00	  642.92	-2306.67	  481.66
     47.3700	  617.00	  645.10	-2305.85	  481.79
     47.4700	  638.00	  648.09	-2287.84	  481.91
     47.5700	  614.00	  652.33	-2316.08	  482.03
     47.6700	  658.00	  658.41	-2278.16	  482.15
     47.7700	  685.00	  666.93	-2259.68	  482.27
     47.8700	  651.00	  678.36	-2305.11	  482.39
     47.9700	  664.00	  692.70	-2306.45	  482.51
     48.0700	  700.00	  709.13	-2286.88	  482.63
     48.1700	  706.00	  725.53	-2297.28	  482.75
     48.2700	  707.00	  738.36	-2309.11	  482.87
     48.3700	  780.00	  743.66	-2241.41	  482.98
     48.4700	  720.00	  739.77	-2297.52	  483.10
     48.5700	  681.00	  729.51	-2326.26	  483.22
     48.6700	  694.00	  716.31	-2300.06	  483.33
     48.7700	  666.00	  704.03	-2315.78	  483.44
     48.8700	  662.00	  694.50	-2310.25	  483.56
     48.9700	  692.00	  688.39	-2274.14	  483.67
     49.0700	  690.00	  685.67	-2273.42	  483.78
     49.1700	  699.00	  685.96	-2264.71	  483.89
     49.2700	  686.00	  688.87	-2280.62	  484.00
     49.3700	  649.00	  694.20	-2322.95	  484.11
     49.4700	  681.00	  702.14	-2298.89	  484.22
     49.5700	  708.00	  713.69	-2283.44	  484.33
     49.6700	  712.00	  731.51	-2297.26	  484.44
     49.7700	  783.00	  761.67	-2256.42	  484.54
     49.8700	  809.00	  816.37	-2285.12	  484.65
     49.9700	  927.00	  916.53	-2267.28	  484.75
     50.0700	 1125.00	 1091.51	-2244.26	  484.85
     50.1700	 1497.00	 1371.66	-2152.41	  484.96
     50.2700	 1865.00	 1771.64	-2184.39	  485.06
     50.3700	 2461.00	 2268.16	-2084.91	  485.16
     50.4700	 2906.00	 2781.39	-2153.14	  485.26
     50.5700	 3224.00	 3174.34	-2228.09	  485.36
     50.6700	 3206.00	 3296.50	-2368.25	  485.46
     50.7700	 2905.00	 3088.17	-2460.92	  485.55
     50.8700	 2571.00	 2643.27	-2350.02	  485.65
     50.9700	 2017.00	 2123.45	-2384.20	  485.75
     51.0700	 1514.00	 1653.03	-2416.78	  485.84
     51.1700	 1284.00	 1294.35	-2288.10	  485.93
     51.2700	 1123.00	 1056.70	-2211.45	  486.03
     51.3700	  917.00	  917.48	-2278.23	  486.12
     51.4700	  845.00	  843.72	-2276.47	  486.21
     51.5700	  823.00	  806.19	-2260.94	  486.30
     51.6700	  782.00	  784.87	-2280.62	  486.38
     51.7700	  710.00	  768.82	-2336.57	  486.47
     51.8700	  751.00	  754.16	-2280.91	  486.56
     51.9700	  759.00	  740.55	-2259.30	  486.64
     52.0700	  721.00	  728.70	-2285.45	  486.73
     52.1700	  766.00	  719.09	-2230.84	  486.81
     52.2700	  728.00	  711.78	-2261.53	  486.89
     52.3700	  743.00	  706.49	-2241.25	  486.97
     52.4700	  760.00	  702.86	-2220.61	  487.05
     52.5700	  688.00	  700.72	-2290.47	  487.13
     52.6700	  735.00	  700.12	-2242.87	  487.21
     52.7700	  738.00	  701.33	-2241.08	  487.29
     52.8700	  680.00	  704.83	-2302.58	  487.36
     52.9700	  758.00	  711.48	-2231.23	  487.44
     53.0700	  740.00	  722.70	-2260.45	  487.51
     53.1700	  781.00	  740.62	-2237.37	  487.58
     53.2700	  759.00	  768.04	-2286.79	  487.65
     53.3700	  804.00	  808.09	-2281.84	  487.72
     53.4700	  911.00	  863.55	-2230.30	  487.79
     53.5700	  940.00	  935.74	-2273.49	  487.86
     53.6700	  971.00	 1022.65	-2329.40	  487.93
     53.7700	 1131.00	 1117.91	-2264.66	  487.99
     53.8700	 1221.00	 1208.39	-2265.14	  488.06
     53.9700	 1227.00	 1274.12	-2324.87	  488.12
     54.0700	 1316.00	 1294.55	-2256.30	  488.18
     54.1700	 1265.00	 1261.89	-2274.64	  488.24
     54.2700	 1146.00	 1188.10	-2319.85	  488.30
     54.3700	 1124.00	 1095.11	-2248.86	  488.36
     54.4700	  974.00	 1001.69	-2305.44	  488.42
     54.5700	  860.00	  919.06	-2336.81	  488.47
     54.6700	  856.00	  852.26	-2274.01	  488.53
     54.7700	  769.00	  802.04	-2310.79	  488.58
     54.8700	  770.00	  766.61	-2274.36	  488.63
     54.9700	  731.00	  742.97	-2289.72	  488.68
     55.0700	  729.00	  727.94	-2276.69	  488.73
     55.1700	  686.00	  718.83	-2310.58	  488.78
     55.2700	  687.00	  713.65	-2304.40	  488.83
     55.3700	  724.00	  711.09	-2264.84	  488.87
     55.4700	  767.00	  710.41	-2221.16	  488.92
     55.5700	  682.00	  711.21	-2306.96	  488.96
     55.6700	  731.00	  713.33	-2260.08	  489.00
     55.7700	  746.00	  716.78	-2248.53	  489.04
     55.8700	  733.00	  721.67	-2266.42	  489.08
     55.9700	  732.00	  728.33	-2274.08	  489.12
     56.0700	  695.00	  737.36	-2320.11	  489.16
     56.1700	  752.00	  749.91	-2275.66	  489.19
     56.2700	  768.00	  768.19	-2277.94	  489.23
     56.3700	  820.00	  796.07	-2253.82	  489.26
     56.4700	  825.00	  840.00	-2292.75	  489.29
     56.5700	  902.00	  909.33	-2285.08	  489.33
     56.6700	  977.00	 1016.19	-2316.94	  489.35
     56.7700	 1137.00	 1173.39	-2314.14	  489.38
     56.8700	 1454.00	 1390.45	-2214.20	  489.41
     56.9700	 1716.00	 1668.19	-2229.94	  489.43
     57.0700	 2075.00	 1992.51	-2195.26	  489.46
     57.1700	 2381.00	 2328.74	-2225.49	  489.48
     57.2700	 2638.00	 2618.05	-2257.80	  489.50
     57.3700	 2811.00	 2785.21	-2251.96	  489.52
     57.4700	 2716.00	 2773.01	-2334.76	  489.54
     57.5700	 2500.00	 2585.80	-2363.55	  489.56
     57.6700	 2204.00	 2286.48	-2360.23	  489.58
     57.7700	 1867.00	 1950.37	-2361.12	  489.59
     57.8700	 1532.00	 1633.39	-2379.14	  489.60
     57.9700	 1276.00	 1366.85	-2368.60	  489.62
     58.0700	 1099.00	 1162.49	-2341.24	  489.63
     58.1700	  991.00	 1018.31	-2305.06	  489.64
     58.2700	  933.00	  924.84	-2269.59	  489.64
     58.3700	  863.00	  870.79	-2285.54	  489.65
     58.4700	  781.00	  846.90	-2343.65	  489.66
     58.5700	  874.00	  847.71	-2251.46	  489.66
     58.6700	  880.00	  871.11	-2268.86	  489.66
     58.7700	  882.00	  916.69	-2312.44	  489.66
     58.8700	  967.00	  983.68	-2294.43	  489.66
     58.9700	 1018.00	 1068.49	-2328.24	  489.66
     59.0700	 1164.00	 1163.09	-2276.84	  489.66
     59.1700	 1235.00	 1254.66	-2297.41	  489.66
     59.2700	 1283.00	 1329.06	-2323.81	  489.65
     59.3700	 1323.00	 1377.87	-2332.62	  489.64
     59.4700	 1406.00	 1400.50	-2272.25	  489.64
     59.5700	 1404.00	 1398.15	-2271.90	  489.63
     59.6700	 1317.00	 1371.29	-2332.04	  489.61
     59.7700	 1346.00	 1325.90	-2257.65	  489.60
     59.8700	 1306.00	 1275.83	-2247.58	  489.59
     59.9700	 1280.00	 1236.35	-2234.10	  489.57
     60.0700	 1343.00	 1218.36	-2153.11	  489.56
     60.1700	 1349.00	 1227.91	-2156.66	  489.54
     60.2700	 1344.00	 1268.13	-2201.88	  489.52
     60.3700	 1435.00	 1339.49	-2182.24	  489.50
     60.4700	 1561.00	 1436.83	-2153.58	  489.48
     60.5700	 1567.00	 1545.71	-2256.46	  489.45
     60.6700	 1654.00	 1641.23	-2264.98	  489.43
     60.7700	 1640.00	 1691.97	-2329.72	  489.40
     60.8700	 1620.00	 1673.16	-2330.91	  489.38
     60.9700	 1550.00	 1583.80	-2311.55	  489.35
     61.0700	 1338.00	 1447.16	-2386.91	  489.32
     61.1700	 1243.00	 1293.81	-2328.56	  489.29
     61.2700	 1099.00	 1148.37	-2327.12	  489.25
     61.3700	  993.00	 1026.11	-2310.86	  489.22
     61.4700	  928.00	  933.90	-2283.65	  489.18
     61.5700	  816.00	  872.57	-2334.32	  489.15
     61.6700	  856.00	  839.81	-2261.56	  489.11
     61.7700	  800.00	  833.07	-2310.82	  489.07
     61.8700	  868.00	  851.65	-2261.40	  489.03
     61.9700	  899.00	  897.36	-2276.11	  488.99
     62.0700	  968.00	  973.68	-2283.43	  488.94
     62.1700	 1121.00	 1083.69	-2240.44	  488.90
     62.2700	 1302.00	 1227.08	-2202.83	  488.85
     62.3700	 1510.00	 1397.23	-2164.98	  488.80
     62.4700	 1605.00	 1578.67	-2251.42	  488.75
     62.5700	 1831.00	 1745.73	-2192.48	  488.70
     62.6700	 1877.00	 1863.95	-2264.70	  488.65
     62.7700	 1865.00	 1900.53	-2313.28	  488.60
     62.8700	 1798.00	 1843.23	-2322.98	  488.54
     62.9700	 1674.00	 1709.85	-2313.60	  488.49
     63.0700	 1451.00	 1535.10	-2361.85	  488.43
     63.1700	 1288.00	 1352.06	-2341.81	  488.37
     63.2700	 1160.00	 1184.13	-2301.88	  488.31
     63.3700	  956.00	 1044.42	-2366.17	  488.25
     63.4700	  954.00	  937.42	-2261.17	  488.18
     63.5700	  823.00	  861.44	-2316.19	  488.12
     63.6700	  797.00	  811.16	-2291.91	  488.05
     63.7700	  790.00	  780.29	-2268.04	  487.99
     63.8700	  765.00	  763.22	-2275.97	  487.92
     63.9700	  741.00	  755.94	-2292.69	  487.85
     64.0700	  824.00	  756.29	-2210.04	  487.78
     64.1700	  788.00	  763.48	-2253.23	  487.71
     64.2700	  754.00	  779.68	-2303.43	  487.63
     64.3700	  834.00	  806.87	-2250.62	  487.56
     64.4700	  863.00	  848.45	-2263.20	  487.48
     64.5700	  922.00	  908.14	-2263.89	  487.40
     64.6700	 1033.00	  989.07	-2233.82	  487.33
     64.7700	 1106.00	 1092.50	-2264.25	  487.25
     64.8700	 1243.00	 1216.32	-2251.07	  487.16
     64.9700	 1373.00	 1353.50	-2258.25	  487.08
     65.0700	 1442.00	 1491.01	-2326.76	  487.00
     65.1700	 1619.00	 1610.34	-2269.09	  486.91
     65.2700	 1634.00	 1691.14	-2334.89	  486.82
     65.3700	 1761.00	 1716.54	-2233.29	  486.74
     65.4700	 1650.00	 1680.88	-2308.63	  486.65
     65.5700	 1506.00	 1592.01	-2363.76	  486.56
     65.6700	 1380.00	 1469.79	-2367.54	  486.46
     65.7700	 1296.00	 1335.85	-2317.60	  486.37
     65.8700	 1152.00	 1206.93	-2332.68	  486.28
     65.9700	 1043.00	 1093.13	-2327.88	  486.18
     66.0700	  915.00	  998.74	-2361.49	  486.08
     66.1700	  897.00	  924.06	-2304.81	  485.99
     66.2700	  836.00	  867.19	-2308.94	  485.89
     66.3700	  829.00	  825.16	-2273.91	  485.78
     66.4700	  773.00	  794.89	-2299.64	  485.68
     66.5700	  763.00	  773.48	-2288.23	  485.58
     66.6700	  701.00	  758.58	-2335.33	  485.47
     66.7700	  720.00	  748.51	-2306.26	  485.37
     66.8700	  738.00	  742.15	-2281.90	  485.26
     66.9700	  708.00	  738.86	-2308.61	  485.15
     67.0700	  743.00	  738.45	-2273.20	  485.04
     67.1700	  699.00	  740.75	-2319.50	  484.93
     67.2700	  726.00	  746.31	-2298.06	  484.82
     67.3700	  735.00	  756.14	-2298.89	  484.71
     67.4700	  794.00	  772.21	-2255.96	  484.59
     67.5700	  809.00	  797.30	-2266.05	  484.48
     67.6700	  831.00	  835.91	-2282.66	  484.36
     67.7700	  848.00	  893.88	-2323.63	  484.24
     67.8700	  930.00	  977.93	-2325.68	  484.12
     67.9700	 1072.00	 1094.96	-2300.71	  484.00
     68.0700	 1252.00	 1250.15	-2275.90	  483.88
     68.1700	 1484.00	 1445.04	-2238.79	  483.76
     68.2700	 1703.00	 1675.23	-2249.98	  483.63
     68.3700	 1933.00	 1928.33	-2273.08	  483.51
     68.4700	 2222.00	 2182.37	-2238.12	  483.38
     68.5700	 2576.00	 2405.10	-2106.85	  483.25
     68.6700	 2497.00	 2557.03	-2337.78	  483.12
     68.7700	 2576.00	 2603.23	-2304.98	  482.99
     68.8700	 2480.00	 2531.36	-2329.11	  482.86
     68.9700	 2323.00	 2359.97	-2314.72	  482.73
     69.0700	 2123.00	 2126.56	-2281.31	  482.60
     69.1700	 1935.00	 1869.71	-2212.46	  482.46
     69.2700	 1625.00	 1619.48	-2272.23	  482.33
     69.3700	 1436.00	 1395.60	-2237.35	  482.19
     69.4700	 1318.00	 1208.56	-2168.31	  482.05
     69.5700	 1114.00	 1061.31	-2225.06	  481.91
     69.6700	 1030.00	  951.28	-2199.03	  481.77
     69.7700	  967.00	  872.70	-2183.45	  481.63
     69.8700	  899.00	  818.59	-2197.34	  481.49
     69.9700	  847.00	  782.25	-2213.00	  481.34
     70.0700	  797.00	  758.12	-2238.87	  481.20
     70.1700	  760.00	  742.02	-2259.77	  481.05
     70.2700	  732.00	  731.09	-2276.84	  480.91
     70.3700	  726.00	  723.53	-2275.28	  480.76
     70.4700	  757.00	  718.24	-2238.99	  480.61
     70.5700	  788.00	  714.59	-2204.34	  480.46
     70.6700	  793.00	  712.26	-2197.01	  480.31
     70.7700	  696.00	  711.09	-2292.83	  480.16
     70.8700	  751.00	  711.06	-2237.81	  480.00
     70.9700	  725.00	  712.27	-2265.02	  479.85
     71.0700	  732.00	  714.99	-2260.74	  479.69
     71.1700	  724.00	  719.70	-2273.45	  479.54
     71.2700	  832.00	  727.04	-2172.79	  479.38
     71.3700	  739.00	  738.72	-2277.47	  479.22
     71.4700	  730.00	  756.51	-2304.26	  479.06
     71.5700	  777.00	  783.16	-2283.91	  478.90
     71.6700	  874.00	  822.09	-2225.84	  478.74
     71.7700	  924.00	  877.34	-2231.09	  478.58
     71.8700	  915.00	  953.01	-2315.76	  478.41
     71.9700	 1126.00	 1052.40	-2204.15	  478.25
     72.0700	 1284.00	 1177.09	-2170.84	  478.08
     72.1700	 1401.00	 1325.68	-2202.43	  477.92
     72.2700	 1439.00	 1492.89	-2331.64	  477.75
     72.3700	 1672.00	 1668.54	-2274.29	  477.58
     72.4700	 1767.00	 1836.87	-2347.62	  477.41
     72.5700	 1986.00	 1976.77	-2268.52	  477.24
     72.6700	 2050.00	 2064.58	-2292.33	  477.07
     72.7700	 2029.00	 2081.86	-2330.61	  476.90
     72.8700	 1894.00	 2024.53	-2408.28	  476.73
     72.9700	 1845.00	 1905.34	-2338.09	  476.55
     73.0700	 1692.00	 1746.79	-2332.54	  476.38
     73.1700	 1605.00	 1572.50	-2245.25	  476.20
     73.2700	 1422.00	 1399.34	-2255.09	  476.03
     73.3700	 1208.00	 1240.60	-2310.35	  475.85
     73.4700	 1062.00	 1103.68	-2319.43	  475.67
     73.5700	 1012.00	  991.57	-2257.32	  475.49
     73.6700	  899.00	  903.90	-2282.65	  475.31
     73.7700	  837.00	  838.04	-2278.79	  475.13
     73.8700	  838.00	  790.22	-2229.97	  474.95
     73.9700	  766.00	  756.43	-2268.18	  474.77
     74.0700	  754.00	  733.01	-2256.76	  474.59
     74.1700	  753.00	  716.45	-2241.20	  474.40
     74.2700	  724.00	  705.62	-2259.37	  474.22
     74.3700	  686.00	  698.46	-2290.21	  474.03
     74.4700	  744.00	  694.00	-2227.75	  473.85
     74.5700	  666.00	  691.63	-2303.38	  473.66
     74.6700	  684.00	  690.97	-2284.72	  473.47
     74.7700	  668.00	  691.72	-2301.47	  473.28
     74.8700	  725.00	  693.60	-2246.35	  473.09
     74.9700	  671.00	  696.19	-2302.94	  472.90
     75.0700	  706.00	  699.21	-2270.96	  472.71
     75.1700	  691.00	  702.05	-2288.80	  472.52
     75.2700	  761.00	  704.10	-2220.85	  472.33
     75.3700	  751.00	  704.83	-2231.58	  472.14
     75.4700	  745.00	  704.00	-2236.75	  471.94
     75.5700	  718.00	  701.81	-2261.56	  471.75
     75.6700	  699.00	  698.90	-2277.65	  471.55
     75.7700	  730.00	  696.12	-2243.87	  471.36
     75.8700	  727.00	  694.30	-2245.05	  471.16
     75.9700	  719.00	  694.55	-2253.30	  470.96
     76.0700	  736.00	  697.78	-2239.53	  470.77
     76.1700	  718.00	  705.06	-2264.81	  470.57
     76.2700	  684.00	  717.47	-2311.22	  470.37
     76.3700	  734.00	  736.04	-2279.79	  470.17
     76.4700	  789.00	  761.61	-2250.36	  469.97
     76.5700	  801.00	  794.65	-2271.40	  469.77
     76.6700	  792.00	  834.98	-2320.73	  469.57
     76.7700	  897.00	  881.60	-2262.35	  469.36
     76.8700	  905.00	  932.52	-2305.27	  469.16
     76.9700	  894.00	  984.49	-2368.24	  468.96
     77.0700	 1068.00	 1032.99	-2242.74	  468.75
     77.1700	 1026.00	 1072.33	-2324.08	  468.55
     77.2700	 1042.00	 1096.51	-2332.26	  468.34
     77.3700	 1091.00	 1101.00	-2287.75	  468.14
     77.4700	 1076.00	 1084.82	-2286.57	  467.93
     77.5700	  980.00	 1050.96	-2348.71	  467.73
     77.6700	 1010.00	 1004.98	-2272.73	  467.52
     77.7700	  918.00	  952.67	-2312.42	  467.31
     77.8700	  891.00	  899.48	-2286.23	  467.10
     77.9700	  861.00	  849.03	-2265.78	  466.89
     78.0700	  808.00	  803.78	-2273.53	  466.69
     78.1700	  750.00	  765.14	-2292.89	  466.48
     78.2700	  752.00	  733.51	-2259.26	  466.27
     78.3700	  700.00	  708.61	-2286.36	  466.06
     78.4700	  668.00	  689.68	-2299.43	  465.84
     78.5700	  689.00	  675.70	-2264.45	  465.63
     78.6700	  654.00	  665.64	-2289.39	  465.42
     78.7700	  713.00	  658.52	-2223.27	  465.21
     78.8700	  710.00	  653.53	-2221.28	  465.00
     78.9700	  696.00	  650.05	-2231.80	  464.78
     79.0700	  656.00	  647.64	-2269.39	  464.57
     79.1700	  673.00	  645.93	-2250.68	  464.36
     79.2700	  628.00	  644.84	-2294.59	  464.14
     79.3700	  674.00	  644.19	-2247.94	  463.93
     79.4700	  643.00	  643.94	-2278.69	  463.71
     79.5700	  648.00	  644.07	-2273.82	  463.50
     79.6700	  625.00	  644.59	-2297.34	  463.28
     79.7700	  680.00	  645.56	-2243.31	  463.06
     79.8700	  659.00	  647.06	-2265.81	  462.85
     79.9700	  636.00	  649.24	-2290.99	  462.63
     80.0700	  635.00	  652.31	-2295.06	  462.41
     80.1700	  674.00	  656.64	-2260.39	  462.20
     80.2700	  701.00	  662.76	-2239.51	  461.98
     80.3700	  665.00	  671.48	-2284.23	  461.76
     80.4700	  724.00	  683.92	-2237.67	  461.54
     80.5700	  735.00	  701.33	-2244.08	  461.33
     80.6700	  743.00	  726.08	-2260.83	  461.11
     80.7700	  783.00	  760.02	-2254.77	  460.89
     80.8700	  872.00	  805.27	-2211.02	  460.67
     80.9700	  899.00	  863.67	-2242.42	  460.45
     81.0700	 1002.00	  936.32	-2212.07	  460.23
     81.1700	 1088.00	 1023.09	-2212.84	  460.01
     81.2700	 1210.00	 1122.09	-2189.84	  459.79
     81.3700	 1267.00	 1229.36	-2240.11	  459.57
     81.4700	 1357.00	 1338.59	-2259.34	  459.35
     81.5700	 1449.00	 1441.49	-2270.24	  459.13
     81.6700	 1560.00	 1528.59	-2246.34	  458.91
     81.7700	 1568.00	 1591.14	-2300.89	  458.69
     81.8700	 1635.00	 1623.28	-2266.03	  458.47
     81.9700	 1596.00	 1623.11	-2304.86	  458.25
     82.0700	 1591.00	 1592.30	-2279.05	  458.03
     82.1700	 1497.00	 1535.31	-2316.06	  457.81
     82.2700	 1449.00	 1458.83	-2287.58	  457.59
     82.3700	 1309.00	 1370.58	-2339.33	  457.37
     82.4700	 1302.00	 1277.92	-2253.67	  457.15
     82.5700	 1209.00	 1186.81	-2255.56	  456.92
     82.6700	 1048.00	 1101.53	-2331.27	  456.70
     82.7700	 1054.00	 1024.86	-2248.61	  456.48
     82.8700	  977.00	  958.18	-2258.93	  456.26
     82.9700	  934.00	  901.59	-2245.34	  456.04
     83.0700	  839.00	  854.22	-2292.97	  455.82
     83.1700	  797.00	  814.70	-2295.45	  455.60
     83.2700	  797.00	  781.66	-2262.41	  455.38
     83.3700	  711.00	  754.06	-2320.81	  455.15
     83.4700	  731.00	  731.19	-2277.94	  454.93
     83.5700	  653.00	  712.60	-2337.35	  454.71
     83.6700	  680.00	  697.99	-2295.74	  454.49
     83.7700	  642.00	  687.15	-2322.90	  454.27
     83.8700	  739.00	  679.92	-2218.67	  454.05
     83.9700	  645.00	  676.07	-2308.82	  453.83
     84.0700	  702.00	  675.33	-2251.08	  453.61
     84.1700	  652.00	  677.30	-2303.05	  453.39
     84.2700	  659.00	  681.42	-2300.17	  453.17
     84.3700	  682.00	  686.88	-2282.63	  452.95
     84.4700	  681.00	  693.17	-2289.92	  452.73
     84.5700	  671.00	  699.20	-2305.95	  452.51
     84.6700	  731.00	  703.99	-2250.74	  452.29
     84.7700	  737.00	  706.51	-2247.26	  452.07
     84.8700	  671.00	  706.28	-2313.03	  451.85
     84.9700	  648.00	  703.02	-2332.77	  451.63
     85.0700	  714.00	  697.05	-2260.80	  451.41
     85.1700	  635.00	  689.08	-2331.83	  451.19
     85.2700	  642.00	  679.96	-2315.71	  450.97
     85.3700	  655.00	  670.50	-2293.25	  450.75
     85.4700	  645.00	  661.38	-2294.13	  450.54
     85.5700	  647.00	  653.14	-2283.89	  450.32
     85.6700	  656.00	  646.20	-2267.95	  450.10
     85.7700	  601.00	  640.81	-2317.56	  449.88
     85.8700	  642.00	  637.14	-2272.89	  449.67
     85.9700	  674.00	  635.27	-2239.02	  449.45
     86.0700	  622.00	  635.23	-2290.98	  449.23
     86.1700	  648.00	  637.03	-2266.78	  449.02
     86.2700	  618.00	  640.65	-2300.40	  448.80
     86.3700	  658.00	  646.03	-2265.78	  448.59
     86.4700	  637.00	  653.10	-2293.85	  448.37
     86.5700	  657.00	  661.69	-2282.44	  448.16
     86.6700	  713.00	  671.58	-2236.33	  447.94
     86.7700	  657.00	  682.43	-2303.18	  447.73
     86.8700	  682.00	  693.82	-2289.57	  447.52
     86.9700	  673.00	  705.21	-2309.96	  447.30
     87.0700	  662.00	  716.00	-2331.75	  447.09
     87.1700	  700.00	  725.63	-2303.38	  446.88
     87.2700	  729.00	  733.69	-2282.44	  446.67
     87.3700	  717.00	  740.12	-2300.87	  446.46
     87.4700	  755.00	  745.27	-2268.02	  446.25
     87.5700	  719.00	  749.69	-2308.44	  446.04
     87.6700	  714.00	  753.93	-2317.68	  445.83
     87.7700	  705.00	  758.40	-2331.15	  445.62
     87.8700	  722.00	  763.22	-2318.97	  445.41
     87.9700	  744.00	  768.22	-2301.97	  445.20
     88.0700	  756.00	  772.91	-2294.66	  444.99
     88.1700	  802.00	  776.53	-2252.28	  444.78
     88.2700	  736.00	  778.15	-2319.90	  444.58
     88.3700	  757.00	  776.93	-2297.68	  444.37
     88.4700	  734.00	  772.38	-2316.13	  444.17
     88.5700	  753.00	  764.54	-2289.29	  443.96
     88.6700	  766.00	  753.95	-2265.70	  443.76
     88.7700	  743.00	  741.45	-2276.20	  443.55
     88.8700	  734.00	  727.98	-2271.73	  443.35
     88.9700	  707.00	  713.98	-2284.73	  443.15
     89.0700	  691.00	  701.09	-2287.84	  442.95
     89.1700	  706.00	  689.50	-2261.25	  442.74
     89.2700	  682.00	  679.68	-2275.43	  442.54
     89.3700	  626.00	  671.94	-2323.69	  442.34
     89.4700	  644.00	  666.38	-2300.13	  442.15
     89.5700	  681.00	  662.97	-2259.72	  441.95
     89.6700	  654.00	  661.50	-2285.25	  441.75
     89.7700	  699.00	  661.64	-2240.39	  441.55
     89.8700	  691.00	  662.96	-2249.71	  441.36
     89.9700	  738.00	  664.94	-2204.69	  441.16
     90.0700	  717.00	  666.99	-2227.74	  440.97
     90.1700	  738.00	  668.53	-2208.28	  440.77
     90.2700	  784.00	  669.04	-2162.79	  440.58
     90.3700	  706.00	  668.15	-2239.90	  440.39
     90.4700	  724.00	  665.75	-2219.50	  440.19
     90.5700	  653.00	  661.97	-2286.72	  440.00
     90.6700	  667.00	  657.11	-2267.86	  439.81
     90.7700	  681.00	  651.56	-2248.31	  439.62
     90.8700	  643.00	  645.71	-2280.46	  439.44
     90.9700	  643.00	  639.89	-2274.64	  439.25
     91.0700	  684.00	  634.38	-2228.13	  439.06
     91.1700	  641.00	  629.38	-2266.13	  438.88
     91.2700	  630.00	  625.01	-2272.76	  438.69
     91.3700	  628.00	  621.36	-2271.11	  438.51
     91.4700	  602.00	  618.43	-2294.18	  438.32
     91.5700	  616.00	  616.20	-2277.95	  438.14
     91.6700	  631.00	  614.63	-2261.38	  437.96
     91.7700	  608.00	  613.66	-2283.41	  437.78
     91.8700	  609.00	  613.23	-2281.98	  437.60
     91.9700	  628.00	  613.32	-2263.07	  437.42
     92.0700	  584.00	  613.93	-2307.68	  437.24
     92.1700	  625.00	  615.07	-2267.82	  437.07
     92.2700	  595.00	  616.82	-2299.57	  436.89
     92.3700	  609.00	  619.29	-2288.04	  436.72
     92.4700	  631.00	  622.62	-2269.37	  436.54
     92.5700	  583.00	  627.02	-2321.77	  436.37
     92.6700	  637.00	  632.69	-2273.44	  436.20
     92.7700	  658.00	  639.86	-2259.61	  436.03
     92.8700	  651.00	  648.76	-2275.51	  435.86
     92.9700	  633.00	  659.59	-2304.34	  435.69
     93.0700	  682.00	  672.48	-2268.23	  435.52
     93.1700	  678.00	  687.51	-2287.26	  435.36
     93.2700	  720.00	  704.62	-2262.37	  435.19
     93.3700	  735.00	  723.65	-2266.40	  435.03
     93.4700	  719.00	  744.29	-2303.04	  434.86
     93.5700	  746.00	  766.06	-2297.81	  434.70
     93.6700	  767.00	  788.34	-2299.09	  434.54
     93.7700	  740.00	  810.38	-2348.13	  434.38
     93.8700	  817.00	  831.33	-2292.08	  434.22
     93.9700	  796.00	  850.42	-2332.17	  434.07
     94.0700	  876.00	  867.11	-2268.86	  433.91
     94.1700	  782.00	  881.33	-2377.08	  433.76
     94.2700	  845.00	  893.49	-2326.24	  433.60
     94.3700	  862.00	  904.35	-2320.10	  433.45
     94.4700	  818.00	  914.80	-2374.55	  433.30
     94.5700	  928.00	  925.34	-2275.09	  433.15
     94.6700	  895.00	  937.21	-2319.96	  433.00
     94.7700	  954.00	  950.43	-2274.18	  432.85
     94.8700	  980.00	  965.17	-2262.92	  432.71
     94.9700	 1008.00	  981.46	-2251.21	  432.56
     95.0700	 1023.00	  999.25	-2254.00	  432.42
     95.1700	 1036.00	 1018.35	-2260.10	  432.28
     95.2700	 1040.00	 1038.27	-2276.02	  432.13
     95.3700	 1059.00	 1058.14	-2276.89	  431.99
     95.4700	  978.00	 1076.61	-2376.36	  431.86
     95.5700	 1127.00	 1091.90	-2242.65	  431.72
     95.6700	 1147.00	 1102.06	-2232.81	  431.58
     95.7700	 1104.00	 1105.19	-2278.94	  431.45
     95.8700	 1104.00	 1099.91	-2273.66	  431.32
     95.9700	 1050.00	 1085.76	-2313.51	  431.18
     96.0700	 1047.00	 1063.35	-2294.10	  431.05
     96.1700	 1014.00	 1034.23	-2297.98	  430.92
     96.2700	 1002.00	 1000.56	-2276.31	  430.80
     96.3700	  979.00	  964.75	-2263.50	  430.67
     96.4700	  948.00	  929.22	-2258.97	  430.55
     96.5700	  952.00	  896.22	-2221.97	  430.42
     96.6700	  835.00	  867.78	-2310.53	  430.30
     96.7700	  882.00	  845.61	-2241.36	  430.18
     96.8700	  830.00	  831.16	-2278.91	  430.06
     96.9700	  818.00	  825.56	-2285.31	  429.95
     97.0700	  857.00	  829.67	-2250.42	  429.83
     97.1700	  901.00	  844.10	-2220.85	  429.71
     97.2700	  934.00	  869.21	-2212.96	  429.60
     97.3700	  995.00	  905.13	-2187.88	  429.49
     97.4700	  996.00	  951.68	-2233.43	  429.38
     97.5700	 1040.00	 1008.35	-2246.10	  429.27
     97.6700	 1111.00	 1074.22	-2240.97	  429.17
     97.7700	 1142.00	 1147.91	-2283.66	  429.06
     97.8700	 1240.00	 1227.49	-2265.24	  428.96
     97.9700	 1285.00	 1310.43	-2303.18	  428.86
     98.0700	 1286.00	 1393.57	-2385.32	  428.75
     98.1700	 1505.00	 1473.10	-2245.85	  428.66
     98.2700	 1546.00	 1544.76	-2276.51	  428.56
     98.3700	 1522.00	 1604.00	-2359.75	  428.46
     98.4700	 1615.00	 1646.52	-2309.27	  428.37
     98.5700	 1610.00	 1669.01	-2336.76	  428.28
     98.6700	 1703.00	 1669.85	-2244.60	  428.19
     98.7700	 1628.00	 1649.46	-2299.21	  428.10
     98.8700	 1580.00	 1610.22	-2307.97	  428.01
     98.9700	 1625.00	 1555.80	-2208.55	  427.92
     99.0700	 1518.00	 1490.52	-2250.27	  427.84
     99.1700	 1375.00	 1418.82	-2321.57	  427.76
     99.2700	 1291.00	 1344.82	-2331.57	  427.68
     99.3700	 1271.00	 1272.23	-2278.98	  427.60
     99.4700	 1201.00	 1204.23	-2280.98	  427.52
     99.5700	 1206.00	 1143.49	-2215.24	  427.45
     99.6700	 1121.00	 1092.17	-2248.92	  427.37
     99.7700	 1064.00	 1051.96	-2265.71	  427.30
     99.8700	 1058.00	 1024.19	-2243.94	  427.23
     99.9700	 1057.00	 1009.82	-2230.57	  427.16
    100.0700	 1040.00	 1009.48	-2247.23	  427.09
    100.1700	 1031.00	 1023.51	-2270.26	  427.03
    100.2700	 1128.00	 1051.93	-2201.68	  426.97
    100.3700	 1143.00	 1094.46	-2229.21	  426.91
    100.4700	 1154.00	 1150.46	-2274.21	  426.85
    100.5700	 1227.00	 1218.94	-2269.69	  426.79
    100.6700	 1287.00	 1298.51	-2289.25	  426.73
    100.7700	 1424.00	 1387.31	-2241.06	  426.68
    100.8700	 1551.00	 1483.02	-2209.77	  426.63
    100.9700	 1546.00	 1582.78	-2314.53	  426.58
    101.0700	 1683.00	 1683.17	-2277.92	  426.53
    101.1700	 1759.00	 1780.73	-2299.48	  426.48
    101.2700	 1898.00	 1871.65	-2251.40	  426.44
    101.3700	 1916.00	 1952.54	-2314.29	  426.39
    101.4700	 1978.00	 2020.73	-2320.48	  426.35
    101.5700	 2069.00	 2074.50	-2283.25	  426.31
    101.6700	 2093.00	 2113.01	-2297.76	  426.28
    101.7700	 2050.00	 2135.95	-2363.70	  426.24
    101.8700	 2153.00	 2143.23	-2267.98	  426.21
    101.9700	 2240.00	 2134.78	-2172.53	  426.18
    102.0700	 2159.00	 2110.76	-2229.51	  426.15
    102.1700	 2035.00	 2071.84	-2314.59	  426.12
    102.2700	 2074.00	 2019.61	-2223.36	  426.10
    102.3700	 2021.00	 1956.68	-2213.43	  426.07
    102.4700	 1993.00	 1886.47	-2171.22	  426.05
    102.5700	 1837.00	 1812.73	-2253.48	  426.03
    102.6700	 1812.00	 1739.08	-2204.83	  426.02
    102.7700	 1662.00	 1668.55	-2284.30	  426.00
    102.8700	 1650.00	 1603.46	-2231.21	  425.99
    102.9700	 1628.00	 1545.31	-2195.06	  425.98
    103.0700	 1521.00	 1494.79	-2251.54	  425.97
    103.1700	 1382.00	 1451.89	-2347.64	  425.96
    103.2700	 1443.00	 1415.91	-2250.66	  425.96
    103.3700	 1384.00	 1385.60	-2279.35	  425.95
    103.4700	 1414.00	 1359.26	-2223.01	  425.95
    103.5700	 1262.00	 1334.87	-2350.62	  425.95
    103.6700	 1351.00	 1310.36	-2237.11	  425.96
    103.7700	 1266.00	 1283.87	-2295.62	  425.96
    103.8700	 1242.00	 1254.04	-2289.79	  425.97
    103.9700	 1264.00	 1220.18	-2233.93	  425.98
    104.0700	 1188.00	 1182.35	-2272.10	  425.99
    104.1700	 1170.00	 1141.16	-2248.91	  426.01
    104.2700	 1082.00	 1097.57	-2293.32	  426.02
    104.3700	  993.00	 1052.71	-2337.46	  426.04
    104.4700	 1011.00	 1007.69	-2274.44	  426.06
    104.5700	 1038.00	  963.55	-2203.29	  426.09
    104.6700	  890.00	  921.16	-2308.91	  426.11
    104.7700	  939.00	  881.25	-2220.00	  426.14
    104.8700	  848.00	  844.37	-2274.12	  426.17
    104.9700	  822.00	  810.83	-2266.58	  426.20
    105.0700	  785.00	  780.99	-2273.74	  426.23
    105.1700	  758.00	  754.85	-2274.60	  426.27
    105.2700	  735.00	  732.33	-2275.08	  426.31
    105.3700	  702.00	  713.25	-2289.00	  426.35
    105.4700	  773.00	  697.36	-2202.11	  426.39
    105.5700	  745.00	  684.35	-2217.10	  426.43
    105.6700	  677.00	  673.91	-2274.66	  426.48
    105.7700	  675.00	  665.64	-2268.39	  426.53
    105.8700	  684.00	  659.36	-2253.11	  426.58
    105.9700	  692.00	  654.75	-2240.50	  426.64
    106.0700	  698.00	  651.56	-2231.31	  426.69
    106.1700	  648.00	  649.64	-2279.39	  426.75
    106.2700	  662.00	  648.85	-2264.60	  426.81
    106.3700	  639.00	  649.09	-2287.84	  426.87
    106.4700	  688.00	  650.34	-2240.09	  426.94
    106.5700	  610.00	  652.58	-2320.33	  427.01
    106.6700	  677.00	  655.84	-2256.59	  427.08
    106.7700	  634.00	  660.16	-2303.91	  427.15
    106.8700	  665.00	  665.58	-2278.33	  427.22
    106.9700	  675.00	  672.18	-2274.93	  427.30
    107.0700	  669.00	  680.01	-2288.76	  427.38
    107.1700	  701.00	  689.09	-2265.84	  427.46
    107.2700	  710.00	  699.43	-2267.18	  427.55
    107.3700	  676.00	  710.98	-2312.73	  427.63
    107.4700	  754.00	  723.63	-2247.38	  427.72
    107.5700	  686.00	  737.23	-2328.98	  427.81
    107.6700	  746.00	  751.55	-2283.30	  427.91
    107.7700	  749.00	  766.29	-2295.04	  428.00
    107.8700	  739.00	  781.09	-2319.84	  428.10
    107.9700	  750.00	  795.53	-2323.28	  428.20
    108.0700	  765.00	  809.14	-2321.89	  428.31
    108.1700	  808.00	  821.45	-2291.20	  428.41
    108.2700	  752.00	  831.99	-2357.74	  428.52
    108.3700	  824.00	  840.35	-2294.10	  428.63
    108.4700	  824.00	  846.29	-2300.04	  428.74
    108.5700	  793.00	  849.73	-2334.48	  428.86
    108.6700	  824.00	  850.82	-2304.57	  428.98
    108.7700	  869.00	  849.88	-2258.63	  429.10
    108.8700	  794.00	  847.41	-2331.16	  429.22
    108.9700	  771.00	  843.95	-2350.70	  429.35
    109.0700	  771.00	  840.01	-2346.76	  429.47
    109.1700	  766.00	  836.09	-2347.84	  429.60
    109.2700	  739.00	  832.60	-2371.35	  429.74
    109.3700	  775.00	  829.82	-2332.57	  429.87
    109.4700	  732.00	  827.95	-2373.70	  430.01
    109.5700	  741.00	  827.04	-2363.79	  430.15
    109.6700	  815.00	  827.04	-2289.79	  430.29
    109.7700	  770.00	  827.79	-2335.54	  430.44
    109.8700	  781.00	  828.98	-2325.73	  430.59
    109.9700	  806.00	  830.26	-2302.01	  430.74
    110.0700	  803.00	  831.19	-2305.94	  430.89
    110.1700	  819.00	  831.31	-2290.06	  431.05
    110.2700	  849.00	  830.18	-2258.93	  431.20
    110.3700	  828.00	  827.50	-2277.25	  431.36
    110.4700	  813.00	  823.07	-2287.82	  431.53
    110.5700	  804.00	  816.83	-2290.58	  431.69
    110.6700	  788.00	  808.92	-2298.67	  431.86
    110.7700	  782.00	  799.56	-2295.31	  432.03
    110.8700	  785.00	  789.07	-2281.82	  432.21
    110.9700	  752.00	  777.79	-2303.54	  432.38
    111.0700	  780.00	  766.07	-2263.82	  432.56
    111.1700	  741.00	  754.23	-2290.98	  432.74
    111.2700	  722.00	  742.56	-2298.31	  432.93
    111.3700	  692.00	  731.31	-2317.06	  433.11
    111.4700	  718.00	  720.70	-2280.45	  433.30
    111.5700	  702.00	  710.89	-2286.64	  433.49
    111.6700	  677.00	  702.00	-2302.75	  433.69
    111.7700	  685.00	  694.11	-2286.86	  433.88
    111.8700	  656.00	  687.28	-2309.03	  434.08
    111.9700	  683.00	  681.51	-2276.26	  434.29
    112.0700	  628.00	  676.78	-2326.53	  434.49
    112.1700	  672.00	  673.06	-2278.81	  434.70
    112.2700	  642.00	  670.26	-2306.01	  434.91
    112.3700	  668.00	  668.31	-2278.06	  435.12
    112.4700	  678.00	  667.13	-2266.88	  435.34
    112.5700	  626.00	  666.61	-2318.36	  435.55
    112.6700	  626.00	  666.66	-2318.41	  435.77
    112.7700	  665.00	  667.18	-2279.93	  436.00
    112.8700	  615.00	  668.08	-2330.83	  436.22
    112.9700	  631.00	  669.28	-2316.03	  436.45
    113.0700	  683.00	  670.72	-2265.47	  436.68
    113.1700	  643.00	  672.32	-2307.07	  436.92
    113.2700	  651.00	  674.05	-2300.80	  437.15
    113.3700	  683.00	  675.89	-2270.64	  437.39
    113.4700	  655.00	  677.83	-2300.58	  437.64
    113.5700	  673.00	  679.88	-2284.63	  437.88
    113.6700	  668.00	  682.08	-2291.83	  438.13
    113.7700	  660.00	  684.46	-2302.21	  438.38
    113.8700	  662.00	  687.08	-2302.83	  438.63
    113.9700	  628.00	  689.99	-2339.74	  438.89
    114.0700	  697.00	  693.31	-2274.06	  439.14
    114.1700	  689.00	  697.11	-2285.86	  439.41
    114.2700	  660.00	  701.53	-2319.28	  439.67
    114.3700	  699.00	  706.72	-2285.47	  439.94
    114.4700	  681.00	  712.89	-2309.64	  440.20
    114.5700	  750.00	  720.32	-2248.07	  440.48
    114.6700	  704.00	  729.33	-2303.08	  440.75
    114.7700	  705.00	  740.38	-2313.13	  441.03
    114.8700	  755.00	  754.01	-2276.76	  441.31
    114.9700	  797.00	  770.94	-2251.69	  441.59
    115.0700	  879.00	  792.06	-2190.81	  441.88
    115.1700	  802.00	  818.44	-2294.19	  442.16
    115.2700	  858.00	  851.40	-2271.15	  442.45
    115.3700	  962.00	  892.51	-2208.26	  442.75
    115.4700	 1019.00	  943.59	-2202.34	  443.04
    115.5700	 1144.00	 1006.76	-2140.51	  443.34
    115.6700	 1192.00	 1084.36	-2170.11	  443.64
    115.7700	 1344.00	 1178.96	-2112.71	  443.95
    115.8700	 1409.00	 1293.34	-2162.09	  444.26
    115.9700	 1652.00	 1430.29	-2056.04	  444.57
    116.0700	 1920.00	 1592.65	-1950.40	  444.88
    116.1700	 2030.00	 1783.05	-2030.80	  445.19
    116.2700	 2331.00	 2003.75	-1950.50	  445.51
    116.3700	 2584.00	 2256.64	-1950.39	  445.83
    116.4700	 2862.00	 2542.70	-1958.45	  446.16
    116.5700	 3100.00	 2862.23	-2039.98	  446.48
    116.6700	 3444.00	 3214.29	-2048.04	  446.81
    116.7700	 3839.00	 3596.65	-2035.40	  447.15
    116.8700	 4118.00	 4005.93	-2165.68	  447.48
    116.9700	 4473.00	 4437.02	-2241.77	  447.82
    117.0700	 4889.00	 4883.61	-2272.36	  448.16
    117.1700	 5268.00	 5337.72	-2347.47	  448.50
    117.2700	 5701.00	 5790.14	-2366.89	  448.85
    117.3700	 6111.00	 6230.54	-2397.29	  449.20
    117.4700	 6509.00	 6647.46	-2416.21	  449.55
    117.5700	 6694.00	 7029.05	-2612.80	  449.90
    117.6700	 7183.00	 7363.16	-2457.91	  450.26
    117.7700	 7068.00	 7638.11	-2847.86	  450.62
    117.8700	 7525.00	 7843.61	-2596.36	  450.98
    117.9700	 7764.00	 7971.41	-2485.16	  451.35
    118.0700	 7666.00	 8016.32	-2628.07	  451.71
    118.1700	 7656.00	 7976.72	-2598.47	  452.08
    118.2700	 7675.00	 7854.84	-2457.59	  452.46
    118.3700	 7370.00	 7656.38	-2564.13	  452.83
    118.4700	 7054.00	 7389.95	-2613.70	  453.21
    118.5700	 6779.00	 7066.03	-2564.78	  453.59
    118.6700	 6260.00	 6696.31	-2714.06	  453.98
    118.7700	 6111.00	 6292.82	-2459.57	  454.37
    118.8700	 5803.00	 5867.18	-2341.93	  454.76
    118.9700	 5477.00	 5430.55	-2231.30	  455.15
    119.0700	 5158.00	 4992.81	-2112.56	  455.54
    119.1700	 4756.00	 4562.80	-2084.55	  455.94
    119.2700	 4419.00	 4148.00	-2006.75	  456.34
    119.3700	 3958.00	 3754.24	-2073.99	  456.75
    119.4700	 3817.00	 3386.12	-1846.87	  457.15
    119.5700	 3361.00	 3046.61	-1963.36	  457.56
    119.6700	 3043.00	 2737.52	-1972.27	  457.98
    119.7700	 2784.00	 2459.53	-1953.28	  458.39
    119.8700	 2540.00	 2212.17	-1949.92	  458.81
    119.9700	 2348.00	 1994.37	-1924.12	  459.23
    120.0700	 2047.00	 1804.34	-2035.09	  459.65
    120.1700	 1903.00	 1639.96	-2014.71	  460.08
    120.2700	 1792.00	 1498.87	-1984.62	  460.51
    120.3700	 1555.00	 1378.50	-2101.25	  460.94
    120.4700	 1452.00	 1276.39	-2102.14	  461.37
    120.5700	 1316.00	 1190.11	-2151.86	  461.81
    120.6700	 1272.00	 1117.42	-2123.17	  462.25
    120.7700	 1164.00	 1056.29	-2170.04	  462.69
    120.8700	 1127.00	 1004.86	-2155.61	  463.14
    120.9700	 1053.00	  961.59	-2186.34	  463.58
    121.0700	  976.00	  925.12	-2226.87	  464.03
    121.1700	  982.00	  894.31	-2190.06	  464.49
    121.2700	  899.00	  868.25	-2247.00	  464.94
    121.3700	  865.00	  846.16	-2258.91	  465.40
    121.4700	  868.00	  827.44	-2237.19	  465.86
    121.5700	  851.00	  811.59	-2238.34	  466.33
    121.6700	  803.00	  798.22	-2272.97	  466.79
    121.7700	  777.00	  787.02	-2287.77	  467.26
    121.8700	  776.00	  777.75	-2279.50	  467.74
    121.9700	  727.00	  770.21	-2320.96	  468.21
    122.0700	  737.00	  764.23	-2304.98	  468.69
    122.1700	  727.00	  759.71	-2310.46	  469.17
    122.2700	  712.00	  756.52	-2322.27	  469.65
    122.3700	  697.00	  754.59	-2335.34	  470.14
    122.4700	  741.00	  753.84	-2290.59	  470.63
    122.5700	  709.00	  754.21	-2322.96	  471.12
    122.6700	  719.00	  755.63	-2314.38	  471.61
    122.7700	  721.00	  758.06	-2314.81	  472.11
    122.8700	  720.00	  761.43	-2319.18	  472.61
    122.9700	  681.00	  765.69	-2362.44	  473.11
    123.0700	  737.00	  770.77	-2311.52	  473.62
    123.1700	  714.00	  776.61	-2340.36	  474.12
    123.2700	  739.00	  783.13	-2321.88	  474.63
    123.3700	  766.00	  790.25	-2302.00	  475.15
    123.4700	  764.00	  797.88	-2311.63	  475.66
    123.5700	  774.00	  805.91	-2309.66	  476.18
    123.6700	  765.00	  814.23	-2326.98	  476.70
    123.7700	  747.00	  822.72	-2353.47	  477.22
    123.8700	  780.00	  831.27	-2329.02	  477.75
    123.9700	  833.00	  839.74	-2284.49	  478.28
    124.0700	  818.00	  848.00	-2307.75	  478.81
    124.1700	  782.00	  855.95	-2351.70	  479.34
    124.2700	  810.00	  863.45	-2331.20	  479.88
    124.3700	  818.00	  870.43	-2330.18	  480.42
    124.4700	  847.00	  876.83	-2307.58	  480.96
    124.5700	  928.00	  882.60	-2232.35	  481.50
    124.6700	  845.00	  887.71	-2320.46	  482.05
    124.7700	  845.00	  892.26	-2325.01	  482.60
    124.8700	  870.00	  896.25	-2304.00	  483.15
    124.9700	  878.00	  625.69	-2025.44	  483.71
    125.0700	  889.00	  626.25	-2277.75	  484.26
    125.1700	  854.00	  626.81	-2277.75	  484.82
    125.2700	  836.00	  627.37	-2277.75	  485.38
    125.3700	  857.00	  627.93	-2277.75	  485.95
    125.4700	  893.00	  628.50	-2277.75	  486.52
    125.5700	  857.00	  629.07	-2277.75	  487.09
    125.6700	  790.00	  629.64	-2277.75	  487.66
    125.7700	  839.00	  630.22	-2277.75	  488.23
    125.8700	  844.00	  630.80	-2277.75	  488.81
    125.9700	  888.00	  631.38	-2277.75	  489.39
    126.0700	  842.00	  631.96	-2277.75	  489.97
    126.1700	  834.00	  632.54	-2277.75	  490.56
    126.2700	  843.00	  633.13	-2277.75	  491.15
    126.3700	  853.00	  633.72	-2277.75	  491.74
    126.4700	  847.00	  634.31	-2277.75	  492.33
    126.5700	  773.00	  634.91	-2277.75	  492.92
    126.6700	  827.00	  635.51	-2277.75	  493.52
    126.7700	  859.00	  636.11	-2277.75	  494.12
    126.8700	  843.00	  636.71	-2277.75	  494.72
    126.9700	  790.00	  637.31	-2277.75	  495.33
    127.0700	  793.00	  637.92	-2277.75	  495.94
    127.1700	  726.00	  638.53	-2277.75	  496.55
    127.2700	  742.00	  639.14	-2277.75	  497.16
    127.3700	  699.00	  639.76	-2277.75	  497.77
    127.4700	  802.00	  640.37	-2277.75	  498.39
    127.5700	  698.00	  640.99	-2277.75	  499.01
    127.6700	  714.00	  641.62	-2277.75	  499.63
    127.7700	  680.00	  642.24	-2277.75	  500.25
    127.8700	  674.00	  642.87	-2277.75	  500.88
    127.9700	  688.00	  643.49	-2277.75	  501.51
    128.0700	  722.00	  644.13	-2277.75	  502.14
    128.1700	  665.00	  644.76	-2277.75	  502.78
    128.2700	  714.00	  645.40	-2277.75	  503.41
    128.3700	  681.00	  646.03	-2277.75	  504.05
    128.4700	  714.00	  646.67	-2277.75	  504.69
    128.5700	    0.00	  647.32	-2277.75	  505.33
    128.6700	    0.00	  647.96	-2277.75	  505.98
     12.4544	        	        	        	        	       0	(  0  0  2)	  0  1
     12.4544	        	        	        	        	    -569	(  0  0  2)	  0  1
     25.1478	        	        	        	        	       0	(  0  0  4)	  0  1
     25.1478	        	        	        	        	    -569	(  0  0  4)	  0  1
     28.5844	        	        	        	        	       0	(  1  0  0)	  0  1
     28.5844	        	        	        	        	    -569	(  1  0  0)	  0  1
     29.2887	        	        	        	        	       0	(  1  0  1)	  0  1
     29.2887	        	        	        	        	    -569	(  1  0  1)	  0  1
     31.3153	        	        	        	        	       0	(  1  0  2)	  0  1
     31.3153	        	        	        	        	    -569	(  1  0  2)	  0  1
     34.4551	        	        	        	        	       0	(  1  0  3)	  0  1
     34.4551	        	        	        	        	    -569	(  1  0  3)	  0  1
     38.1657	        	        	        	        	       0	(  0  0  6)	  0  1
     38.1657	        	        	        	        	    -569	(  0  0  6)	  0  1
     38.4725	        	        	        	        	       0	(  1  0  4)	  0  1
     38.4725	        	        	        	        	    -569	(  1  0  4)	  0  1
     43.1701	        	        	        	        	       0	(  1  0  5)	  0  1
     43.1701	        	        	        	        	    -569	(  1  0  5)	  0  1
     48.4083	        	        	        	        	       0	(  1  0  6)	  0  1
     48.4083	        	        	        	        	    -569	(  1  0  6)	  0  1
     50.7023	        	        	        	        	       0	(  1  1  0)	  0  1
     50.7023	        	        	        	        	    -569	(  1  1  0)	  0  1
     51.7211	        	        	        	        	       0	(  0  0  8)	  0  1
     51.7211	        	        	        	        	    -569	(  0  0  8)	  0  1
     52.4450	        	        	        	        	       0	(  1  1  2)	  0  1
     52.4450	        	        	        	        	    -569	(  1  1  2)	  0  1
     54.0993	        	        	        	        	       0	(  1  0  7)	  0  1
     54.0993	        	        	        	        	    -569	(  1  0  7)	  0  1
     57.4503	        	        	        	        	       0	(  1  1  4)	  0  1
     57.4503	        	        	        	        	    -569	(  1  1  4)	  0  1
     59.2779	        	        	        	        	       0	(  2  0  0)	  0  1
     59.2779	        	        	        	        	    -569	(  2  0  0)	  0  1
     59.6742	        	        	        	        	       0	(  2  0  1)	  0  1
     59.6742	        	        	        	        	    -569	(  2  0  1)	  0  1
     60.1976	        	        	        	        	       0	(  1  0  8)	  0  1
     60.1976	        	        	        	        	    -569	(  1  0  8)	  0  1
     60.8538	        	        	        	        	       0	(  2  0  2)	  0  1
     60.8538	        	        	        	        	    -569	(  2  0  2)	  0  1
     62.7905	        	        	        	        	       0	(  2  0  3)	  0  1
     62.7905	        	        	        	        	    -569	(  2  0  3)	  0  1
     65.2378	        	        	        	        	       0	(  1  1  6)	  0  1
     65.2378	        	        	        	        	    -569	(  1  1  6)	  0  1
     65.4474	        	        	        	        	       0	(  2  0  4)	  0  1
     65.4474	        	        	        	        	    -569	(  2  0  4)	  0  1
     66.1098	        	        	        	        	       0	(  0  0 10)	  0  1
     66.1098	        	        	        	        	    -569	(  0  0 10)	  0  1
     66.6903	        	        	        	        	       0	(  1  0  9)	  0  1
     66.6903	        	        	        	        	    -569	(  1  0  9)	  0  1
     68.7838	        	        	        	        	       0	(  2  0  5)	  0  1
     68.7838	        	        	        	        	    -569	(  2  0  5)	  0  1
     72.7633	        	        	        	        	       0	(  2  0  6)	  0  1
     72.7633	        	        	        	        	    -569	(  2  0  6)	  0  1
     73.5935	        	        	        	        	       0	(  1  0 10)	  0  1
     73.5935	        	        	        	        	    -569	(  1  0 10)	  0  1
     75.4068	        	        	        	        	       0	(  1  1  8)	  0  1
     75.4068	        	        	        	        	    -569	(  1  1  8)	  0  1
     77.3602	        	        	        	        	       0	(  2  0  7)	  0  1
     77.3602	        	        	        	        	    -569	(  2  0  7)	  0  1
     80.9526	        	        	        	        	       0	(  1  0 11)	  0  1
     80.9526	        	        	        	        	    -569	(  1  0 11)	  0  1
     81.7634	        	        	        	        	       0	(  2  1  0)	  0  1
     81.7634	        	        	        	        	    -569	(  2  1  0)	  0  1
     81.7965	        	        	        	        	       0	(  0  0 12)	  0  1
     81.7965	        	        	        	        	    -569	(  0  0 12)	  0  1
     82.1084	        	        	        	        	       0	(  2  1  1)	  0  1
     82.1084	        	        	        	        	    -569	(  2  1  1)	  0  1
     82.5658	        	        	        	        	       0	(  2  0  8)	  0  1
     82.5658	        	        	        	        	    -569	(  2  0  8)	  0  1
     83.1419	        	        	        	        	       0	(  2  1  2)	  0  1
     83.1419	        	        	        	        	    -569	(  2  1  2)	  0  1
     84.8596	        	        	        	        	       0	(  2  1  3)	  0  1
     84.8596	        	        	        	        	    -569	(  2  1  3)	  0  1
     87.2571	        	        	        	        	       0	(  2  1  4)	  0  1
     87.2571	        	        	        	        	    -569	(  2  1  4)	  0  1
     87.8621	        	        	        	        	       0	(  1  1 10)	  0  1
     87.8621	        	        	        	        	    -569	(  1  1 10)	  0  1
     88.3947	        	        	        	        	       0	(  2  0  9)	  0  1
     88.3947	        	        	        	        	    -569	(  2  0  9)	  0  1
     88.8481	        	        	        	        	       0	(  1  0 12)	  0  1
     88.8481	        	        	        	        	    -569	(  1  0 12)	  0  1
     90.3334	        	        	        	        	       0	(  2  1  5)	  0  1
     90.3334	        	        	        	        	    -569	(  2  1  5)	  0  1
     94.0958	        	        	        	        	       0	(  2  1  6)	  0  1
     94.0958	        	        	        	        	    -569	(  2  1  6)	  0  1
     94.8934	        	        	        	        	       0	(  2  0 10)	  0  1
     94.8934	        	        	        	        	    -569	(  2  0 10)	  0  1
     95.8507	        	        	        	        	       0	(  3  0  0)	  0  1
     95.8507	        	        	        	        	    -569	(  3  0  0)	  0  1
     96.1943	        	        	        	        	       0	(  3  0  1)	  0  1
     96.1943	        	        	        	        	    -569	(  3  0  1)	  0  1
     97.2267	        	        	        	        	       0	(  3  0  2)	  0  1
     97.2267	        	        	        	        	    -569	(  3  0  2)	  0  1
     97.4121	        	        	        	        	       0	(  1  0 13)	  0  1
     97.4121	        	        	        	        	    -569	(  1  0 13)	  0  1
     98.5671	        	        	        	        	       0	(  2  1  7)	  0  1
     98.5671	        	        	        	        	    -569	(  2  1  7)	  0  1
     98.9528	        	        	        	        	       0	(  3  0  3)	  0  1
     98.9528	        	        	        	        	    -569	(  3  0  3)	  0  1
     99.6387	        	        	        	        	       0	(  0  0 14)	  0  1
     99.6387	        	        	        	        	    -569	(  0  0 14)	  0  1
    101.3837	        	        	        	        	       0	(  3  0  4)	  0  1
    101.3837	        	        	        	        	    -569	(  3  0  4)	  0  1
    102.1558	        	        	        	        	       0	(  2  0 11)	  0  1
    102.1558	        	        	        	        	    -569	(  2  0 11)	  0  1
    103.0112	        	        	        	        	       0	(  1  1 12)	  0  1
    103.0112	        	        	        	        	    -569	(  1  1 12)	  0  1
    103.7951	        	        	        	        	       0	(  2  1  8)	  0  1
    103.7951	        	        	        	        	    -569	(  2  1  8)	  0  1
    104.5409	        	        	        	        	       0	(  3  0  5)	  0  1
    104.5409	        	        	        	        	    -569	(  3  0  5)	  0  1
    106.8628	        	        	        	        	       0	(  1  0 14)	  0  1
    106.8628	        	        	        	        	    -569	(  1  0 14)	  0  1
    108.4636	        	        	        	        	       0	(  3  0  6)	  0  1
    108.4636	        	        	        	        	    -569	(  3  0  6)	  0  1
    109.8696	        	        	        	        	       0	(  2  1  9)	  0  1
    109.8696	        	        	        	        	    -569	(  2  1  9)	  0  1
    110.3527	        	        	        	        	       0	(  2  0 12)	  0  1
    110.3527	        	        	        	        	    -569	(  2  0 12)	  0  1
    113.2209	        	        	        	        	       0	(  3  0  7)	  0  1
    113.2209	        	        	        	        	    -569	(  3  0  7)	  0  1
    116.9535	        	        	        	        	       0	(  2  1 10)	  0  1
    116.9535	        	        	        	        	    -569	(  2  1 10)	  0  1
    117.5897	        	        	        	        	       0	(  1  0 15)	  0  1
    117.5897	        	        	        	        	    -569	(  1  0 15)	  0  1
    118.0285	        	        	        	        	       0	(  2  2  0)	  0  1
    118.0285	        	        	        	        	    -569	(  2  2  0)	  0  1
    118.9338	        	        	        	        	       0	(  3  0  8)	  0  1
    118.9338	        	        	        	        	    -569	(  3  0  8)	  0  1
    119.5898	        	        	        	        	       0	(  2  2  2)	  0  1
    119.5898	        	        	        	        	    -569	(  2  2  2)	  0  1
    119.8016	        	        	        	        	       0	(  2  0 13)	  0  1
    119.8016	        	        	        	        	    -569	(  2  0 13)	  0  1
    121.6996	        	        	        	        	       0	(  0  0 16)	  0  1
    121.6996	        	        	        	        	    -569	(  0  0 16)	  0  1
    122.3747	        	        	        	        	       0	(  1  1 14)	  0  1
    122.3747	        	        	        	        	    -569	(  1  1 14)	  0  1
    124.4314	        	        	        	        	       0	(  2  2  4)	  0  1
    124.4314	        	        	        	        	    -569	(  2  2  4)	  0  1
    125.3536	        	        	        	        	       0	(  2  1 11)	  0  1
    125.3536	        	        	        	        	    -569	(  2  1 11)	  0  1
    125.8228	        	        	        	        	       0	(  3  0  9)	  0  1
    125.8228	        	        	        	        	    -569	(  3  0  9)	  0  1
    126.3438	        	        	        	        	       0	(  3  1  0)	  0  1
    126.3438	        	        	        	        	    -569	(  3  1  0)	  0  1
    126.7697	        	        	        	        	       0	(  3  1  1)	  0  1
    126.7697	        	        	        	        	    -569	(  3  1  1)	  0  1
    128.0619	        	        	        	        	       0	(  3  1  2)	  0  1
    128.0619	        	        	        	        	    -569	(  3  1  2)	  0  1
    130.2683	        	        	        	        	       0	(  3  1  3)	  0  1
    130.2683	        	        	        	        	    -569	(  3  1  3)	  0  1
    130.4061	        	        	        	        	       0	(  1  0 16)	  0  1
    130.4061	        	        	        	        	    -569	(  1  0 16)	  0  1
    131.1622	        	        	        	        	       0	(  2  0 14)	  0  1
    131.1622	        	        	        	        	    -569	(  2  0 14)	  0  1
    133.2230	        	        	        	        	       0	(  2  2  6)	  0  1
    133.2230	        	        	        	        	    -569	(  2  2  6)	  0  1
    133.4854	        	        	        	        	       0	(  3  1  4)	  0  1
    133.4854	        	        	        	        	    -569	(  3  1  4)	  0  1
    134.3256	        	        	        	        	       0	(  3  0 10)	  0  1
    134.3256	        	        	        	        	    -569	(  3  0 10)	  0  1
    135.7223	        	        	        	        	       0	(  2  1 12)	  0  1
    135.7223	        	        	        	        	    -569	(  2  1 12)	  0  1
    137.8958	        	        	        	        	       0	(  3  1  5)	  0  1
    137.8958	        	        	        	        	    -569	(  3  1  5)	  0  1
    143.8669	        	        	        	        	       0	(  3  1  6)	  0  1
    143.8669	        	        	        	        	    -569	(  3  1  6)	  0  1
    145.5073	        	        	        	        	       0	(  3  0 11)	  0  1
    145.5073	        	        	        	        	    -569	(  3  0 11)	  0  1
    146.2468	        	        	        	        	       0	(  2  0 15)	  0  1
    146.2468	        	        	        	        	    -569	(  2  0 15)	  0  1
    147.7091	        	        	        	        	       0	(  1  0 17)	  0  1
    147.7091	        	        	        	        	    -569	(  1  0 17)	  0  1
    148.4444	        	        	        	        	       0	(  2  2  8)	  0  1
    148.4444	        	        	        	        	    -569	(  2  2  8)	  0  1
    149.9231	        	        	        	        	       0	(  2  1 13)	  0  1
    149.9231	        	        	        	        	    -569	(  2  1 13)	  0  1
    152.2966	        	        	        	        	       0	(  3  1  7)	  0  1
    152.2966	        	        	        	        	    -569	(  3  1  7)	  0  1
    153.3642	        	        	        	        	       0	(  1  1 16)	  0  1
    153.3642	        	        	        	        	    -569	(  1  1 16)	  0  1
    158.7067	        	        	        	        	       0	(  0  0 18)	  0  1
    158.7067	        	        	        	        	    -569	(  0  0 18)	  0  1
    163.9932	        	        	        	        	       0	(  4  0  0)	  0  1
    163.9932	        	        	        	        	    -569	(  4  0  0)	  0  1
    164.1130	        	        	        	        	       0	(  3  0 12)	  0  1
    164.1130	        	        	        	        	    -569	(  3  0 12)	  0  1
    165.2904	        	        	        	        	       0	(  4  0  1)	  0  1
    165.2904	        	        	        	        	    -569	(  4  0  1)	  0  1
    167.2096	        	        	        	        	       0	(  3  1  8)	  0  1
    167.2096	        	        	        	        	    -569	(  3  1  8)	  0  1
